"success","ttype","start_time","trial_type","trial_index","time_elapsed","internal_node_id","warning","missed_checkup","PID","view_history","rt","responses","repeat_instructions","key_press","index","keypress_isi","keypress_S2","block","trial_num","phase","group_type","pair_type","S1_stim","S2_stim","S1_img","S2_img","S1_chosen","S1_higher","accuracy","keypress_iti","total_bonus_tally"
"true","full_screen","d08032022hr2058","fullscreen","0","7712","0.0-0.0","0","0","77831","","","","","","","","","","","","","","","","","","","","","",""
"","instructions","","instructions","1","47606","0.0-1.0-0.0-0.0","0","0","77831","[{""page_index"":0,""viewing_time"":5699},{""page_index"":1,""viewing_time"":25050},{""page_index"":2,""viewing_time"":7389},{""page_index"":3,""viewing_time"":1751}]","39890","","","","","","","","","","","","","","","","","","","",""
"","comprehension_check","","survey-multi-choice","2","75072","0.0-1.0-0.0-1.0","0","0","77831","","27455","{""Q0"":""True"",""Q1"":""K"",""Q2"":""Once the second image appears and while the screen 'MAKE A CHOICE' is shown"",""Q3"":""Green mark"",""Q4"":""either D or K""}","0","","","","","","","","","","","","","","","","","",""
"","start_exp","","html-keyboard-response","3","76516","0.0-1.0-1.0","0","0","77831","","1436","","","32","","","","","","","","","","","","","","","","",""
"","S1","","html-keyboard-response","4","76771","0.0-1.0-2.0","0","0","77831","","null","","","null","0","","","","","","","","","","","","","","","",""
"","ISI","","html-keyboard-response","5","78788","0.0-1.0-3.0","0","0","77831","","null","","","null","0","NaN","","","","","","","","","","","","","","",""
"","S2","","html-keyboard-response","6","79042","0.0-1.0-4.0","0","0","77831","","null","","","null","0","","NaN","","","","","","","","","","","","","",""
"","response","","html-keyboard-response","7","80384","0.0-1.0-5.0-0.0","0","0","77831","","1337","","","75","0","","","1","0","training","adjacent","GF","7","6","P.jpg","L.jpg","1","0","0","",""
"","feedback","","html-keyboard-response","8","81388","0.0-1.0-6.0-0.0","0","0","77831","","null","","","null","0","","","","","","","","","","","","","","","",""
"","time_out","","html-keyboard-response","9","83393","0.0-1.0-8.0-0.0","0","0","77831","","null","","","null","0","","","","","","","","","","","","","","","",""
"","ITI","","html-keyboard-response","10","84396","0.0-1.0-9.0","0","0","77831","","null","","","null","0","","","","","","","","","","","","","","","NaN",""
"","S1","","html-keyboard-response","11","84650","0.0-1.0-11.0","0","0","77831","","null","","","null","1","","","","","","","","","","","","","","","",""
"","ISI","","html-keyboard-response","12","86655","0.0-1.0-12.0","0","0","77831","","null","","","null","1","NaN","","","","","","","","","","","","","","",""
"","S2","","html-keyboard-response","13","86910","0.0-1.0-13.0","0","0","77831","","null","","","null","1","","NaN","","","","","","","","","","","","","",""
"","response","","html-keyboard-response","14","87712","0.0-1.0-14.0-0.0","0","0","77831","","797","","","75","1","","","1","1","training","adjacent","DC","4","3","M.jpg","Q.jpg","1","0","0","",""
"","feedback","","html-keyboard-response","15","88718","0.0-1.0-15.0-0.0","0","0","77831","","null","","","null","1","","","","","","","","","","","","","","","",""
"","time_out","","html-keyboard-response","16","90723","0.0-1.0-17.0-0.0","0","0","77831","","null","","","null","1","","","","","","","","","","","","","","","",""
"","ITI","","html-keyboard-response","17","91727","0.0-1.0-18.0","0","0","77831","","null","","","null","1","","","","","","","","","","","","","","","NaN",""
"","S1","","html-keyboard-response","18","91982","0.0-1.0-20.0","0","0","77831","","null","","","null","2","","","","","","","","","","","","","","","",""
"","ISI","","html-keyboard-response","19","93986","0.0-1.0-21.0","0","0","77831","","null","","","null","2","NaN","","","","","","","","","","","","","","",""
"","S2","","html-keyboard-response","20","94241","0.0-1.0-22.0","0","0","77831","","null","","","null","2","","NaN","","","","","","","","","","","","","",""
"","response","","html-keyboard-response","21","95002","0.0-1.0-23.0-0.0","0","0","77831","","756","","","68","2","","","1","2","training","adjacent","BC","2","3","O.jpg","Q.jpg","0","1","0","",""
"","feedback","","html-keyboard-response","22","96007","0.0-1.0-24.0-0.0","0","0","77831","","null","","","null","2","","","","","","","","","","","","","","","",""
"","time_out","","html-keyboard-response","23","98011","0.0-1.0-26.0-0.0","0","0","77831","","null","","","null","2","","","","","","","","","","","","","","","",""
"","ITI","","html-keyboard-response","24","99015","0.0-1.0-27.0","0","0","77831","","null","","","null","2","","","","","","","","","","","","","","","NaN",""
"","S1","","html-keyboard-response","25","99269","0.0-1.0-29.0","0","0","77831","","null","","","null","3","","","","","","","","","","","","","","","",""
"","ISI","","html-keyboard-response","26","101274","0.0-1.0-30.0","0","0","77831","","null","","","null","3","NaN","","","","","","","","","","","","","","",""
"","S2","","html-keyboard-response","27","101529","0.0-1.0-31.0","0","0","77831","","null","","","null","3","","NaN","","","","","","","","","","","","","",""
"","response","","html-keyboard-response","28","102595","0.0-1.0-32.0-0.0","0","0","77831","","1062","","","75","3","","","1","3","training","adjacent","DC","4","3","M.jpg","Q.jpg","1","0","0","",""
"","feedback","","html-keyboard-response","29","103600","0.0-1.0-33.0-0.0","0","0","77831","","null","","","null","3","","","","","","","","","","","","","","","",""
"","time_out","","html-keyboard-response","30","105605","0.0-1.0-35.0-0.0","0","0","77831","","null","","","null","3","","","","","","","","","","","","","","","",""
"","ITI","","html-keyboard-response","31","106609","0.0-1.0-36.0","0","0","77831","","null","","","null","3","","","","","","","","","","","","","","","NaN",""
"","S1","","html-keyboard-response","32","106864","0.0-1.0-38.0","0","0","77831","","null","","","null","4","","","","","","","","","","","","","","","",""
"","ISI","","html-keyboard-response","33","108869","0.0-1.0-39.0","0","0","77831","","null","","","null","4","NaN","","","","","","","","","","","","","","",""
"","S2","","html-keyboard-response","34","109124","0.0-1.0-40.0","0","0","77831","","null","","","null","4","","NaN","","","","","","","","","","","","","",""
"","response","","html-keyboard-response","35","109539","0.0-1.0-41.0-0.0","0","0","77831","","411","","","68","4","","","1","4","training","adjacent","DC","4","3","M.jpg","Q.jpg","0","0","1","",""
"","feedback","","html-keyboard-response","36","110544","0.0-1.0-42.0-0.0","0","0","77831","","null","","","null","4","","","","","","","","","","","","","","","",""
"","ITI","","html-keyboard-response","37","111550","0.0-1.0-45.0","0","0","77831","","null","","","null","4","","","","","","","","","","","","","","","NaN",""
"","S1","","html-keyboard-response","38","111804","0.0-1.0-47.0","0","0","77831","","null","","","null","5","","","","","","","","","","","","","","","",""
"","ISI","","html-keyboard-response","39","113807","0.0-1.0-48.0","0","0","77831","","null","","","null","5","NaN","","","","","","","","","","","","","","",""
"","S2","","html-keyboard-response","40","114061","0.0-1.0-49.0","0","0","77831","","null","","","null","5","","NaN","","","","","","","","","","","","","",""
"","response","","html-keyboard-response","41","114913","0.0-1.0-50.0-0.0","0","0","77831","","849","","","68","5","","","1","5","training","adjacent","FE","6","5","L.jpg","N.jpg","0","0","1","",""
"","feedback","","html-keyboard-response","42","115916","0.0-1.0-51.0-0.0","0","0","77831","","null","","","null","5","","","","","","","","","","","","","","","",""
"","ITI","","html-keyboard-response","43","116921","0.0-1.0-54.0","0","0","77831","","null","","","null","5","","","","","","","","","","","","","","","NaN",""
"","S1","","html-keyboard-response","44","117175","0.0-1.0-56.0","0","0","77831","","null","","","null","6","","","","","","","","","","","","","","","",""
"","ISI","","html-keyboard-response","45","119179","0.0-1.0-57.0","0","0","77831","","null","","","null","6","NaN","","","","","","","","","","","","","","",""
"","S2","","html-keyboard-response","46","119432","0.0-1.0-58.0","0","0","77831","","null","","","null","6","","NaN","","","","","","","","","","","","","",""
"","response","","html-keyboard-response","47","119849","0.0-1.0-59.0-0.0","0","0","77831","","413","","","75","6","","","1","6","training","adjacent","ED","5","4","N.jpg","M.jpg","1","0","0","",""
"","feedback","","html-keyboard-response","48","120855","0.0-1.0-60.0-0.0","0","0","77831","","null","","","null","6","","","","","","","","","","","","","","","",""
"","time_out","","html-keyboard-response","49","122859","0.0-1.0-62.0-0.0","0","0","77831","","null","","","null","6","","","","","","","","","","","","","","","",""
"","ITI","","html-keyboard-response","50","123863","0.0-1.0-63.0","0","0","77831","","null","","","null","6","","","","","","","","","","","","","","","NaN",""
"","S1","","html-keyboard-response","51","124117","0.0-1.0-65.0","0","0","77831","","null","","","null","7","","","","","","","","","","","","","","","",""
"","ISI","","html-keyboard-response","52","126120","0.0-1.0-66.0","0","0","77831","","null","","","null","7","NaN","","","","","","","","","","","","","","",""
"","S2","","html-keyboard-response","53","126374","0.0-1.0-67.0","0","0","77831","","null","","","null","7","","NaN","","","","","","","","","","","","","",""
"","response","","html-keyboard-response","54","127135","0.0-1.0-68.0-0.0","0","0","77831","","757","","","75","7","","","1","7","training","adjacent","GF","7","6","P.jpg","L.jpg","1","0","0","",""
"","feedback","","html-keyboard-response","55","128141","0.0-1.0-69.0-0.0","0","0","77831","","null","","","null","7","","","","","","","","","","","","","","","",""
"","time_out","","html-keyboard-response","56","130144","0.0-1.0-71.0-0.0","0","0","77831","","null","","","null","7","","","","","","","","","","","","","","","",""
"","ITI","","html-keyboard-response","57","131147","0.0-1.0-72.0","0","0","77831","","null","","","null","7","","","","","","","","","","","","","","","NaN",""
"","S1","","html-keyboard-response","58","131402","0.0-1.0-74.0","0","0","77831","","null","","","null","8","","","","","","","","","","","","","","","",""
"","ISI","","html-keyboard-response","59","133406","0.0-1.0-75.0","0","0","77831","","null","","","null","8","NaN","","","","","","","","","","","","","","",""
"","S2","","html-keyboard-response","60","133661","0.0-1.0-76.0","0","0","77831","","null","","","null","8","","NaN","","","","","","","","","","","","","",""
"","response","","html-keyboard-response","61","134254","0.0-1.0-77.0-0.0","0","0","77831","","590","","","68","8","","","1","8","training","adjacent","CB","3","2","Q.jpg","O.jpg","0","0","1","",""
"","feedback","","html-keyboard-response","62","135258","0.0-1.0-78.0-0.0","0","0","77831","","null","","","null","8","","","","","","","","","","","","","","","",""
"","ITI","","html-keyboard-response","63","136263","0.0-1.0-81.0","0","0","77831","","null","","","null","8","","","","","","","","","","","","","","","NaN",""
"","S1","","html-keyboard-response","64","136518","0.0-1.0-83.0","0","0","77831","","null","","","null","9","","","","","","","","","","","","","","","",""
"","ISI","","html-keyboard-response","65","138522","0.0-1.0-84.0","0","0","77831","","null","","","null","9","NaN","","","","","","","","","","","","","","",""
"","S2","","html-keyboard-response","66","138776","0.0-1.0-85.0","0","0","77831","","null","","","null","9","","NaN","","","","","","","","","","","","","",""
"","response","","html-keyboard-response","67","139269","0.0-1.0-86.0-0.0","0","0","77831","","488","","","75","9","","","1","9","training","adjacent","BA","2","1","O.jpg","R.jpg","1","0","0","",""
"","feedback","","html-keyboard-response","68","140273","0.0-1.0-87.0-0.0","0","0","77831","","null","","","null","9","","","","","","","","","","","","","","","",""
"","time_out","","html-keyboard-response","69","142277","0.0-1.0-89.0-0.0","0","0","77831","","null","","","null","9","","","","","","","","","","","","","","","",""
"","ITI","","html-keyboard-response","70","143281","0.0-1.0-90.0","0","0","77831","","null","","","null","9","","","","","","","","","","","","","","","NaN",""
"","S1","","html-keyboard-response","71","143535","0.0-1.0-92.0","0","0","77831","","null","","","null","10","","","","","","","","","","","","","","","",""
"","ISI","","html-keyboard-response","72","145540","0.0-1.0-93.0","0","0","77831","","null","","","null","10","NaN","","","","","","","","","","","","","","",""
"","S2","","html-keyboard-response","73","145793","0.0-1.0-94.0","0","0","77831","","null","","","null","10","","NaN","","","","","","","","","","","","","",""
"","response","","html-keyboard-response","74","146126","0.0-1.0-95.0-0.0","0","0","77831","","331","","","75","10","","","1","10","training","adjacent","CB","3","2","Q.jpg","O.jpg","1","0","0","",""
"","feedback","","html-keyboard-response","75","147130","0.0-1.0-96.0-0.0","0","0","77831","","null","","","null","10","","","","","","","","","","","","","","","",""
"","time_out","","html-keyboard-response","76","149135","0.0-1.0-98.0-0.0","0","0","77831","","null","","","null","10","","","","","","","","","","","","","","","",""
"","ITI","","html-keyboard-response","77","150139","0.0-1.0-99.0","0","0","77831","","null","","","null","10","","","","","","","","","","","","","","","NaN",""
"","S1","","html-keyboard-response","78","150393","0.0-1.0-101.0","0","0","77831","","null","","","null","11","","","","","","","","","","","","","","","",""
"","ISI","","html-keyboard-response","79","152398","0.0-1.0-102.0","0","0","77831","","null","","","null","11","NaN","","","","","","","","","","","","","","",""
"","S2","","html-keyboard-response","80","152653","0.0-1.0-103.0","0","0","77831","","null","","","null","11","","NaN","","","","","","","","","","","","","",""
"","response","","html-keyboard-response","81","153031","0.0-1.0-104.0-0.0","0","0","77831","","376","","","75","11","","","1","11","training","adjacent","DE","4","5","M.jpg","N.jpg","1","1","1","",""
"","feedback","","html-keyboard-response","82","154036","0.0-1.0-105.0-0.0","0","0","77831","","null","","","null","11","","","","","","","","","","","","","","","",""
"","ITI","","html-keyboard-response","83","155039","0.0-1.0-108.0","0","0","77831","","null","","","null","11","","","","","","","","","","","","","","","NaN",""
"","S1","","html-keyboard-response","84","155292","0.0-1.0-110.0","0","0","77831","","null","","","null","12","","","","","","","","","","","","","","","",""
"","ISI","","html-keyboard-response","85","157294","0.0-1.0-111.0","0","0","77831","","null","","","null","12","NaN","","","","","","","","","","","","","","",""
"","S2","","html-keyboard-response","86","157548","0.0-1.0-112.0","0","0","77831","","null","","","null","12","","NaN","","","","","","","","","","","","","",""
"","response","","html-keyboard-response","87","158023","0.0-1.0-113.0-0.0","0","0","77831","","472","","","75","12","","","1","12","training","adjacent","EF","5","6","N.jpg","L.jpg","1","1","1","",""
"","feedback","","html-keyboard-response","88","159028","0.0-1.0-114.0-0.0","0","0","77831","","null","","","null","12","","","","","","","","","","","","","","","",""
"","ITI","","html-keyboard-response","89","160032","0.0-1.0-117.0","0","0","77831","","null","","","null","12","","","","","","","","","","","","","","","NaN",""
"","S1","","html-keyboard-response","90","160289","0.0-1.0-119.0","0","0","77831","","null","","","null","13","","","","","","","","","","","","","","","",""
"","ISI","","html-keyboard-response","91","162293","0.0-1.0-120.0","0","0","77831","","null","","","null","13","NaN","","","","","","","","","","","","","","",""
"","S2","","html-keyboard-response","92","162549","0.0-1.0-121.0","0","0","77831","","null","","","null","13","","NaN","","","","","","","","","","","","","",""
"","response","","html-keyboard-response","93","163175","0.0-1.0-122.0-0.0","0","0","77831","","622","","","68","13","","","1","13","training","adjacent","ED","5","4","N.jpg","M.jpg","0","0","1","",""
"","feedback","","html-keyboard-response","94","164185","0.0-1.0-123.0-0.0","0","0","77831","","null","","","null","13","","","","","","","","","","","","","","","",""
"","ITI","","html-keyboard-response","95","165189","0.0-1.0-126.0","0","0","77831","","null","","","null","13","","","","","","","","","","","","","","","NaN",""
"","S1","","html-keyboard-response","96","165443","0.0-1.0-128.0","0","0","77831","","null","","","null","14","","","","","","","","","","","","","","","",""
"","ISI","","html-keyboard-response","97","167448","0.0-1.0-129.0","0","0","77831","","null","","","null","14","NaN","","","","","","","","","","","","","","",""
"","S2","","html-keyboard-response","98","167705","0.0-1.0-130.0","0","0","77831","","null","","","null","14","","NaN","","","","","","","","","","","","","",""
"","response","","html-keyboard-response","99","168187","0.0-1.0-131.0-0.0","0","0","77831","","477","","","68","14","","","1","14","training","adjacent","CD","3","4","Q.jpg","M.jpg","0","1","0","",""
"","feedback","","html-keyboard-response","100","169194","0.0-1.0-132.0-0.0","0","0","77831","","null","","","null","14","","","","","","","","","","","","","","","",""
"","time_out","","html-keyboard-response","101","171198","0.0-1.0-134.0-0.0","0","0","77831","","null","","","null","14","","","","","","","","","","","","","","","",""
"","ITI","","html-keyboard-response","102","172204","0.0-1.0-135.0","0","0","77831","","null","","","null","14","","","","","","","","","","","","","","","NaN",""
"","S1","","html-keyboard-response","103","172459","0.0-1.0-137.0","0","0","77831","","null","","","null","15","","","","","","","","","","","","","","","",""
"","ISI","","html-keyboard-response","104","174463","0.0-1.0-138.0","0","0","77831","","null","","","null","15","NaN","","","","","","","","","","","","","","",""
"","S2","","html-keyboard-response","105","174716","0.0-1.0-139.0","0","0","77831","","null","","","null","15","","NaN","","","","","","","","","","","","","",""
"","response","","html-keyboard-response","106","175330","0.0-1.0-140.0-0.0","0","0","77831","","611","","","68","15","","","1","15","training","adjacent","DE","4","5","M.jpg","N.jpg","0","1","0","",""
"","feedback","","html-keyboard-response","107","176335","0.0-1.0-141.0-0.0","0","0","77831","","null","","","null","15","","","","","","","","","","","","","","","",""
"","time_out","","html-keyboard-response","108","178338","0.0-1.0-143.0-0.0","0","0","77831","","null","","","null","15","","","","","","","","","","","","","","","",""
"","ITI","","html-keyboard-response","109","179343","0.0-1.0-144.0","0","0","77831","","null","","","null","15","","","","","","","","","","","","","","","NaN",""
"","S1","","html-keyboard-response","110","179598","0.0-1.0-146.0","0","0","77831","","null","","","null","16","","","","","","","","","","","","","","","",""
"","ISI","","html-keyboard-response","111","181602","0.0-1.0-147.0","0","0","77831","","null","","","null","16","NaN","","","","","","","","","","","","","","",""
"","S2","","html-keyboard-response","112","181856","0.0-1.0-148.0","0","0","77831","","null","","","null","16","","NaN","","","","","","","","","","","","","",""
"","response","","html-keyboard-response","113","182233","0.0-1.0-149.0-0.0","0","0","77831","","373","","","75","16","","","1","16","training","adjacent","AB","1","2","R.jpg","O.jpg","1","1","1","",""
"","feedback","","html-keyboard-response","114","183238","0.0-1.0-150.0-0.0","0","0","77831","","null","","","null","16","","","","","","","","","","","","","","","",""
"","ITI","","html-keyboard-response","115","184243","0.0-1.0-153.0","0","0","77831","","null","","","null","16","","","","","","","","","","","","","","","NaN",""
"","S1","","html-keyboard-response","116","184499","0.0-1.0-155.0","0","0","77831","","null","","","null","17","","","","","","","","","","","","","","","",""
"","ISI","","html-keyboard-response","117","186504","0.0-1.0-156.0","0","0","77831","","null","","","null","17","NaN","","","","","","","","","","","","","","",""
"","S2","","html-keyboard-response","118","186759","0.0-1.0-157.0","0","0","77831","","null","","","null","17","","NaN","","","","","","","","","","","","","",""
"","response","","html-keyboard-response","119","187015","0.0-1.0-158.0-0.0","0","0","77831","","252","","","75","17","","","1","17","training","adjacent","DC","4","3","M.jpg","Q.jpg","1","0","0","",""
"","feedback","","html-keyboard-response","120","188018","0.0-1.0-159.0-0.0","0","0","77831","","null","","","null","17","","","","","","","","","","","","","","","",""
"","time_out","","html-keyboard-response","121","190021","0.0-1.0-161.0-0.0","0","0","77831","","null","","","null","17","","","","","","","","","","","","","","","",""
"","ITI","","html-keyboard-response","122","191026","0.0-1.0-162.0","0","0","77831","","null","","","null","17","","","","","","","","","","","","","","","NaN",""
"","S1","","html-keyboard-response","123","191281","0.0-1.0-164.0","0","0","77831","","null","","","null","18","","","","","","","","","","","","","","","",""
"","ISI","","html-keyboard-response","124","193285","0.0-1.0-165.0","0","0","77831","","null","","","null","18","NaN","","","","","","","","","","","","","","",""
"","S2","","html-keyboard-response","125","193539","0.0-1.0-166.0","0","0","77831","","null","","","null","18","","NaN","","","","","","","","","","","","","",""
"","response","","html-keyboard-response","126","194111","0.0-1.0-167.0-0.0","0","0","77831","","569","","","68","18","","","1","18","training","adjacent","GF","7","6","P.jpg","L.jpg","0","0","1","",""
"","feedback","","html-keyboard-response","127","195115","0.0-1.0-168.0-0.0","0","0","77831","","null","","","null","18","","","","","","","","","","","","","","","",""
"","ITI","","html-keyboard-response","128","196119","0.0-1.0-171.0","0","0","77831","","null","","","null","18","","","","","","","","","","","","","","","NaN",""
"","S1","","html-keyboard-response","129","196374","0.0-1.0-173.0","0","0","77831","","null","","","null","19","","","","","","","","","","","","","","","",""
"","ISI","","html-keyboard-response","130","198377","0.0-1.0-174.0","0","0","77831","","null","","","null","19","NaN","","","","","","","","","","","","","","",""
"","S2","","html-keyboard-response","131","198633","0.0-1.0-175.0","0","0","77831","","null","","","null","19","","NaN","","","","","","","","","","","","","",""
"","response","","html-keyboard-response","132","199017","0.0-1.0-176.0-0.0","0","0","77831","","379","","","75","19","","","1","19","training","adjacent","BC","2","3","O.jpg","Q.jpg","1","1","1","",""
"","feedback","","html-keyboard-response","133","200023","0.0-1.0-177.0-0.0","0","0","77831","","null","","","null","19","","","","","","","","","","","","","","","",""
"","ITI","","html-keyboard-response","134","201029","0.0-1.0-180.0","0","0","77831","","null","","","null","19","","","","","","","","","","","","","","","NaN",""
"","S1","","html-keyboard-response","135","201284","0.0-1.0-182.0","0","0","77831","","null","","","null","20","","","","","","","","","","","","","","","",""
"","ISI","","html-keyboard-response","136","203290","0.0-1.0-183.0","0","0","77831","","null","","","null","20","NaN","","","","","","","","","","","","","","",""
"","S2","","html-keyboard-response","137","203545","0.0-1.0-184.0","0","0","77831","","null","","","null","20","","NaN","","","","","","","","","","","","","",""
"","response","","html-keyboard-response","138","203953","0.0-1.0-185.0-0.0","0","0","77831","","404","","","68","20","","","1","20","training","adjacent","CB","3","2","Q.jpg","O.jpg","0","0","1","",""
"","feedback","","html-keyboard-response","139","204959","0.0-1.0-186.0-0.0","0","0","77831","","null","","","null","20","","","","","","","","","","","","","","","",""
"","ITI","","html-keyboard-response","140","205964","0.0-1.0-189.0","0","0","77831","","null","","","null","20","","","","","","","","","","","","","","","NaN",""
"","S1","","html-keyboard-response","141","206219","0.0-1.0-191.0","0","0","77831","","null","","","null","21","","","","","","","","","","","","","","","",""
"","ISI","","html-keyboard-response","142","208227","0.0-1.0-192.0","0","0","77831","","null","","","null","21","NaN","","","","","","","","","","","","","","",""
"","S2","","html-keyboard-response","143","208482","0.0-1.0-193.0","0","0","77831","","null","","","null","21","","NaN","","","","","","","","","","","","","",""
"","response","","html-keyboard-response","144","208824","0.0-1.0-194.0-0.0","0","0","77831","","336","","","68","21","","","1","21","training","adjacent","EF","5","6","N.jpg","L.jpg","0","1","0","",""
"","feedback","","html-keyboard-response","145","209830","0.0-1.0-195.0-0.0","0","0","77831","","null","","","null","21","","","","","","","","","","","","","","","",""
"","time_out","","html-keyboard-response","146","211836","0.0-1.0-197.0-0.0","0","0","77831","","null","","","null","21","","","","","","","","","","","","","","","",""
"","ITI","","html-keyboard-response","147","212841","0.0-1.0-198.0","0","0","77831","","null","","","null","21","","","","","","","","","","","","","","","NaN",""
"","S1","","html-keyboard-response","148","213095","0.0-1.0-200.0","0","0","77831","","null","","","null","22","","","","","","","","","","","","","","","",""
"","ISI","","html-keyboard-response","149","215099","0.0-1.0-201.0","0","0","77831","","null","","","null","22","NaN","","","","","","","","","","","","","","",""
"","S2","","html-keyboard-response","150","215355","0.0-1.0-202.0","0","0","77831","","null","","","null","22","","NaN","","","","","","","","","","","","","",""
"","response","","html-keyboard-response","151","215907","0.0-1.0-203.0-0.0","0","0","77831","","548","","","75","22","","","1","22","training","adjacent","BC","2","3","O.jpg","Q.jpg","1","1","1","",""
"","feedback","","html-keyboard-response","152","216912","0.0-1.0-204.0-0.0","0","0","77831","","null","","","null","22","","","","","","","","","","","","","","","",""
"","ITI","","html-keyboard-response","153","217920","0.0-1.0-207.0","0","0","77831","","null","","","null","22","","","","","","","","","","","","","","","NaN",""
"","S1","","html-keyboard-response","154","218174","0.0-1.0-209.0","0","0","77831","","null","","","null","23","","","","","","","","","","","","","","","",""
"","ISI","","html-keyboard-response","155","220179","0.0-1.0-210.0","0","0","77831","","null","","","null","23","NaN","","","","","","","","","","","","","","",""
"","S2","","html-keyboard-response","156","220432","0.0-1.0-211.0","0","0","77831","","null","","","null","23","","NaN","","","","","","","","","","","","","",""
"","response","","html-keyboard-response","157","220560","0.0-1.0-212.0-0.0","0","0","77831","","125","","","75","23","","","1","23","training","adjacent","FG","6","7","L.jpg","P.jpg","1","1","1","",""
"","feedback","","html-keyboard-response","158","221564","0.0-1.0-213.0-0.0","0","0","77831","","null","","","null","23","","","","","","","","","","","","","","","",""
"","ITI","","html-keyboard-response","159","222570","0.0-1.0-216.0","0","0","77831","","null","","","null","23","","","","","","","","","","","","","","","NaN",""
"","S1","","html-keyboard-response","160","222825","0.0-1.0-218.0","0","0","77831","","null","","","null","24","","","","","","","","","","","","","","","",""
"","ISI","","html-keyboard-response","161","224830","0.0-1.0-219.0","0","0","77831","","null","","","null","24","NaN","","","","","","","","","","","","","","",""
"","S2","","html-keyboard-response","162","225085","0.0-1.0-220.0","0","0","77831","","null","","","null","24","","NaN","","","","","","","","","","","","","",""
"","response","","html-keyboard-response","163","226151","0.0-1.0-221.0-0.0","0","0","77831","","1063","","","68","24","","","1","24","training","adjacent","GF","7","6","P.jpg","L.jpg","0","0","1","",""
"","feedback","","html-keyboard-response","164","227155","0.0-1.0-222.0-0.0","0","0","77831","","null","","","null","24","","","","","","","","","","","","","","","",""
"","ITI","","html-keyboard-response","165","228160","0.0-1.0-225.0","0","0","77831","","null","","","null","24","","","","","","","","","","","","","","","NaN",""
"","S1","","html-keyboard-response","166","228415","0.0-1.0-227.0","0","0","77831","","null","","","null","25","","","","","","","","","","","","","","","",""
"","ISI","","html-keyboard-response","167","230421","0.0-1.0-228.0","0","0","77831","","null","","","null","25","NaN","","","","","","","","","","","","","","",""
"","S2","","html-keyboard-response","168","230676","0.0-1.0-229.0","0","0","77831","","null","","","null","25","","NaN","","","","","","","","","","","","","",""
"","response","","html-keyboard-response","169","231080","0.0-1.0-230.0-0.0","0","0","77831","","400","","","68","25","","","1","25","training","adjacent","BA","2","1","O.jpg","R.jpg","0","0","1","",""
"","feedback","","html-keyboard-response","170","232086","0.0-1.0-231.0-0.0","0","0","77831","","null","","","null","25","","","","","","","","","","","","","","","",""
"","ITI","","html-keyboard-response","171","233091","0.0-1.0-234.0","0","0","77831","","null","","","null","25","","","","","","","","","","","","","","","NaN",""
"","S1","","html-keyboard-response","172","233346","0.0-1.0-236.0","0","0","77831","","null","","","null","26","","","","","","","","","","","","","","","",""
"","ISI","","html-keyboard-response","173","235350","0.0-1.0-237.0","0","0","77831","","null","","","null","26","NaN","","","","","","","","","","","","","","",""
"","S2","","html-keyboard-response","174","235606","0.0-1.0-238.0","0","0","77831","","null","","","null","26","","NaN","","","","","","","","","","","","","",""
"","response","","html-keyboard-response","175","236585","0.0-1.0-239.0-0.0","0","0","77831","","973","","","75","26","","","1","26","training","adjacent","ED","5","4","N.jpg","M.jpg","1","0","0","",""
"","feedback","","html-keyboard-response","176","237592","0.0-1.0-240.0-0.0","0","0","77831","","null","","","null","26","","","","","","","","","","","","","","","",""
"","time_out","","html-keyboard-response","177","239597","0.0-1.0-242.0-0.0","0","0","77831","","null","","","null","26","","","","","","","","","","","","","","","",""
"","ITI","","html-keyboard-response","178","240603","0.0-1.0-243.0","0","0","77831","","null","","","null","26","","","","","","","","","","","","","","","NaN",""
"","S1","","html-keyboard-response","179","240857","0.0-1.0-245.0","0","0","77831","","null","","","null","27","","","","","","","","","","","","","","","",""
"","ISI","","html-keyboard-response","180","242861","0.0-1.0-246.0","0","0","77831","","null","","","null","27","NaN","","","","","","","","","","","","","","",""
"","S2","","html-keyboard-response","181","243116","0.0-1.0-247.0","0","0","77831","","null","","","null","27","","NaN","","","","","","","","","","","","","",""
"","response","","html-keyboard-response","182","243774","0.0-1.0-248.0-0.0","0","0","77831","","654","","","68","27","","","1","27","training","adjacent","FE","6","5","L.jpg","N.jpg","0","0","1","",""
"","feedback","","html-keyboard-response","183","244778","0.0-1.0-249.0-0.0","0","0","77831","","null","","","null","27","","","","","","","","","","","","","","","",""
"","ITI","","html-keyboard-response","184","245784","0.0-1.0-252.0","0","0","77831","","null","","","null","27","","","","","","","","","","","","","","","NaN",""
"","S1","","html-keyboard-response","185","246038","0.0-1.0-254.0","0","0","77831","","null","","","null","28","","","","","","","","","","","","","","","",""
"","ISI","","html-keyboard-response","186","248042","0.0-1.0-255.0","0","0","77831","","null","","","null","28","NaN","","","","","","","","","","","","","","",""
"","S2","","html-keyboard-response","187","248296","0.0-1.0-256.0","0","0","77831","","null","","","null","28","","NaN","","","","","","","","","","","","","",""
"","response","","html-keyboard-response","188","248603","0.0-1.0-257.0-0.0","0","0","77831","","302","","","75","28","","","1","28","training","adjacent","FG","6","7","L.jpg","P.jpg","1","1","1","",""
"","feedback","","html-keyboard-response","189","249608","0.0-1.0-258.0-0.0","0","0","77831","","null","","","null","28","","","","","","","","","","","","","","","",""
"","ITI","","html-keyboard-response","190","250614","0.0-1.0-261.0","0","0","77831","","null","","","null","28","","","","","","","","","","","","","","","NaN",""
"","S1","","html-keyboard-response","191","250868","0.0-1.0-263.0","0","0","77831","","null","","","null","29","","","","","","","","","","","","","","","",""
"","ISI","","html-keyboard-response","192","252871","0.0-1.0-264.0","0","0","77831","","null","","","null","29","NaN","","","","","","","","","","","","","","",""
"","S2","","html-keyboard-response","193","253126","0.0-1.0-265.0","0","0","77831","","null","","","null","29","","NaN","","","","","","","","","","","","","",""
"","response","","html-keyboard-response","194","253385","0.0-1.0-266.0-0.0","0","0","77831","","255","","","68","29","","","1","29","training","adjacent","FE","6","5","L.jpg","N.jpg","0","0","1","",""
"","feedback","","html-keyboard-response","195","254389","0.0-1.0-267.0-0.0","0","0","77831","","null","","","null","29","","","","","","","","","","","","","","","",""
"","ITI","","html-keyboard-response","196","255394","0.0-1.0-270.0","0","0","77831","","null","","","null","29","","","","","","","","","","","","","","","NaN",""
"","S1","","html-keyboard-response","197","255649","0.0-1.0-272.0","0","0","77831","","null","","","null","30","","","","","","","","","","","","","","","",""
"","ISI","","html-keyboard-response","198","257653","0.0-1.0-273.0","0","0","77831","","null","","","null","30","NaN","","","","","","","","","","","","","","",""
"","S2","","html-keyboard-response","199","257906","0.0-1.0-274.0","0","0","77831","","null","","","null","30","","NaN","","","","","","","","","","","","","",""
"","response","","html-keyboard-response","200","258274","0.0-1.0-275.0-0.0","0","0","77831","","364","","","75","30","","","1","30","training","adjacent","AB","1","2","R.jpg","O.jpg","1","1","1","",""
"","feedback","","html-keyboard-response","201","259279","0.0-1.0-276.0-0.0","0","0","77831","","null","","","null","30","","","","","","","","","","","","","","","",""
"","ITI","","html-keyboard-response","202","260283","0.0-1.0-279.0","0","0","77831","","null","","","null","30","","","","","","","","","","","","","","","NaN",""
"","S1","","html-keyboard-response","203","260537","0.0-1.0-281.0","0","0","77831","","null","","","null","31","","","","","","","","","","","","","","","",""
"","ISI","","html-keyboard-response","204","262541","0.0-1.0-282.0","0","0","77831","","null","","","null","31","NaN","","","","","","","","","","","","","","",""
"","S2","","html-keyboard-response","205","262796","0.0-1.0-283.0","0","0","77831","","null","","","null","31","","NaN","","","","","","","","","","","","","",""
"","response","","html-keyboard-response","206","263017","0.0-1.0-284.0-0.0","0","0","77831","","216","","","75","31","","","1","31","training","adjacent","FG","6","7","L.jpg","P.jpg","1","1","1","",""
"","feedback","","html-keyboard-response","207","264023","0.0-1.0-285.0-0.0","0","0","77831","","null","","","null","31","","","","","","","","","","","","","","","",""
"","ITI","","html-keyboard-response","208","265028","0.0-1.0-288.0","0","0","77831","","null","","","null","31","","","","","","","","","","","","","","","NaN",""
"","S1","","html-keyboard-response","209","265284","0.0-1.0-290.0","0","0","77831","","null","","","null","32","","","","","","","","","","","","","","","",""
"","ISI","","html-keyboard-response","210","267287","0.0-1.0-291.0","0","0","77831","","null","","","null","32","NaN","","","","","","","","","","","","","","",""
"","S2","","html-keyboard-response","211","267542","0.0-1.0-292.0","0","0","77831","","null","","","null","32","","NaN","","","","","","","","","","","","","",""
"","response","","html-keyboard-response","212","267880","0.0-1.0-293.0-0.0","0","0","77831","","333","","","75","32","","","1","32","training","adjacent","AB","1","2","R.jpg","O.jpg","1","1","1","",""
"","feedback","","html-keyboard-response","213","268885","0.0-1.0-294.0-0.0","0","0","77831","","null","","","null","32","","","","","","","","","","","","","","","",""
"","ITI","","html-keyboard-response","214","269890","0.0-1.0-297.0","0","0","77831","","null","","","null","32","","","","","","","","","","","","","","","NaN",""
"","S1","","html-keyboard-response","215","270146","0.0-1.0-299.0","0","0","77831","","null","","","null","33","","","","","","","","","","","","","","","",""
"","ISI","","html-keyboard-response","216","272150","0.0-1.0-300.0","0","0","77831","","null","","","null","33","NaN","","","","","","","","","","","","","","",""
"","S2","","html-keyboard-response","217","272405","0.0-1.0-301.0","0","0","77831","","null","","","null","33","","NaN","","","","","","","","","","","","","",""
"","response","","html-keyboard-response","218","272876","0.0-1.0-302.0-0.0","0","0","77831","","466","","","68","33","","","1","33","training","adjacent","BA","2","1","O.jpg","R.jpg","0","0","1","",""
"","feedback","","html-keyboard-response","219","273882","0.0-1.0-303.0-0.0","0","0","77831","","null","","","null","33","","","","","","","","","","","","","","","",""
"","ITI","","html-keyboard-response","220","274886","0.0-1.0-306.0","0","0","77831","","null","","","null","33","","","","","","","","","","","","","","","NaN",""
"","S1","","html-keyboard-response","221","275142","0.0-1.0-308.0","0","0","77831","","null","","","null","34","","","","","","","","","","","","","","","",""
"","ISI","","html-keyboard-response","222","277147","0.0-1.0-309.0","0","0","77831","","null","","","null","34","NaN","","","","","","","","","","","","","","",""
"","S2","","html-keyboard-response","223","277402","0.0-1.0-310.0","0","0","77831","","null","","","null","34","","NaN","","","","","","","","","","","","","",""
"","response","","html-keyboard-response","224","277712","0.0-1.0-311.0-0.0","0","0","77831","","305","","","68","34","","","1","34","training","adjacent","CD","3","4","Q.jpg","M.jpg","0","1","0","",""
"","feedback","","html-keyboard-response","225","278716","0.0-1.0-312.0-0.0","0","0","77831","","null","","","null","34","","","","","","","","","","","","","","","",""
"","time_out","","html-keyboard-response","226","280722","0.0-1.0-314.0-0.0","0","0","77831","","null","","","null","34","","","","","","","","","","","","","","","",""
"","ITI","","html-keyboard-response","227","281727","0.0-1.0-315.0","0","0","77831","","null","","","null","34","","","","","","","","","","","","","","","NaN",""
"","S1","","html-keyboard-response","228","281982","0.0-1.0-317.0","0","0","77831","","null","","","null","35","","","","","","","","","","","","","","","",""
"","ISI","","html-keyboard-response","229","283987","0.0-1.0-318.0","0","0","77831","","null","","","null","35","NaN","","","","","","","","","","","","","","",""
"","S2","","html-keyboard-response","230","284241","0.0-1.0-319.0","0","0","77831","","null","","","null","35","","NaN","","","","","","","","","","","","","",""
"","response","","html-keyboard-response","231","284597","0.0-1.0-320.0-0.0","0","0","77831","","352","","","75","35","","","1","35","training","adjacent","BC","2","3","O.jpg","Q.jpg","1","1","1","",""
"","feedback","","html-keyboard-response","232","285602","0.0-1.0-321.0-0.0","0","0","77831","","null","","","null","35","","","","","","","","","","","","","","","",""
"","ITI","","html-keyboard-response","233","286608","0.0-1.0-324.0","0","0","77831","","null","","","null","35","","","","","","","","","","","","","","","NaN",""
"","S1","","html-keyboard-response","234","286863","0.0-1.0-326.0","0","0","77831","","null","","","null","36","","","","","","","","","","","","","","","",""
"","ISI","","html-keyboard-response","235","288868","0.0-1.0-327.0","0","0","77831","","null","","","null","36","NaN","","","","","","","","","","","","","","",""
"","S2","","html-keyboard-response","236","289122","0.0-1.0-328.0","0","0","77831","","null","","","null","36","","NaN","","","","","","","","","","","","","",""
"","response","","html-keyboard-response","237","289682","0.0-1.0-329.0-0.0","0","0","77831","","555","","","68","36","","","1","36","training","adjacent","DE","4","5","M.jpg","N.jpg","0","1","0","",""
"","feedback","","html-keyboard-response","238","290687","0.0-1.0-330.0-0.0","0","0","77831","","null","","","null","36","","","","","","","","","","","","","","","",""
"","time_out","","html-keyboard-response","239","292691","0.0-1.0-332.0-0.0","0","0","77831","","null","","","null","36","","","","","","","","","","","","","","","",""
"","ITI","","html-keyboard-response","240","293696","0.0-1.0-333.0","0","0","77831","","null","","","null","36","","","","","","","","","","","","","","","NaN",""
"","S1","","html-keyboard-response","241","293951","0.0-1.0-335.0","0","0","77831","","null","","","null","37","","","","","","","","","","","","","","","",""
"","ISI","","html-keyboard-response","242","295955","0.0-1.0-336.0","0","0","77831","","null","","","null","37","NaN","","","","","","","","","","","","","","",""
"","S2","","html-keyboard-response","243","296211","0.0-1.0-337.0","0","0","77831","","null","","","null","37","","NaN","","","","","","","","","","","","","",""
"","response","","html-keyboard-response","244","296826","0.0-1.0-338.0-0.0","0","0","77831","","611","","","75","37","","","1","37","training","adjacent","CD","3","4","Q.jpg","M.jpg","1","1","1","",""
"","feedback","","html-keyboard-response","245","297832","0.0-1.0-339.0-0.0","0","0","77831","","null","","","null","37","","","","","","","","","","","","","","","",""
"","ITI","","html-keyboard-response","246","298837","0.0-1.0-342.0","0","0","77831","","null","","","null","37","","","","","","","","","","","","","","","NaN",""
"","S1","","html-keyboard-response","247","299093","0.0-1.0-344.0","0","0","77831","","null","","","null","38","","","","","","","","","","","","","","","",""
"","ISI","","html-keyboard-response","248","301097","0.0-1.0-345.0","0","0","77831","","null","","","null","38","NaN","","","","","","","","","","","","","","",""
"","S2","","html-keyboard-response","249","301351","0.0-1.0-346.0","0","0","77831","","null","","","null","38","","NaN","","","","","","","","","","","","","",""
"","response","","html-keyboard-response","250","301519","0.0-1.0-347.0-0.0","0","0","77831","","166","","","75","38","","","1","38","training","adjacent","FG","6","7","L.jpg","P.jpg","1","1","1","",""
"","feedback","","html-keyboard-response","251","302525","0.0-1.0-348.0-0.0","0","0","77831","","null","","","null","38","","","","","","","","","","","","","","","",""
"","ITI","","html-keyboard-response","252","303529","0.0-1.0-351.0","0","0","77831","","null","","","null","38","","","","","","","","","","","","","","","NaN",""
"","S1","","html-keyboard-response","253","303784","0.0-1.0-353.0","0","0","77831","","null","","","null","39","","","","","","","","","","","","","","","",""
"","ISI","","html-keyboard-response","254","305789","0.0-1.0-354.0","0","0","77831","","null","","","null","39","NaN","","","","","","","","","","","","","","",""
"","S2","","html-keyboard-response","255","306045","0.0-1.0-355.0","0","0","77831","","null","","","null","39","","NaN","","","","","","","","","","","","","",""
"","response","","html-keyboard-response","256","306484","0.0-1.0-356.0-0.0","0","0","77831","","436","","","75","39","","","1","39","training","adjacent","EF","5","6","N.jpg","L.jpg","1","1","1","",""
"","feedback","","html-keyboard-response","257","307489","0.0-1.0-357.0-0.0","0","0","77831","","null","","","null","39","","","","","","","","","","","","","","","",""
"","ITI","","html-keyboard-response","258","308494","0.0-1.0-360.0","0","0","77831","","null","","","null","39","","","","","","","","","","","","","","","NaN",""
"","S1","","html-keyboard-response","259","308749","0.0-1.0-362.0","0","0","77831","","null","","","null","40","","","","","","","","","","","","","","","",""
"","ISI","","html-keyboard-response","260","310753","0.0-1.0-363.0","0","0","77831","","null","","","null","40","NaN","","","","","","","","","","","","","","",""
"","S2","","html-keyboard-response","261","311007","0.0-1.0-364.0","0","0","77831","","null","","","null","40","","NaN","","","","","","","","","","","","","",""
"","response","","html-keyboard-response","262","311445","0.0-1.0-365.0-0.0","0","0","77831","","434","","","68","40","","","1","40","training","adjacent","CB","3","2","Q.jpg","O.jpg","0","0","1","",""
"","feedback","","html-keyboard-response","263","312450","0.0-1.0-366.0-0.0","0","0","77831","","null","","","null","40","","","","","","","","","","","","","","","",""
"","ITI","","html-keyboard-response","264","313456","0.0-1.0-369.0","0","0","77831","","null","","","null","40","","","","","","","","","","","","","","","NaN",""
"","S1","","html-keyboard-response","265","313711","0.0-1.0-371.0","0","0","77831","","null","","","null","41","","","","","","","","","","","","","","","",""
"","ISI","","html-keyboard-response","266","315714","0.0-1.0-372.0","0","0","77831","","null","","","null","41","NaN","","","","","","","","","","","","","","",""
"","S2","","html-keyboard-response","267","315969","0.0-1.0-373.0","0","0","77831","","null","","","null","41","","NaN","","","","","","","","","","","","","",""
"","response","","html-keyboard-response","268","316229","0.0-1.0-374.0-0.0","0","0","77831","","256","","","75","41","","","1","41","training","adjacent","AB","1","2","R.jpg","O.jpg","1","1","1","",""
"","feedback","","html-keyboard-response","269","317233","0.0-1.0-375.0-0.0","0","0","77831","","null","","","null","41","","","","","","","","","","","","","","","",""
"","ITI","","html-keyboard-response","270","318238","0.0-1.0-378.0","0","0","77831","","null","","","null","41","","","","","","","","","","","","","","","NaN",""
"","S1","","html-keyboard-response","271","318493","0.0-1.0-380.0","0","0","77831","","null","","","null","42","","","","","","","","","","","","","","","",""
"","ISI","","html-keyboard-response","272","320497","0.0-1.0-381.0","0","0","77831","","null","","","null","42","NaN","","","","","","","","","","","","","","",""
"","S2","","html-keyboard-response","273","320753","0.0-1.0-382.0","0","0","77831","","null","","","null","42","","NaN","","","","","","","","","","","","","",""
"","response","","html-keyboard-response","274","321253","0.0-1.0-383.0-0.0","0","0","77831","","496","","","68","42","","","1","42","training","adjacent","BA","2","1","O.jpg","R.jpg","0","0","1","",""
"","feedback","","html-keyboard-response","275","322258","0.0-1.0-384.0-0.0","0","0","77831","","null","","","null","42","","","","","","","","","","","","","","","",""
"","ITI","","html-keyboard-response","276","323262","0.0-1.0-387.0","0","0","77831","","null","","","null","42","","","","","","","","","","","","","","","NaN",""
"","S1","","html-keyboard-response","277","323525","0.0-1.0-389.0","0","0","77831","","null","","","null","43","","","","","","","","","","","","","","","",""
"","ISI","","html-keyboard-response","278","325529","0.0-1.0-390.0","0","0","77831","","null","","","null","43","NaN","","","","","","","","","","","","","","",""
"","S2","","html-keyboard-response","279","325782","0.0-1.0-391.0","0","0","77831","","null","","","null","43","","NaN","","","","","","","","","","","","","",""
"","response","","html-keyboard-response","280","326042","0.0-1.0-392.0-0.0","0","0","77831","","257","","","75","43","","","1","43","training","adjacent","EF","5","6","N.jpg","L.jpg","1","1","1","",""
"","feedback","","html-keyboard-response","281","327048","0.0-1.0-393.0-0.0","0","0","77831","","null","","","null","43","","","","","","","","","","","","","","","",""
"","ITI","","html-keyboard-response","282","328053","0.0-1.0-396.0","0","0","77831","","null","","","null","43","","","","","","","","","","","","","","","NaN",""
"","S1","","html-keyboard-response","283","328306","0.0-1.0-398.0","0","0","77831","","null","","","null","44","","","","","","","","","","","","","","","",""
"","ISI","","html-keyboard-response","284","330311","0.0-1.0-399.0","0","0","77831","","null","","","null","44","NaN","","","","","","","","","","","","","","",""
"","S2","","html-keyboard-response","285","330566","0.0-1.0-400.0","0","0","77831","","null","","","null","44","","NaN","","","","","","","","","","","","","",""
"","response","","html-keyboard-response","286","330892","0.0-1.0-401.0-0.0","0","0","77831","","322","","","68","44","","","1","44","training","adjacent","FE","6","5","L.jpg","N.jpg","0","0","1","",""
"","feedback","","html-keyboard-response","287","331896","0.0-1.0-402.0-0.0","0","0","77831","","null","","","null","44","","","","","","","","","","","","","","","",""
"","ITI","","html-keyboard-response","288","332901","0.0-1.0-405.0","0","0","77831","","null","","","null","44","","","","","","","","","","","","","","","NaN",""
"","S1","","html-keyboard-response","289","333156","0.0-1.0-407.0","0","0","77831","","null","","","null","45","","","","","","","","","","","","","","","",""
"","ISI","","html-keyboard-response","290","335160","0.0-1.0-408.0","0","0","77831","","null","","","null","45","NaN","","","","","","","","","","","","","","",""
"","S2","","html-keyboard-response","291","335415","0.0-1.0-409.0","0","0","77831","","null","","","null","45","","NaN","","","","","","","","","","","","","",""
"","response","","html-keyboard-response","292","335673","0.0-1.0-410.0-0.0","0","0","77831","","253","","","75","45","","","1","45","training","adjacent","CD","3","4","Q.jpg","M.jpg","1","1","1","",""
"","feedback","","html-keyboard-response","293","336676","0.0-1.0-411.0-0.0","0","0","77831","","null","","","null","45","","","","","","","","","","","","","","","",""
"","ITI","","html-keyboard-response","294","337678","0.0-1.0-414.0","0","0","77831","","null","","","null","45","","","","","","","","","","","","","","","NaN",""
"","S1","","html-keyboard-response","295","337932","0.0-1.0-416.0","0","0","77831","","null","","","null","46","","","","","","","","","","","","","","","",""
"","ISI","","html-keyboard-response","296","339937","0.0-1.0-417.0","0","0","77831","","null","","","null","46","NaN","","","","","","","","","","","","","","",""
"","S2","","html-keyboard-response","297","340192","0.0-1.0-418.0","0","0","77831","","null","","","null","46","","NaN","","","","","","","","","","","","","",""
"","response","","html-keyboard-response","298","340539","0.0-1.0-419.0-0.0","0","0","77831","","343","","","75","46","","","1","46","training","adjacent","ED","5","4","N.jpg","M.jpg","1","0","0","",""
"","feedback","","html-keyboard-response","299","341543","0.0-1.0-420.0-0.0","0","0","77831","","null","","","null","46","","","","","","","","","","","","","","","",""
"","time_out","","html-keyboard-response","300","343546","0.0-1.0-422.0-0.0","0","0","77831","","null","","","null","46","","","","","","","","","","","","","","","",""
"","ITI","","html-keyboard-response","301","344549","0.0-1.0-423.0","0","0","77831","","null","","","null","46","","","","","","","","","","","","","","","NaN",""
"","S1","","html-keyboard-response","302","344804","0.0-1.0-425.0","0","0","77831","","null","","","null","47","","","","","","","","","","","","","","","",""
"","ISI","","html-keyboard-response","303","346807","0.0-1.0-426.0","0","0","77831","","null","","","null","47","NaN","","","","","","","","","","","","","","",""
"","S2","","html-keyboard-response","304","347063","0.0-1.0-427.0","0","0","77831","","null","","","null","47","","NaN","","","","","","","","","","","","","",""
"","response","","html-keyboard-response","305","347503","0.0-1.0-428.0-0.0","0","0","77831","","436","","","75","47","","","1","47","training","adjacent","DE","4","5","M.jpg","N.jpg","1","1","1","",""
"","feedback","","html-keyboard-response","306","348508","0.0-1.0-429.0-0.0","0","0","77831","","null","","","null","47","","","","","","","","","","","","","","","",""
"","ITI","","html-keyboard-response","307","349514","0.0-1.0-432.0","0","0","77831","","null","","","null","47","","","","","","","","","","","","","","","NaN",""
"","block_over","","html-keyboard-response","308","354748","0.0-1.0-433.0-0.0","0","0","77831","","5230","","","32","47","","","","","","","","","","","","","","","",""
"","S1","","html-keyboard-response","309","355001","0.0-1.0-434.0","0","0","77831","","null","","","null","48","","","","","","","","","","","","","","","",""
"","ISI","","html-keyboard-response","310","357005","0.0-1.0-435.0","0","0","77831","","null","","","null","48","NaN","","","","","","","","","","","","","","",""
"","S2","","html-keyboard-response","311","357260","0.0-1.0-436.0","0","0","77831","","null","","","null","48","","NaN","","","","","","","","","","","","","",""
"","response","","html-keyboard-response","312","357564","0.0-1.0-437.0-0.0","0","0","77831","","301","","","75","48","","","2","48","training","adjacent","FG","6","7","L.jpg","P.jpg","1","1","1","",""
"","feedback","","html-keyboard-response","313","358569","0.0-1.0-438.0-0.0","0","0","77831","","null","","","null","48","","","","","","","","","","","","","","","",""
"","ITI","","html-keyboard-response","314","359574","0.0-1.0-441.0","0","0","77831","","null","","","null","48","","","","","","","","","","","","","","","NaN",""
"","S1","","html-keyboard-response","315","359829","0.0-1.0-443.0","0","0","77831","","null","","","null","49","","","","","","","","","","","","","","","",""
"","ISI","","html-keyboard-response","316","361831","0.0-1.0-444.0","0","0","77831","","null","","","null","49","NaN","","","","","","","","","","","","","","",""
"","S2","","html-keyboard-response","317","362086","0.0-1.0-445.0","0","0","77831","","null","","","null","49","","NaN","","","","","","","","","","","","","",""
"","response","","html-keyboard-response","318","362664","0.0-1.0-446.0-0.0","0","0","77831","","575","","","68","49","","","2","49","training","adjacent","CB","3","2","Q.jpg","O.jpg","0","0","1","",""
"","feedback","","html-keyboard-response","319","363668","0.0-1.0-447.0-0.0","0","0","77831","","null","","","null","49","","","","","","","","","","","","","","","",""
"","ITI","","html-keyboard-response","320","364672","0.0-1.0-450.0","0","0","77831","","null","","","null","49","","","","","","","","","","","","","","","NaN",""
"","S1","","html-keyboard-response","321","364927","0.0-1.0-452.0","0","0","77831","","null","","","null","50","","","","","","","","","","","","","","","",""
"","ISI","","html-keyboard-response","322","366931","0.0-1.0-453.0","0","0","77831","","null","","","null","50","NaN","","","","","","","","","","","","","","",""
"","S2","","html-keyboard-response","323","367186","0.0-1.0-454.0","0","0","77831","","null","","","null","50","","NaN","","","","","","","","","","","","","",""
"","response","","html-keyboard-response","324","367651","0.0-1.0-455.0-0.0","0","0","77831","","462","","","68","50","","","2","50","training","adjacent","EF","5","6","N.jpg","L.jpg","0","1","0","",""
"","feedback","","html-keyboard-response","325","368656","0.0-1.0-456.0-0.0","0","0","77831","","null","","","null","50","","","","","","","","","","","","","","","",""
"","time_out","","html-keyboard-response","326","370660","0.0-1.0-458.0-0.0","0","0","77831","","null","","","null","50","","","","","","","","","","","","","","","",""
"","ITI","","html-keyboard-response","327","371664","0.0-1.0-459.0","0","0","77831","","null","","","null","50","","","","","","","","","","","","","","","NaN",""
"","S1","","html-keyboard-response","328","371918","0.0-1.0-461.0","0","0","77831","","null","","","null","51","","","","","","","","","","","","","","","",""
"","ISI","","html-keyboard-response","329","373920","0.0-1.0-462.0","0","0","77831","","null","","","null","51","NaN","","","","","","","","","","","","","","",""
"","S2","","html-keyboard-response","330","374174","0.0-1.0-463.0","0","0","77831","","null","","","null","51","","NaN","","","","","","","","","","","","","",""
"","response","","html-keyboard-response","331","374276","0.0-1.0-464.0-0.0","0","0","77831","","97","","","68","51","","","2","51","training","adjacent","GF","7","6","P.jpg","L.jpg","0","0","1","",""
"","feedback","","html-keyboard-response","332","375280","0.0-1.0-465.0-0.0","0","0","77831","","null","","","null","51","","","","","","","","","","","","","","","",""
"","ITI","","html-keyboard-response","333","376285","0.0-1.0-468.0","0","0","77831","","null","","","null","51","","","","","","","","","","","","","","","NaN",""
"","S1","","html-keyboard-response","334","376541","0.0-1.0-470.0","0","0","77831","","null","","","null","52","","","","","","","","","","","","","","","",""
"","ISI","","html-keyboard-response","335","378544","0.0-1.0-471.0","0","0","77831","","null","","","null","52","NaN","","","","","","","","","","","","","","",""
"","S2","","html-keyboard-response","336","378800","0.0-1.0-472.0","0","0","77831","","null","","","null","52","","NaN","","","","","","","","","","","","","",""
"","response","","html-keyboard-response","337","379738","0.0-1.0-473.0-0.0","0","0","77831","","934","","","75","52","","","2","52","training","adjacent","ED","5","4","N.jpg","M.jpg","1","0","0","",""
"","feedback","","html-keyboard-response","338","380744","0.0-1.0-474.0-0.0","0","0","77831","","null","","","null","52","","","","","","","","","","","","","","","",""
"","time_out","","html-keyboard-response","339","382749","0.0-1.0-476.0-0.0","0","0","77831","","null","","","null","52","","","","","","","","","","","","","","","",""
"","ITI","","html-keyboard-response","340","383752","0.0-1.0-477.0","0","0","77831","","null","","","null","52","","","","","","","","","","","","","","","NaN",""
"","S1","","html-keyboard-response","341","384007","0.0-1.0-479.0","0","0","77831","","null","","","null","53","","","","","","","","","","","","","","","",""
"","ISI","","html-keyboard-response","342","386011","0.0-1.0-480.0","0","0","77831","","null","","","null","53","NaN","","","","","","","","","","","","","","",""
"","S2","","html-keyboard-response","343","386266","0.0-1.0-481.0","0","0","77831","","null","","","null","53","","NaN","","","","","","","","","","","","","",""
"","response","","html-keyboard-response","344","386969","0.0-1.0-482.0-0.0","0","0","77831","","699","","","68","53","","","2","53","training","adjacent","DE","4","5","M.jpg","N.jpg","0","1","0","",""
"","feedback","","html-keyboard-response","345","387974","0.0-1.0-483.0-0.0","0","0","77831","","null","","","null","53","","","","","","","","","","","","","","","",""
"","time_out","","html-keyboard-response","346","389979","0.0-1.0-485.0-0.0","0","0","77831","","null","","","null","53","","","","","","","","","","","","","","","",""
"","ITI","","html-keyboard-response","347","390985","0.0-1.0-486.0","0","0","77831","","null","","","null","53","","","","","","","","","","","","","","","NaN",""
"","S1","","html-keyboard-response","348","391239","0.0-1.0-488.0","0","0","77831","","null","","","null","54","","","","","","","","","","","","","","","",""
"","ISI","","html-keyboard-response","349","393244","0.0-1.0-489.0","0","0","77831","","null","","","null","54","NaN","","","","","","","","","","","","","","",""
"","S2","","html-keyboard-response","350","393500","0.0-1.0-490.0","0","0","77831","","null","","","null","54","","NaN","","","","","","","","","","","","","",""
"","response","","html-keyboard-response","351","394101","0.0-1.0-491.0-0.0","0","0","77831","","597","","","68","54","","","2","54","training","adjacent","BA","2","1","O.jpg","R.jpg","0","0","1","",""
"","feedback","","html-keyboard-response","352","395106","0.0-1.0-492.0-0.0","0","0","77831","","null","","","null","54","","","","","","","","","","","","","","","",""
"","ITI","","html-keyboard-response","353","396111","0.0-1.0-495.0","0","0","77831","","null","","","null","54","","","","","","","","","","","","","","","NaN",""
"","S1","","html-keyboard-response","354","396368","0.0-1.0-497.0","0","0","77831","","null","","","null","55","","","","","","","","","","","","","","","",""
"","ISI","","html-keyboard-response","355","398373","0.0-1.0-498.0","0","0","77831","","null","","","null","55","NaN","","","","","","","","","","","","","","",""
"","S2","","html-keyboard-response","356","398628","0.0-1.0-499.0","0","0","77831","","null","","","null","55","","NaN","","","","","","","","","","","","","",""
"","response","","html-keyboard-response","357","398952","0.0-1.0-500.0-0.0","0","0","77831","","320","","","75","55","","","2","55","training","adjacent","DC","4","3","M.jpg","Q.jpg","1","0","0","",""
"","feedback","","html-keyboard-response","358","399958","0.0-1.0-501.0-0.0","0","0","77831","","null","","","null","55","","","","","","","","","","","","","","","",""
"","time_out","","html-keyboard-response","359","401963","0.0-1.0-503.0-0.0","0","0","77831","","null","","","null","55","","","","","","","","","","","","","","","",""
"","ITI","","html-keyboard-response","360","402967","0.0-1.0-504.0","0","0","77831","","null","","","null","55","","","","","","","","","","","","","","","NaN",""
"","S1","","html-keyboard-response","361","403221","0.0-1.0-506.0","0","0","77831","","null","","","null","56","","","","","","","","","","","","","","","",""
"","ISI","","html-keyboard-response","362","405225","0.0-1.0-507.0","0","0","77831","","null","","","null","56","NaN","","","","","","","","","","","","","","",""
"","S2","","html-keyboard-response","363","405480","0.0-1.0-508.0","0","0","77831","","null","","","null","56","","NaN","","","","","","","","","","","","","",""
"","response","","html-keyboard-response","364","406244","0.0-1.0-509.0-0.0","0","0","77831","","761","","","75","56","","","2","56","training","adjacent","BC","2","3","O.jpg","Q.jpg","1","1","1","",""
"","feedback","","html-keyboard-response","365","407250","0.0-1.0-510.0-0.0","0","0","77831","","null","","","null","56","","","","","","","","","","","","","","","",""
"","ITI","","html-keyboard-response","366","408254","0.0-1.0-513.0","0","0","77831","","null","","","null","56","","","","","","","","","","","","","","","NaN",""
"","S1","","html-keyboard-response","367","408508","0.0-1.0-515.0","0","0","77831","","null","","","null","57","","","","","","","","","","","","","","","",""
"","ISI","","html-keyboard-response","368","410513","0.0-1.0-516.0","0","0","77831","","null","","","null","57","NaN","","","","","","","","","","","","","","",""
"","S2","","html-keyboard-response","369","410768","0.0-1.0-517.0","0","0","77831","","null","","","null","57","","NaN","","","","","","","","","","","","","",""
"","response","","html-keyboard-response","370","411399","0.0-1.0-518.0-0.0","0","0","77831","","627","","","68","57","","","2","57","training","adjacent","EF","5","6","N.jpg","L.jpg","0","1","0","",""
"","feedback","","html-keyboard-response","371","412404","0.0-1.0-519.0-0.0","0","0","77831","","null","","","null","57","","","","","","","","","","","","","","","",""
"","time_out","","html-keyboard-response","372","414410","0.0-1.0-521.0-0.0","0","0","77831","","null","","","null","57","","","","","","","","","","","","","","","",""
"","ITI","","html-keyboard-response","373","415414","0.0-1.0-522.0","0","0","77831","","null","","","null","57","","","","","","","","","","","","","","","NaN",""
"","S1","","html-keyboard-response","374","415669","0.0-1.0-524.0","0","0","77831","","null","","","null","58","","","","","","","","","","","","","","","",""
"","ISI","","html-keyboard-response","375","417674","0.0-1.0-525.0","0","0","77831","","null","","","null","58","NaN","","","","","","","","","","","","","","",""
"","S2","","html-keyboard-response","376","417929","0.0-1.0-526.0","0","0","77831","","null","","","null","58","","NaN","","","","","","","","","","","","","",""
"","response","","html-keyboard-response","377","418610","0.0-1.0-527.0-0.0","0","0","77831","","677","","","68","58","","","2","58","training","adjacent","CB","3","2","Q.jpg","O.jpg","0","0","1","",""
"","feedback","","html-keyboard-response","378","419615","0.0-1.0-528.0-0.0","0","0","77831","","null","","","null","58","","","","","","","","","","","","","","","",""
"","ITI","","html-keyboard-response","379","420620","0.0-1.0-531.0","0","0","77831","","null","","","null","58","","","","","","","","","","","","","","","NaN",""
"","S1","","html-keyboard-response","380","420874","0.0-1.0-533.0","0","0","77831","","null","","","null","59","","","","","","","","","","","","","","","",""
"","ISI","","html-keyboard-response","381","422880","0.0-1.0-534.0","0","0","77831","","null","","","null","59","NaN","","","","","","","","","","","","","","",""
"","S2","","html-keyboard-response","382","423136","0.0-1.0-535.0","0","0","77831","","null","","","null","59","","NaN","","","","","","","","","","","","","",""
"","response","","html-keyboard-response","383","423514","0.0-1.0-536.0-0.0","0","0","77831","","375","","","68","59","","","2","59","training","adjacent","CB","3","2","Q.jpg","O.jpg","0","0","1","",""
"","feedback","","html-keyboard-response","384","424519","0.0-1.0-537.0-0.0","0","0","77831","","null","","","null","59","","","","","","","","","","","","","","","",""
"","ITI","","html-keyboard-response","385","425524","0.0-1.0-540.0","0","0","77831","","null","","","null","59","","","","","","","","","","","","","","","NaN",""
"","S1","","html-keyboard-response","386","425779","0.0-1.0-542.0","0","0","77831","","null","","","null","60","","","","","","","","","","","","","","","",""
"","ISI","","html-keyboard-response","387","427783","0.0-1.0-543.0","0","0","77831","","null","","","null","60","NaN","","","","","","","","","","","","","","",""
"","S2","","html-keyboard-response","388","428038","0.0-1.0-544.0","0","0","77831","","null","","","null","60","","NaN","","","","","","","","","","","","","",""
"","response","","html-keyboard-response","389","428209","0.0-1.0-545.0-0.0","0","0","77831","","167","","","75","60","","","2","60","training","adjacent","FG","6","7","L.jpg","P.jpg","1","1","1","",""
"","feedback","","html-keyboard-response","390","429214","0.0-1.0-546.0-0.0","0","0","77831","","null","","","null","60","","","","","","","","","","","","","","","",""
"","ITI","","html-keyboard-response","391","430218","0.0-1.0-549.0","0","0","77831","","null","","","null","60","","","","","","","","","","","","","","","NaN",""
"","S1","","html-keyboard-response","392","430473","0.0-1.0-551.0","0","0","77831","","null","","","null","61","","","","","","","","","","","","","","","",""
"","ISI","","html-keyboard-response","393","432477","0.0-1.0-552.0","0","0","77831","","null","","","null","61","NaN","","","","","","","","","","","","","","",""
"","S2","","html-keyboard-response","394","432732","0.0-1.0-553.0","0","0","77831","","null","","","null","61","","NaN","","","","","","","","","","","","","",""
"","response","","html-keyboard-response","395","433012","0.0-1.0-554.0-0.0","0","0","77831","","276","","","68","61","","","2","61","training","adjacent","EF","5","6","N.jpg","L.jpg","0","1","0","",""
"","feedback","","html-keyboard-response","396","434017","0.0-1.0-555.0-0.0","0","0","77831","","null","","","null","61","","","","","","","","","","","","","","","",""
"","time_out","","html-keyboard-response","397","436023","0.0-1.0-557.0-0.0","0","0","77831","","null","","","null","61","","","","","","","","","","","","","","","",""
"","ITI","","html-keyboard-response","398","437027","0.0-1.0-558.0","0","0","77831","","null","","","null","61","","","","","","","","","","","","","","","NaN",""
"","S1","","html-keyboard-response","399","437281","0.0-1.0-560.0","0","0","77831","","null","","","null","62","","","","","","","","","","","","","","","",""
"","ISI","","html-keyboard-response","400","439285","0.0-1.0-561.0","0","0","77831","","null","","","null","62","NaN","","","","","","","","","","","","","","",""
"","S2","","html-keyboard-response","401","439540","0.0-1.0-562.0","0","0","77831","","null","","","null","62","","NaN","","","","","","","","","","","","","",""
"","response","","html-keyboard-response","402","439613","0.0-1.0-563.0-0.0","0","0","77831","","69","","","68","62","","","2","62","training","adjacent","GF","7","6","P.jpg","L.jpg","0","0","1","",""
"","feedback","","html-keyboard-response","403","440617","0.0-1.0-564.0-0.0","0","0","77831","","null","","","null","62","","","","","","","","","","","","","","","",""
"","ITI","","html-keyboard-response","404","441621","0.0-1.0-567.0","0","0","77831","","null","","","null","62","","","","","","","","","","","","","","","NaN",""
"","S1","","html-keyboard-response","405","441876","0.0-1.0-569.0","0","0","77831","","null","","","null","63","","","","","","","","","","","","","","","",""
"","ISI","","html-keyboard-response","406","443880","0.0-1.0-570.0","0","0","77831","","null","","","null","63","NaN","","","","","","","","","","","","","","",""
"","S2","","html-keyboard-response","407","444135","0.0-1.0-571.0","0","0","77831","","null","","","null","63","","NaN","","","","","","","","","","","","","",""
"","response","","html-keyboard-response","408","444413","0.0-1.0-572.0-0.0","0","0","77831","","273","","","68","63","","","2","63","training","adjacent","DC","4","3","M.jpg","Q.jpg","0","0","1","",""
"","feedback","","html-keyboard-response","409","445418","0.0-1.0-573.0-0.0","0","0","77831","","null","","","null","63","","","","","","","","","","","","","","","",""
"","ITI","","html-keyboard-response","410","446424","0.0-1.0-576.0","0","0","77831","","null","","","null","63","","","","","","","","","","","","","","","NaN",""
"","S1","","html-keyboard-response","411","446679","0.0-1.0-578.0","0","0","77831","","null","","","null","64","","","","","","","","","","","","","","","",""
"","ISI","","html-keyboard-response","412","448683","0.0-1.0-579.0","0","0","77831","","null","","","null","64","NaN","","","","","","","","","","","","","","",""
"","S2","","html-keyboard-response","413","448938","0.0-1.0-580.0","0","0","77831","","null","","","null","64","","NaN","","","","","","","","","","","","","",""
"","response","","html-keyboard-response","414","449809","0.0-1.0-581.0-0.0","0","0","77831","","867","","","75","64","","","2","64","training","adjacent","BC","2","3","O.jpg","Q.jpg","1","1","1","",""
"","feedback","","html-keyboard-response","415","450813","0.0-1.0-582.0-0.0","0","0","77831","","null","","","null","64","","","","","","","","","","","","","","","",""
"","ITI","","html-keyboard-response","416","451816","0.0-1.0-585.0","0","0","77831","","null","","","null","64","","","","","","","","","","","","","","","NaN",""
"","S1","","html-keyboard-response","417","452070","0.0-1.0-587.0","0","0","77831","","null","","","null","65","","","","","","","","","","","","","","","",""
"","ISI","","html-keyboard-response","418","454074","0.0-1.0-588.0","0","0","77831","","null","","","null","65","NaN","","","","","","","","","","","","","","",""
"","S2","","html-keyboard-response","419","454329","0.0-1.0-589.0","0","0","77831","","null","","","null","65","","NaN","","","","","","","","","","","","","",""
"","response","","html-keyboard-response","420","454729","0.0-1.0-590.0-0.0","0","0","77831","","398","","","75","65","","","2","65","training","adjacent","DE","4","5","M.jpg","N.jpg","1","1","1","",""
"","feedback","","html-keyboard-response","421","455734","0.0-1.0-591.0-0.0","0","0","77831","","null","","","null","65","","","","","","","","","","","","","","","",""
"","ITI","","html-keyboard-response","422","456738","0.0-1.0-594.0","0","0","77831","","null","","","null","65","","","","","","","","","","","","","","","NaN",""
"","S1","","html-keyboard-response","423","456992","0.0-1.0-596.0","0","0","77831","","null","","","null","66","","","","","","","","","","","","","","","",""
"","ISI","","html-keyboard-response","424","458996","0.0-1.0-597.0","0","0","77831","","null","","","null","66","NaN","","","","","","","","","","","","","","",""
"","S2","","html-keyboard-response","425","459251","0.0-1.0-598.0","0","0","77831","","null","","","null","66","","NaN","","","","","","","","","","","","","",""
"","response","","html-keyboard-response","426","459355","0.0-1.0-599.0-0.0","0","0","77831","","100","","","75","66","","","2","66","training","adjacent","FG","6","7","L.jpg","P.jpg","1","1","1","",""
"","feedback","","html-keyboard-response","427","460360","0.0-1.0-600.0-0.0","0","0","77831","","null","","","null","66","","","","","","","","","","","","","","","",""
"","ITI","","html-keyboard-response","428","461365","0.0-1.0-603.0","0","0","77831","","null","","","null","66","","","","","","","","","","","","","","","NaN",""
"","S1","","html-keyboard-response","429","461620","0.0-1.0-605.0","0","0","77831","","null","","","null","67","","","","","","","","","","","","","","","",""
"","ISI","","html-keyboard-response","430","463624","0.0-1.0-606.0","0","0","77831","","null","","","null","67","NaN","","","","","","","","","","","","","","",""
"","S2","","html-keyboard-response","431","463879","0.0-1.0-607.0","0","0","77831","","null","","","null","67","","NaN","","","","","","","","","","","","","",""
"","response","","html-keyboard-response","432","464100","0.0-1.0-608.0-0.0","0","0","77831","","216","","","75","67","","","2","67","training","adjacent","AB","1","2","R.jpg","O.jpg","1","1","1","",""
"","feedback","","html-keyboard-response","433","465105","0.0-1.0-609.0-0.0","0","0","77831","","null","","","null","67","","","","","","","","","","","","","","","",""
"","ITI","","html-keyboard-response","434","466109","0.0-1.0-612.0","0","0","77831","","null","","","null","67","","","","","","","","","","","","","","","NaN",""
"","S1","","html-keyboard-response","435","466364","0.0-1.0-614.0","0","0","77831","","null","","","null","68","","","","","","","","","","","","","","","",""
"","ISI","","html-keyboard-response","436","468368","0.0-1.0-615.0","0","0","77831","","null","","","null","68","NaN","","","","","","","","","","","","","","",""
"","S2","","html-keyboard-response","437","468623","0.0-1.0-616.0","0","0","77831","","null","","","null","68","","NaN","","","","","","","","","","","","","",""
"","response","","html-keyboard-response","438","469019","0.0-1.0-617.0-0.0","0","0","77831","","391","","","75","68","","","2","68","training","adjacent","ED","5","4","N.jpg","M.jpg","1","0","0","",""
"","feedback","","html-keyboard-response","439","470024","0.0-1.0-618.0-0.0","0","0","77831","","null","","","null","68","","","","","","","","","","","","","","","",""
"","time_out","","html-keyboard-response","440","472030","0.0-1.0-620.0-0.0","0","0","77831","","null","","","null","68","","","","","","","","","","","","","","","",""
"","ITI","","html-keyboard-response","441","473033","0.0-1.0-621.0","0","0","77831","","null","","","null","68","","","","","","","","","","","","","","","NaN",""
"","S1","","html-keyboard-response","442","473286","0.0-1.0-623.0","0","0","77831","","null","","","null","69","","","","","","","","","","","","","","","",""
"","ISI","","html-keyboard-response","443","475291","0.0-1.0-624.0","0","0","77831","","null","","","null","69","NaN","","","","","","","","","","","","","","",""
"","S2","","html-keyboard-response","444","475544","0.0-1.0-625.0","0","0","77831","","null","","","null","69","","NaN","","","","","","","","","","","","","",""
"","response","","html-keyboard-response","445","475871","0.0-1.0-626.0-0.0","0","0","77831","","324","","","75","69","","","2","69","training","adjacent","CD","3","4","Q.jpg","M.jpg","1","1","1","",""
"","feedback","","html-keyboard-response","446","476875","0.0-1.0-627.0-0.0","0","0","77831","","null","","","null","69","","","","","","","","","","","","","","","",""
"","ITI","","html-keyboard-response","447","477880","0.0-1.0-630.0","0","0","77831","","null","","","null","69","","","","","","","","","","","","","","","NaN",""
"","S1","","html-keyboard-response","448","478135","0.0-1.0-632.0","0","0","77831","","null","","","null","70","","","","","","","","","","","","","","","",""
"","ISI","","html-keyboard-response","449","480139","0.0-1.0-633.0","0","0","77831","","null","","","null","70","NaN","","","","","","","","","","","","","","",""
"","S2","","html-keyboard-response","450","480393","0.0-1.0-634.0","0","0","77831","","null","","","null","70","","NaN","","","","","","","","","","","","","",""
"","response","","html-keyboard-response","451","480839","0.0-1.0-635.0-0.0","0","0","77831","","444","","","68","70","","","2","70","training","adjacent","FE","6","5","L.jpg","N.jpg","0","0","1","",""
"","feedback","","html-keyboard-response","452","481844","0.0-1.0-636.0-0.0","0","0","77831","","null","","","null","70","","","","","","","","","","","","","","","",""
"","ITI","","html-keyboard-response","453","482849","0.0-1.0-639.0","0","0","77831","","null","","","null","70","","","","","","","","","","","","","","","NaN",""
"","S1","","html-keyboard-response","454","483104","0.0-1.0-641.0","0","0","77831","","null","","","null","71","","","","","","","","","","","","","","","",""
"","ISI","","html-keyboard-response","455","485108","0.0-1.0-642.0","0","0","77831","","null","","","null","71","NaN","","","","","","","","","","","","","","",""
"","S2","","html-keyboard-response","456","485363","0.0-1.0-643.0","0","0","77831","","null","","","null","71","","NaN","","","","","","","","","","","","","",""
"","response","","html-keyboard-response","457","485624","0.0-1.0-644.0-0.0","0","0","77831","","256","","","75","71","","","2","71","training","adjacent","FE","6","5","L.jpg","N.jpg","1","0","0","",""
"","feedback","","html-keyboard-response","458","486630","0.0-1.0-645.0-0.0","0","0","77831","","null","","","null","71","","","","","","","","","","","","","","","",""
"","time_out","","html-keyboard-response","459","488636","0.0-1.0-647.0-0.0","0","0","77831","","null","","","null","71","","","","","","","","","","","","","","","",""
"","ITI","","html-keyboard-response","460","489640","0.0-1.0-648.0","0","0","77831","","null","","","null","71","","","","","","","","","","","","","","","NaN",""
"","S1","","html-keyboard-response","461","489894","0.0-1.0-650.0","0","0","77831","","null","","","null","72","","","","","","","","","","","","","","","",""
"","ISI","","html-keyboard-response","462","491898","0.0-1.0-651.0","0","0","77831","","null","","","null","72","NaN","","","","","","","","","","","","","","",""
"","S2","","html-keyboard-response","463","492152","0.0-1.0-652.0","0","0","77831","","null","","","null","72","","NaN","","","","","","","","","","","","","",""
"","response","","html-keyboard-response","464","492391","0.0-1.0-653.0-0.0","0","0","77831","","236","","","75","72","","","2","72","training","adjacent","CD","3","4","Q.jpg","M.jpg","1","1","1","",""
"","feedback","","html-keyboard-response","465","493397","0.0-1.0-654.0-0.0","0","0","77831","","null","","","null","72","","","","","","","","","","","","","","","",""
"","ITI","","html-keyboard-response","466","494403","0.0-1.0-657.0","0","0","77831","","null","","","null","72","","","","","","","","","","","","","","","NaN",""
"","S1","","html-keyboard-response","467","494657","0.0-1.0-659.0","0","0","77831","","null","","","null","73","","","","","","","","","","","","","","","",""
"","ISI","","html-keyboard-response","468","496662","0.0-1.0-660.0","0","0","77831","","null","","","null","73","NaN","","","","","","","","","","","","","","",""
"","S2","","html-keyboard-response","469","496917","0.0-1.0-661.0","0","0","77831","","null","","","null","73","","NaN","","","","","","","","","","","","","",""
"","response","","html-keyboard-response","470","497026","0.0-1.0-662.0-0.0","0","0","77831","","103","","","75","73","","","2","73","training","adjacent","EF","5","6","N.jpg","L.jpg","1","1","1","",""
"","feedback","","html-keyboard-response","471","498035","0.0-1.0-663.0-0.0","0","0","77831","","null","","","null","73","","","","","","","","","","","","","","","",""
"","ITI","","html-keyboard-response","472","499040","0.0-1.0-666.0","0","0","77831","","null","","","null","73","","","","","","","","","","","","","","","NaN",""
"","S1","","html-keyboard-response","473","499293","0.0-1.0-668.0","0","0","77831","","null","","","null","74","","","","","","","","","","","","","","","",""
"","ISI","","html-keyboard-response","474","501297","0.0-1.0-669.0","0","0","77831","","null","","","null","74","NaN","","","","","","","","","","","","","","",""
"","S2","","html-keyboard-response","475","501552","0.0-1.0-670.0","0","0","77831","","null","","","null","74","","NaN","","","","","","","","","","","","","",""
"","response","","html-keyboard-response","476","502063","0.0-1.0-671.0-0.0","0","0","77831","","506","","","68","74","","","2","74","training","adjacent","BA","2","1","O.jpg","R.jpg","0","0","1","",""
"","feedback","","html-keyboard-response","477","503068","0.0-1.0-672.0-0.0","0","0","77831","","null","","","null","74","","","","","","","","","","","","","","","",""
"","ITI","","html-keyboard-response","478","504073","0.0-1.0-675.0","0","0","77831","","null","","","null","74","","","","","","","","","","","","","","","NaN",""
"","S1","","html-keyboard-response","479","504328","0.0-1.0-677.0","0","0","77831","","null","","","null","75","","","","","","","","","","","","","","","",""
"","ISI","","html-keyboard-response","480","506332","0.0-1.0-678.0","0","0","77831","","null","","","null","75","NaN","","","","","","","","","","","","","","",""
"","S2","","html-keyboard-response","481","506587","0.0-1.0-679.0","0","0","77831","","null","","","null","75","","NaN","","","","","","","","","","","","","",""
"","response","","html-keyboard-response","482","506899","0.0-1.0-680.0-0.0","0","0","77831","","309","","","68","75","","","2","75","training","adjacent","CB","3","2","Q.jpg","O.jpg","0","0","1","",""
"","feedback","","html-keyboard-response","483","507905","0.0-1.0-681.0-0.0","0","0","77831","","null","","","null","75","","","","","","","","","","","","","","","",""
"","ITI","","html-keyboard-response","484","508910","0.0-1.0-684.0","0","0","77831","","null","","","null","75","","","","","","","","","","","","","","","NaN",""
"","S1","","html-keyboard-response","485","509165","0.0-1.0-686.0","0","0","77831","","null","","","null","76","","","","","","","","","","","","","","","",""
"","ISI","","html-keyboard-response","486","511178","0.0-1.0-687.0","0","0","77831","","null","","","null","76","NaN","","","","","","","","","","","","","","",""
"","S2","","html-keyboard-response","487","511435","0.0-1.0-688.0","0","0","77831","","null","","","null","76","","NaN","","","","","","","","","","","","","",""
"","response","","html-keyboard-response","488","511987","0.0-1.0-689.0-0.0","0","0","77831","","548","","","68","76","","","2","76","training","adjacent","CD","3","4","Q.jpg","M.jpg","0","1","0","",""
"","feedback","","html-keyboard-response","489","512994","0.0-1.0-690.0-0.0","0","0","77831","","null","","","null","76","","","","","","","","","","","","","","","",""
"","time_out","","html-keyboard-response","490","515000","0.0-1.0-692.0-0.0","0","0","77831","","null","","","null","76","","","","","","","","","","","","","","","",""
"","ITI","","html-keyboard-response","491","516003","0.0-1.0-693.0","0","0","77831","","null","","","null","76","","","","","","","","","","","","","","","NaN",""
"","S1","","html-keyboard-response","492","516258","0.0-1.0-695.0","0","0","77831","","null","","","null","77","","","","","","","","","","","","","","","",""
"","ISI","","html-keyboard-response","493","518263","0.0-1.0-696.0","0","0","77831","","null","","","null","77","NaN","","","","","","","","","","","","","","",""
"","S2","","html-keyboard-response","494","518517","0.0-1.0-697.0","0","0","77831","","null","","","null","77","","NaN","","","","","","","","","","","","","",""
"","response","","html-keyboard-response","495","518958","0.0-1.0-698.0-0.0","0","0","77831","","439","","","68","77","","","2","77","training","adjacent","FE","6","5","L.jpg","N.jpg","0","0","1","",""
"","feedback","","html-keyboard-response","496","519963","0.0-1.0-699.0-0.0","0","0","77831","","null","","","null","77","","","","","","","","","","","","","","","",""
"","ITI","","html-keyboard-response","497","520968","0.0-1.0-702.0","0","0","77831","","null","","","null","77","","","","","","","","","","","","","","","NaN",""
"","S1","","html-keyboard-response","498","521223","0.0-1.0-704.0","0","0","77831","","null","","","null","78","","","","","","","","","","","","","","","",""
"","ISI","","html-keyboard-response","499","523226","0.0-1.0-705.0","0","0","77831","","null","","","null","78","NaN","","","","","","","","","","","","","","",""
"","S2","","html-keyboard-response","500","523479","0.0-1.0-706.0","0","0","77831","","null","","","null","78","","NaN","","","","","","","","","","","","","",""
"","response","","html-keyboard-response","501","523784","0.0-1.0-707.0-0.0","0","0","77831","","302","","","75","78","","","2","78","training","adjacent","AB","1","2","R.jpg","O.jpg","1","1","1","",""
"","feedback","","html-keyboard-response","502","524790","0.0-1.0-708.0-0.0","0","0","77831","","null","","","null","78","","","","","","","","","","","","","","","",""
"","ITI","","html-keyboard-response","503","525795","0.0-1.0-711.0","0","0","77831","","null","","","null","78","","","","","","","","","","","","","","","NaN",""
"","S1","","html-keyboard-response","504","526050","0.0-1.0-713.0","0","0","77831","","null","","","null","79","","","","","","","","","","","","","","","",""
"","ISI","","html-keyboard-response","505","528055","0.0-1.0-714.0","0","0","77831","","null","","","null","79","NaN","","","","","","","","","","","","","","",""
"","S2","","html-keyboard-response","506","528309","0.0-1.0-715.0","0","0","77831","","null","","","null","79","","NaN","","","","","","","","","","","","","",""
"","response","","html-keyboard-response","507","528697","0.0-1.0-716.0-0.0","0","0","77831","","385","","","75","79","","","2","79","training","adjacent","BC","2","3","O.jpg","Q.jpg","1","1","1","",""
"","feedback","","html-keyboard-response","508","529703","0.0-1.0-717.0-0.0","0","0","77831","","null","","","null","79","","","","","","","","","","","","","","","",""
"","ITI","","html-keyboard-response","509","530710","0.0-1.0-720.0","0","0","77831","","null","","","null","79","","","","","","","","","","","","","","","NaN",""
"","S1","","html-keyboard-response","510","530965","0.0-1.0-722.0","0","0","77831","","null","","","null","80","","","","","","","","","","","","","","","",""
"","ISI","","html-keyboard-response","511","532970","0.0-1.0-723.0","0","0","77831","","null","","","null","80","NaN","","","","","","","","","","","","","","",""
"","S2","","html-keyboard-response","512","533229","0.0-1.0-724.0","0","0","77831","","null","","","null","80","","NaN","","","","","","","","","","","","","",""
"","response","","html-keyboard-response","513","533820","0.0-1.0-725.0-0.0","0","0","77831","","587","","","75","80","","","2","80","training","adjacent","AB","1","2","R.jpg","O.jpg","1","1","1","",""
"","feedback","","html-keyboard-response","514","534824","0.0-1.0-726.0-0.0","0","0","77831","","null","","","null","80","","","","","","","","","","","","","","","",""
"","ITI","","html-keyboard-response","515","535846","0.0-1.0-729.0","0","0","77831","","null","","","null","80","","","","","","","","","","","","","","","NaN",""
"","S1","","html-keyboard-response","516","536100","0.0-1.0-731.0","0","0","77831","","null","","","null","81","","","","","","","","","","","","","","","",""
"","ISI","","html-keyboard-response","517","538103","0.0-1.0-732.0","0","0","77831","","null","","","null","81","NaN","","","","","","","","","","","","","","",""
"","S2","","html-keyboard-response","518","538358","0.0-1.0-733.0","0","0","77831","","null","","","null","81","","NaN","","","","","","","","","","","","","",""
"","response","","html-keyboard-response","519","538791","0.0-1.0-734.0-0.0","0","0","77831","","430","","","68","81","","","2","81","training","adjacent","FE","6","5","L.jpg","N.jpg","0","0","1","",""
"","feedback","","html-keyboard-response","520","539796","0.0-1.0-735.0-0.0","0","0","77831","","null","","","null","81","","","","","","","","","","","","","","","",""
"","ITI","","html-keyboard-response","521","540801","0.0-1.0-738.0","0","0","77831","","null","","","null","81","","","","","","","","","","","","","","","NaN",""
"","S1","","html-keyboard-response","522","541057","0.0-1.0-740.0","0","0","77831","","null","","","null","82","","","","","","","","","","","","","","","",""
"","ISI","","html-keyboard-response","523","543061","0.0-1.0-741.0","0","0","77831","","null","","","null","82","NaN","","","","","","","","","","","","","","",""
"","S2","","html-keyboard-response","524","543315","0.0-1.0-742.0","0","0","77831","","null","","","null","82","","NaN","","","","","","","","","","","","","",""
"","response","","html-keyboard-response","525","543651","0.0-1.0-743.0-0.0","0","0","77831","","333","","","75","82","","","2","82","training","adjacent","CD","3","4","Q.jpg","M.jpg","1","1","1","",""
"","feedback","","html-keyboard-response","526","544657","0.0-1.0-744.0-0.0","0","0","77831","","null","","","null","82","","","","","","","","","","","","","","","",""
"","ITI","","html-keyboard-response","527","545662","0.0-1.0-747.0","0","0","77831","","null","","","null","82","","","","","","","","","","","","","","","NaN",""
"","S1","","html-keyboard-response","528","545916","0.0-1.0-749.0","0","0","77831","","null","","","null","83","","","","","","","","","","","","","","","",""
"","ISI","","html-keyboard-response","529","547919","0.0-1.0-750.0","0","0","77831","","null","","","null","83","NaN","","","","","","","","","","","","","","",""
"","S2","","html-keyboard-response","530","548174","0.0-1.0-751.0","0","0","77831","","null","","","null","83","","NaN","","","","","","","","","","","","","",""
"","response","","html-keyboard-response","531","548569","0.0-1.0-752.0-0.0","0","0","77831","","392","","","68","83","","","2","83","training","adjacent","ED","5","4","N.jpg","M.jpg","0","0","1","",""
"","feedback","","html-keyboard-response","532","549576","0.0-1.0-753.0-0.0","0","0","77831","","null","","","null","83","","","","","","","","","","","","","","","",""
"","ITI","","html-keyboard-response","533","550581","0.0-1.0-756.0","0","0","77831","","null","","","null","83","","","","","","","","","","","","","","","NaN",""
"","S1","","html-keyboard-response","534","550836","0.0-1.0-758.0","0","0","77831","","null","","","null","84","","","","","","","","","","","","","","","",""
"","ISI","","html-keyboard-response","535","552841","0.0-1.0-759.0","0","0","77831","","null","","","null","84","NaN","","","","","","","","","","","","","","",""
"","S2","","html-keyboard-response","536","553094","0.0-1.0-760.0","0","0","77831","","null","","","null","84","","NaN","","","","","","","","","","","","","",""
"","response","","html-keyboard-response","537","553447","0.0-1.0-761.0-0.0","0","0","77831","","350","","","75","84","","","2","84","training","adjacent","BC","2","3","O.jpg","Q.jpg","1","1","1","",""
"","feedback","","html-keyboard-response","538","554452","0.0-1.0-762.0-0.0","0","0","77831","","null","","","null","84","","","","","","","","","","","","","","","",""
"","ITI","","html-keyboard-response","539","555454","0.0-1.0-765.0","0","0","77831","","null","","","null","84","","","","","","","","","","","","","","","NaN",""
"","S1","","html-keyboard-response","540","555709","0.0-1.0-767.0","0","0","77831","","null","","","null","85","","","","","","","","","","","","","","","",""
"","ISI","","html-keyboard-response","541","557713","0.0-1.0-768.0","0","0","77831","","null","","","null","85","NaN","","","","","","","","","","","","","","",""
"","S2","","html-keyboard-response","542","557968","0.0-1.0-769.0","0","0","77831","","null","","","null","85","","NaN","","","","","","","","","","","","","",""
"","response","","html-keyboard-response","543","558257","0.0-1.0-770.0-0.0","0","0","77831","","284","","","68","85","","","2","85","training","adjacent","DC","4","3","M.jpg","Q.jpg","0","0","1","",""
"","feedback","","html-keyboard-response","544","559263","0.0-1.0-771.0-0.0","0","0","77831","","null","","","null","85","","","","","","","","","","","","","","","",""
"","ITI","","html-keyboard-response","545","560267","0.0-1.0-774.0","0","0","77831","","null","","","null","85","","","","","","","","","","","","","","","NaN",""
"","S1","","html-keyboard-response","546","560523","0.0-1.0-776.0","0","0","77831","","null","","","null","86","","","","","","","","","","","","","","","",""
"","ISI","","html-keyboard-response","547","562527","0.0-1.0-777.0","0","0","77831","","null","","","null","86","NaN","","","","","","","","","","","","","","",""
"","S2","","html-keyboard-response","548","562780","0.0-1.0-778.0","0","0","77831","","null","","","null","86","","NaN","","","","","","","","","","","","","",""
"","response","","html-keyboard-response","549","562872","0.0-1.0-779.0-0.0","0","0","77831","","88","","","68","86","","","2","86","training","adjacent","GF","7","6","P.jpg","L.jpg","0","0","1","",""
"","feedback","","html-keyboard-response","550","563879","0.0-1.0-780.0-0.0","0","0","77831","","null","","","null","86","","","","","","","","","","","","","","","",""
"","ITI","","html-keyboard-response","551","564884","0.0-1.0-783.0","0","0","77831","","null","","","null","86","","","","","","","","","","","","","","","NaN",""
"","S1","","html-keyboard-response","552","565139","0.0-1.0-785.0","0","0","77831","","null","","","null","87","","","","","","","","","","","","","","","",""
"","ISI","","html-keyboard-response","553","567143","0.0-1.0-786.0","0","0","77831","","null","","","null","87","NaN","","","","","","","","","","","","","","",""
"","S2","","html-keyboard-response","554","567399","0.0-1.0-787.0","0","0","77831","","null","","","null","87","","NaN","","","","","","","","","","","","","",""
"","response","","html-keyboard-response","555","567812","0.0-1.0-788.0-0.0","0","0","77831","","409","","","75","87","","","2","87","training","adjacent","AB","1","2","R.jpg","O.jpg","1","1","1","",""
"","feedback","","html-keyboard-response","556","568818","0.0-1.0-789.0-0.0","0","0","77831","","null","","","null","87","","","","","","","","","","","","","","","",""
"","ITI","","html-keyboard-response","557","569823","0.0-1.0-792.0","0","0","77831","","null","","","null","87","","","","","","","","","","","","","","","NaN",""
"","S1","","html-keyboard-response","558","570077","0.0-1.0-794.0","0","0","77831","","null","","","null","88","","","","","","","","","","","","","","","",""
"","ISI","","html-keyboard-response","559","572082","0.0-1.0-795.0","0","0","77831","","null","","","null","88","NaN","","","","","","","","","","","","","","",""
"","S2","","html-keyboard-response","560","572336","0.0-1.0-796.0","0","0","77831","","null","","","null","88","","NaN","","","","","","","","","","","","","",""
"","response","","html-keyboard-response","561","573363","0.0-1.0-797.0-0.0","0","0","77831","","1023","","","75","88","","","2","88","training","adjacent","DE","4","5","M.jpg","N.jpg","1","1","1","",""
"","feedback","","html-keyboard-response","562","574368","0.0-1.0-798.0-0.0","0","0","77831","","null","","","null","88","","","","","","","","","","","","","","","",""
"","ITI","","html-keyboard-response","563","575373","0.0-1.0-801.0","0","0","77831","","null","","","null","88","","","","","","","","","","","","","","","NaN",""
"","S1","","html-keyboard-response","564","575627","0.0-1.0-803.0","0","0","77831","","null","","","null","89","","","","","","","","","","","","","","","",""
"","ISI","","html-keyboard-response","565","577632","0.0-1.0-804.0","0","0","77831","","null","","","null","89","NaN","","","","","","","","","","","","","","",""
"","S2","","html-keyboard-response","566","577887","0.0-1.0-805.0","0","0","77831","","null","","","null","89","","NaN","","","","","","","","","","","","","",""
"","response","","html-keyboard-response","567","578604","0.0-1.0-806.0-0.0","0","0","77831","","711","","","68","89","","","2","89","training","adjacent","BA","2","1","O.jpg","R.jpg","0","0","1","",""
"","feedback","","html-keyboard-response","568","579609","0.0-1.0-807.0-0.0","0","0","77831","","null","","","null","89","","","","","","","","","","","","","","","",""
"","ITI","","html-keyboard-response","569","580614","0.0-1.0-810.0","0","0","77831","","null","","","null","89","","","","","","","","","","","","","","","NaN",""
"","S1","","html-keyboard-response","570","580870","0.0-1.0-812.0","0","0","77831","","null","","","null","90","","","","","","","","","","","","","","","",""
"","ISI","","html-keyboard-response","571","582878","0.0-1.0-813.0","0","0","77831","","null","","","null","90","NaN","","","","","","","","","","","","","","",""
"","S2","","html-keyboard-response","572","583133","0.0-1.0-814.0","0","0","77831","","null","","","null","90","","NaN","","","","","","","","","","","","","",""
"","response","","html-keyboard-response","573","584244","0.0-1.0-815.0-0.0","0","0","77831","","1107","","","75","90","","","2","90","training","adjacent","ED","5","4","N.jpg","M.jpg","1","0","0","",""
"","feedback","","html-keyboard-response","574","585251","0.0-1.0-816.0-0.0","0","0","77831","","null","","","null","90","","","","","","","","","","","","","","","",""
"","time_out","","html-keyboard-response","575","587258","0.0-1.0-818.0-0.0","0","0","77831","","null","","","null","90","","","","","","","","","","","","","","","",""
"","ITI","","html-keyboard-response","576","588262","0.0-1.0-819.0","0","0","77831","","null","","","null","90","","","","","","","","","","","","","","","NaN",""
"","S1","","html-keyboard-response","577","588518","0.0-1.0-821.0","0","0","77831","","null","","","null","91","","","","","","","","","","","","","","","",""
"","ISI","","html-keyboard-response","578","590523","0.0-1.0-822.0","0","0","77831","","null","","","null","91","NaN","","","","","","","","","","","","","","",""
"","S2","","html-keyboard-response","579","590778","0.0-1.0-823.0","0","0","77831","","null","","","null","91","","NaN","","","","","","","","","","","","","",""
"","response","","html-keyboard-response","580","590885","0.0-1.0-824.0-0.0","0","0","77831","","102","","","68","91","","","2","91","training","adjacent","DC","4","3","M.jpg","Q.jpg","0","0","1","",""
"","feedback","","html-keyboard-response","581","591892","0.0-1.0-825.0-0.0","0","0","77831","","null","","","null","91","","","","","","","","","","","","","","","",""
"","ITI","","html-keyboard-response","582","592897","0.0-1.0-828.0","0","0","77831","","null","","","null","91","","","","","","","","","","","","","","","NaN",""
