"success","ttype","start_time","trial_type","trial_index","time_elapsed","internal_node_id","warning","missed_checkup","PID","view_history","rt","responses","repeat_instructions","key_press","index","keypress_isi","keypress_S2","block","trial_num","phase","group_type","pair_type","S1_stim","S2_stim","S1_img","S2_img","S1_chosen","S1_higher","accuracy","keypress_iti","total_bonus_tally"
"true","full_screen","d04062023hr2235","fullscreen","0","24008","0.0-0.0","0","0","80071","","","","","","","","","","","","","","","","","","","","","",""
"","instructions","","instructions","1","1070672","0.0-1.0-0.0-0.0","0","0","80071","[{""page_index"":0,""viewing_time"":12815},{""page_index"":1,""viewing_time"":654629},{""page_index"":2,""viewing_time"":377282},{""page_index"":3,""viewing_time"":1928}]","1046655","","","","","","","","","","","","","","","","","","","",""
"","comprehension_check","","survey-multi-choice","2","1102703","0.0-1.0-0.0-1.0","0","0","80071","","32018","{""Q0"":""True"",""Q1"":""K"",""Q2"":""Once the second image appears and while the screen 'MAKE A CHOICE' is shown"",""Q3"":""Green mark"",""Q4"":""either D or K""}","0","","","","","","","","","","","","","","","","","",""
"","start_exp","","html-keyboard-response","3","1105066","0.0-1.0-1.0","0","0","80071","","2357","","","32","","","","","","","","","","","","","","","","",""
"","S1","","html-keyboard-response","4","1105223","0.0-1.0-2.0","0","0","80071","","null","","","null","0","","","","","","","","","","","","","","","",""
"","ISI","","html-keyboard-response","5","1107226","0.0-1.0-3.0","0","0","80071","","null","","","null","0","NaN","","","","","","","","","","","","","","",""
"","S2","","html-keyboard-response","6","1107382","0.0-1.0-4.0","0","0","80071","","null","","","null","0","","NaN","","","","","","","","","","","","","",""
"","response","","html-keyboard-response","7","1107954","0.0-1.0-5.0-0.0","0","0","80071","","568","","","68","0","","","1","0","training","adjacent","GF","7","6","R.jpg","P.jpg","0","0","1","",""
"","feedback","","html-keyboard-response","8","1108959","0.0-1.0-6.0-0.0","0","0","80071","","null","","","null","0","","","","","","","","","","","","","","","",""
"","ITI","","html-keyboard-response","9","1109964","0.0-1.0-9.0","0","0","80071","","null","","","null","0","","","","","","","","","","","","","","","NaN",""
"","S1","","html-keyboard-response","10","1110120","0.0-1.0-11.0","0","0","80071","","null","","","null","1","","","","","","","","","","","","","","","",""
"","ISI","","html-keyboard-response","11","1112125","0.0-1.0-12.0","0","0","80071","","null","","","null","1","NaN","","","","","","","","","","","","","","",""
"","S2","","html-keyboard-response","12","1112279","0.0-1.0-13.0","0","0","80071","","null","","","null","1","","NaN","","","","","","","","","","","","","",""
"","response","","html-keyboard-response","13","1112673","0.0-1.0-14.0-0.0","0","0","80071","","390","","","68","1","","","1","1","training","adjacent","DC","4","3","M.jpg","L.jpg","0","0","1","",""
"","feedback","","html-keyboard-response","14","1113679","0.0-1.0-15.0-0.0","0","0","80071","","null","","","null","1","","","","","","","","","","","","","","","",""
"","ITI","","html-keyboard-response","15","1114682","0.0-1.0-18.0","0","0","80071","","null","","","null","1","","","","","","","","","","","","","","","NaN",""
"","S1","","html-keyboard-response","16","1114838","0.0-1.0-20.0","0","0","80071","","null","","","null","2","","","","","","","","","","","","","","","",""
"","ISI","","html-keyboard-response","17","1116841","0.0-1.0-21.0","0","0","80071","","null","","","null","2","NaN","","","","","","","","","","","","","","",""
"","S2","","html-keyboard-response","18","1116997","0.0-1.0-22.0","0","0","80071","","null","","","null","2","","NaN","","","","","","","","","","","","","",""
"","response","","html-keyboard-response","19","1117410","0.0-1.0-23.0-0.0","0","0","80071","","408","","","75","2","","","1","2","training","adjacent","AB","1","2","Q.jpg","N.jpg","1","1","1","",""
"","feedback","","html-keyboard-response","20","1118414","0.0-1.0-24.0-0.0","0","0","80071","","null","","","null","2","","","","","","","","","","","","","","","",""
"","ITI","","html-keyboard-response","21","1119418","0.0-1.0-27.0","0","0","80071","","null","","","null","2","","","","","","","","","","","","","","","NaN",""
"","S1","","html-keyboard-response","22","1119573","0.0-1.0-29.0","0","0","80071","","null","","","null","3","","","","","","","","","","","","","","","",""
"","ISI","","html-keyboard-response","23","1121577","0.0-1.0-30.0","0","0","80071","","null","","","null","3","NaN","","","","","","","","","","","","","","",""
"","S2","","html-keyboard-response","24","1121731","0.0-1.0-31.0","0","0","80071","","null","","","null","3","","NaN","","","","","","","","","","","","","",""
"","response","","html-keyboard-response","25","1122386","0.0-1.0-32.0-0.0","0","0","80071","","651","","","68","3","","","1","3","training","adjacent","BC","2","3","N.jpg","L.jpg","0","1","0","",""
"","feedback","","html-keyboard-response","26","1123390","0.0-1.0-33.0-0.0","0","0","80071","","null","","","null","3","","","","","","","","","","","","","","","",""
"","time_out","","html-keyboard-response","27","1125394","0.0-1.0-35.0-0.0","0","0","80071","","null","","","null","3","","","","","","","","","","","","","","","",""
"","ITI","","html-keyboard-response","28","1126399","0.0-1.0-36.0","0","0","80071","","null","","","null","3","","","","","","","","","","","","","","","NaN",""
"","S1","","html-keyboard-response","29","1126553","0.0-1.0-38.0","0","0","80071","","null","","","null","4","","","","","","","","","","","","","","","",""
"","ISI","","html-keyboard-response","30","1128558","0.0-1.0-39.0","0","0","80071","","null","","","null","4","NaN","","","","","","","","","","","","","","",""
"","S2","","html-keyboard-response","31","1128712","0.0-1.0-40.0","0","0","80071","","null","","","null","4","","NaN","","","","","","","","","","","","","",""
"","response","","html-keyboard-response","32","1129474","0.0-1.0-41.0-0.0","0","0","80071","","758","","","75","4","","","1","4","training","adjacent","AB","1","2","Q.jpg","N.jpg","1","1","1","",""
"","feedback","","html-keyboard-response","33","1130478","0.0-1.0-42.0-0.0","0","0","80071","","null","","","null","4","","","","","","","","","","","","","","","",""
"","ITI","","html-keyboard-response","34","1131482","0.0-1.0-45.0","0","0","80071","","null","","","null","4","","","","","","","","","","","","","","","NaN",""
"","S1","","html-keyboard-response","35","1131636","0.0-1.0-47.0","0","0","80071","","null","","","null","5","","","","","","","","","","","","","","","",""
"","ISI","","html-keyboard-response","36","1133641","0.0-1.0-48.0","0","0","80071","","null","","","null","5","NaN","","","","","","","","","","","","","","",""
"","S2","","html-keyboard-response","37","1133795","0.0-1.0-49.0","0","0","80071","","null","","","null","5","","NaN","","","","","","","","","","","","","",""
"","response","","html-keyboard-response","38","1134401","0.0-1.0-50.0-0.0","0","0","80071","","602","","","68","5","","","1","5","training","adjacent","CB","3","2","L.jpg","N.jpg","0","0","1","",""
"","feedback","","html-keyboard-response","39","1135406","0.0-1.0-51.0-0.0","0","0","80071","","null","","","null","5","","","","","","","","","","","","","","","",""
"","ITI","","html-keyboard-response","40","1136410","0.0-1.0-54.0","0","0","80071","","null","","","null","5","","","","","","","","","","","","","","","NaN",""
"","S1","","html-keyboard-response","41","1136564","0.0-1.0-56.0","0","0","80071","","null","","","null","6","","","","","","","","","","","","","","","",""
"","ISI","","html-keyboard-response","42","1138568","0.0-1.0-57.0","0","0","80071","","null","","","null","6","NaN","","","","","","","","","","","","","","",""
"","S2","","html-keyboard-response","43","1138722","0.0-1.0-58.0","0","0","80071","","null","","","null","6","","NaN","","","","","","","","","","","","","",""
"","response","","html-keyboard-response","44","1139505","0.0-1.0-59.0-0.0","0","0","80071","","779","","","75","6","","","1","6","training","adjacent","GF","7","6","R.jpg","P.jpg","1","0","0","",""
"","feedback","","html-keyboard-response","45","1140510","0.0-1.0-60.0-0.0","0","0","80071","","null","","","null","6","","","","","","","","","","","","","","","",""
"","time_out","","html-keyboard-response","46","1142514","0.0-1.0-62.0-0.0","0","0","80071","","null","","","null","6","","","","","","","","","","","","","","","",""
"","ITI","","html-keyboard-response","47","1143519","0.0-1.0-63.0","0","0","80071","","null","","","null","6","","","","","","","","","","","","","","","NaN",""
"","S1","","html-keyboard-response","48","1143672","0.0-1.0-65.0","0","0","80071","","null","","","null","7","","","","","","","","","","","","","","","",""
"","ISI","","html-keyboard-response","49","1145677","0.0-1.0-66.0","0","0","80071","","null","","","null","7","NaN","","","","","","","","","","","","","","",""
"","S2","","html-keyboard-response","50","1145831","0.0-1.0-67.0","0","0","80071","","null","","","null","7","","NaN","","","","","","","","","","","","","",""
"","response","","html-keyboard-response","51","1146697","0.0-1.0-68.0-0.0","0","0","80071","","863","","","68","7","","","1","7","training","adjacent","DE","4","5","M.jpg","O.jpg","0","1","0","",""
"","feedback","","html-keyboard-response","52","1147701","0.0-1.0-69.0-0.0","0","0","80071","","null","","","null","7","","","","","","","","","","","","","","","",""
"","time_out","","html-keyboard-response","53","1149705","0.0-1.0-71.0-0.0","0","0","80071","","null","","","null","7","","","","","","","","","","","","","","","",""
"","ITI","","html-keyboard-response","54","1150709","0.0-1.0-72.0","0","0","80071","","null","","","null","7","","","","","","","","","","","","","","","NaN",""
"","S1","","html-keyboard-response","55","1150864","0.0-1.0-74.0","0","0","80071","","null","","","null","8","","","","","","","","","","","","","","","",""
"","ISI","","html-keyboard-response","56","1152868","0.0-1.0-75.0","0","0","80071","","null","","","null","8","NaN","","","","","","","","","","","","","","",""
"","S2","","html-keyboard-response","57","1153022","0.0-1.0-76.0","0","0","80071","","null","","","null","8","","NaN","","","","","","","","","","","","","",""
"","response","","html-keyboard-response","58","1153720","0.0-1.0-77.0-0.0","0","0","80071","","695","","","75","8","","","1","8","training","adjacent","BA","2","1","N.jpg","Q.jpg","1","0","0","",""
"","feedback","","html-keyboard-response","59","1154725","0.0-1.0-78.0-0.0","0","0","80071","","null","","","null","8","","","","","","","","","","","","","","","",""
"","time_out","","html-keyboard-response","60","1156729","0.0-1.0-80.0-0.0","0","0","80071","","null","","","null","8","","","","","","","","","","","","","","","",""
"","ITI","","html-keyboard-response","61","1157734","0.0-1.0-81.0","0","0","80071","","null","","","null","8","","","","","","","","","","","","","","","NaN",""
"","S1","","html-keyboard-response","62","1157888","0.0-1.0-83.0","0","0","80071","","null","","","null","9","","","","","","","","","","","","","","","",""
"","ISI","","html-keyboard-response","63","1159892","0.0-1.0-84.0","0","0","80071","","null","","","null","9","NaN","","","","","","","","","","","","","","",""
"","S2","","html-keyboard-response","64","1160047","0.0-1.0-85.0","0","0","80071","","null","","","null","9","","NaN","","","","","","","","","","","","","",""
"","response","","html-keyboard-response","65","1160921","0.0-1.0-86.0-0.0","0","0","80071","","870","","","68","9","","","1","9","training","adjacent","DC","4","3","M.jpg","L.jpg","0","0","1","",""
"","feedback","","html-keyboard-response","66","1161926","0.0-1.0-87.0-0.0","0","0","80071","","null","","","null","9","","","","","","","","","","","","","","","",""
"","ITI","","html-keyboard-response","67","1162930","0.0-1.0-90.0","0","0","80071","","null","","","null","9","","","","","","","","","","","","","","","NaN",""
"","S1","","html-keyboard-response","68","1163085","0.0-1.0-92.0","0","0","80071","","null","","","null","10","","","","","","","","","","","","","","","",""
"","ISI","","html-keyboard-response","69","1165088","0.0-1.0-93.0","0","0","80071","","null","","","null","10","NaN","","","","","","","","","","","","","","",""
"","S2","","html-keyboard-response","70","1165242","0.0-1.0-94.0","0","0","80071","","null","","","null","10","","NaN","","","","","","","","","","","","","",""
"","response","","html-keyboard-response","71","1166569","0.0-1.0-95.0-0.0","0","0","80071","","1323","","","75","10","","","1","10","training","adjacent","EF","5","6","O.jpg","P.jpg","1","1","1","",""
"","feedback","","html-keyboard-response","72","1167574","0.0-1.0-96.0-0.0","0","0","80071","","null","","","null","10","","","","","","","","","","","","","","","",""
"","ITI","","html-keyboard-response","73","1168577","0.0-1.0-99.0","0","0","80071","","null","","","null","10","","","","","","","","","","","","","","","NaN",""
"","S1","","html-keyboard-response","74","1168733","0.0-1.0-101.0","0","0","80071","","null","","","null","11","","","","","","","","","","","","","","","",""
"","ISI","","html-keyboard-response","75","1170737","0.0-1.0-102.0","0","0","80071","","null","","","null","11","NaN","","","","","","","","","","","","","","",""
"","S2","","html-keyboard-response","76","1170891","0.0-1.0-103.0","0","0","80071","","null","","","null","11","","NaN","","","","","","","","","","","","","",""
"","response","","html-keyboard-response","77","1171657","0.0-1.0-104.0-0.0","0","0","80071","","761","","","68","11","","","1","11","training","adjacent","DE","4","5","M.jpg","O.jpg","0","1","0","",""
"","feedback","","html-keyboard-response","78","1172661","0.0-1.0-105.0-0.0","0","0","80071","","null","","","null","11","","","","","","","","","","","","","","","",""
"","time_out","","html-keyboard-response","79","1174665","0.0-1.0-107.0-0.0","0","0","80071","","null","","","null","11","","","","","","","","","","","","","","","",""
"","ITI","","html-keyboard-response","80","1175670","0.0-1.0-108.0","0","0","80071","","null","","","null","11","","","","","","","","","","","","","","","NaN",""
"","S1","","html-keyboard-response","81","1175824","0.0-1.0-110.0","0","0","80071","","null","","","null","12","","","","","","","","","","","","","","","",""
"","ISI","","html-keyboard-response","82","1177827","0.0-1.0-111.0","0","0","80071","","null","","","null","12","NaN","","","","","","","","","","","","","","",""
"","S2","","html-keyboard-response","83","1177982","0.0-1.0-112.0","0","0","80071","","null","","","null","12","","NaN","","","","","","","","","","","","","",""
"","response","","html-keyboard-response","84","1178456","0.0-1.0-113.0-0.0","0","0","80071","","470","","","68","12","","","1","12","training","adjacent","BA","2","1","N.jpg","Q.jpg","0","0","1","",""
"","feedback","","html-keyboard-response","85","1179461","0.0-1.0-114.0-0.0","0","0","80071","","null","","","null","12","","","","","","","","","","","","","","","",""
"","ITI","","html-keyboard-response","86","1180465","0.0-1.0-117.0","0","0","80071","","null","","","null","12","","","","","","","","","","","","","","","NaN",""
"","S1","","html-keyboard-response","87","1180619","0.0-1.0-119.0","0","0","80071","","null","","","null","13","","","","","","","","","","","","","","","",""
"","ISI","","html-keyboard-response","88","1182623","0.0-1.0-120.0","0","0","80071","","null","","","null","13","NaN","","","","","","","","","","","","","","",""
"","S2","","html-keyboard-response","89","1182778","0.0-1.0-121.0","0","0","80071","","null","","","null","13","","NaN","","","","","","","","","","","","","",""
"","response","","html-keyboard-response","90","1183497","0.0-1.0-122.0-0.0","0","0","80071","","715","","","68","13","","","1","13","training","adjacent","GF","7","6","R.jpg","P.jpg","0","0","1","",""
"","feedback","","html-keyboard-response","91","1184501","0.0-1.0-123.0-0.0","0","0","80071","","null","","","null","13","","","","","","","","","","","","","","","",""
"","ITI","","html-keyboard-response","92","1185505","0.0-1.0-126.0","0","0","80071","","null","","","null","13","","","","","","","","","","","","","","","NaN",""
"","S1","","html-keyboard-response","93","1185660","0.0-1.0-128.0","0","0","80071","","null","","","null","14","","","","","","","","","","","","","","","",""
"","ISI","","html-keyboard-response","94","1187664","0.0-1.0-129.0","0","0","80071","","null","","","null","14","NaN","","","","","","","","","","","","","","",""
"","S2","","html-keyboard-response","95","1187819","0.0-1.0-130.0","0","0","80071","","null","","","null","14","","NaN","","","","","","","","","","","","","",""
"","response","","html-keyboard-response","96","1188448","0.0-1.0-131.0-0.0","0","0","80071","","624","","","75","14","","","1","14","training","adjacent","CD","3","4","L.jpg","M.jpg","1","1","1","",""
"","feedback","","html-keyboard-response","97","1189452","0.0-1.0-132.0-0.0","0","0","80071","","null","","","null","14","","","","","","","","","","","","","","","",""
"","ITI","","html-keyboard-response","98","1190457","0.0-1.0-135.0","0","0","80071","","null","","","null","14","","","","","","","","","","","","","","","NaN",""
"","S1","","html-keyboard-response","99","1190611","0.0-1.0-137.0","0","0","80071","","null","","","null","15","","","","","","","","","","","","","","","",""
"","ISI","","html-keyboard-response","100","1192614","0.0-1.0-138.0","0","0","80071","","null","","","null","15","NaN","","","","","","","","","","","","","","",""
"","S2","","html-keyboard-response","101","1192769","0.0-1.0-139.0","0","0","80071","","null","","","null","15","","NaN","","","","","","","","","","","","","",""
"","response","","html-keyboard-response","102","1193408","0.0-1.0-140.0-0.0","0","0","80071","","634","","","68","15","","","1","15","training","adjacent","BC","2","3","N.jpg","L.jpg","0","1","0","",""
"","feedback","","html-keyboard-response","103","1194413","0.0-1.0-141.0-0.0","0","0","80071","","null","","","null","15","","","","","","","","","","","","","","","",""
"","time_out","","html-keyboard-response","104","1196417","0.0-1.0-143.0-0.0","0","0","80071","","null","","","null","15","","","","","","","","","","","","","","","",""
"","ITI","","html-keyboard-response","105","1197420","0.0-1.0-144.0","0","0","80071","","null","","","null","15","","","","","","","","","","","","","","","NaN",""
"","S1","","html-keyboard-response","106","1197575","0.0-1.0-146.0","0","0","80071","","null","","","null","16","","","","","","","","","","","","","","","",""
"","ISI","","html-keyboard-response","107","1199579","0.0-1.0-147.0","0","0","80071","","null","","","null","16","NaN","","","","","","","","","","","","","","",""
"","S2","","html-keyboard-response","108","1199734","0.0-1.0-148.0","0","0","80071","","null","","","null","16","","NaN","","","","","","","","","","","","","",""
"","response","","html-keyboard-response","109","1200224","0.0-1.0-149.0-0.0","0","0","80071","","486","","","68","16","","","1","16","training","adjacent","FG","6","7","P.jpg","R.jpg","0","1","0","",""
"","feedback","","html-keyboard-response","110","1201229","0.0-1.0-150.0-0.0","0","0","80071","","null","","","null","16","","","","","","","","","","","","","","","",""
"","time_out","","html-keyboard-response","111","1203233","0.0-1.0-152.0-0.0","0","0","80071","","null","","","null","16","","","","","","","","","","","","","","","",""
"","ITI","","html-keyboard-response","112","1204238","0.0-1.0-153.0","0","0","80071","","null","","","null","16","","","","","","","","","","","","","","","NaN",""
"","S1","","html-keyboard-response","113","1204393","0.0-1.0-155.0","0","0","80071","","null","","","null","17","","","","","","","","","","","","","","","",""
"","ISI","","html-keyboard-response","114","1206397","0.0-1.0-156.0","0","0","80071","","null","","","null","17","NaN","","","","","","","","","","","","","","",""
"","S2","","html-keyboard-response","115","1206552","0.0-1.0-157.0","0","0","80071","","null","","","null","17","","NaN","","","","","","","","","","","","","",""
"","response","","html-keyboard-response","116","1207088","0.0-1.0-158.0-0.0","0","0","80071","","533","","","75","17","","","1","17","training","adjacent","GF","7","6","R.jpg","P.jpg","1","0","0","",""
"","feedback","","html-keyboard-response","117","1208093","0.0-1.0-159.0-0.0","0","0","80071","","null","","","null","17","","","","","","","","","","","","","","","",""
"","time_out","","html-keyboard-response","118","1210098","0.0-1.0-161.0-0.0","0","0","80071","","null","","","null","17","","","","","","","","","","","","","","","",""
"","ITI","","html-keyboard-response","119","1211101","0.0-1.0-162.0","0","0","80071","","null","","","null","17","","","","","","","","","","","","","","","NaN",""
"","S1","","html-keyboard-response","120","1211256","0.0-1.0-164.0","0","0","80071","","null","","","null","18","","","","","","","","","","","","","","","",""
"","ISI","","html-keyboard-response","121","1213260","0.0-1.0-165.0","0","0","80071","","null","","","null","18","NaN","","","","","","","","","","","","","","",""
"","S2","","html-keyboard-response","122","1213415","0.0-1.0-166.0","0","0","80071","","null","","","null","18","","NaN","","","","","","","","","","","","","",""
"","response","","html-keyboard-response","123","1213935","0.0-1.0-167.0-0.0","0","0","80071","","518","","","68","18","","","1","18","training","adjacent","ED","5","4","O.jpg","M.jpg","0","0","1","",""
"","feedback","","html-keyboard-response","124","1214940","0.0-1.0-168.0-0.0","0","0","80071","","null","","","null","18","","","","","","","","","","","","","","","",""
"","ITI","","html-keyboard-response","125","1215943","0.0-1.0-171.0","0","0","80071","","null","","","null","18","","","","","","","","","","","","","","","NaN",""
"","S1","","html-keyboard-response","126","1216098","0.0-1.0-173.0","0","0","80071","","null","","","null","19","","","","","","","","","","","","","","","",""
"","ISI","","html-keyboard-response","127","1218103","0.0-1.0-174.0","0","0","80071","","null","","","null","19","NaN","","","","","","","","","","","","","","",""
"","S2","","html-keyboard-response","128","1218258","0.0-1.0-175.0","0","0","80071","","null","","","null","19","","NaN","","","","","","","","","","","","","",""
"","response","","html-keyboard-response","129","1218928","0.0-1.0-176.0-0.0","0","0","80071","","667","","","75","19","","","1","19","training","adjacent","FG","6","7","P.jpg","R.jpg","1","1","1","",""
"","feedback","","html-keyboard-response","130","1219932","0.0-1.0-177.0-0.0","0","0","80071","","null","","","null","19","","","","","","","","","","","","","","","",""
"","ITI","","html-keyboard-response","131","1220937","0.0-1.0-180.0","0","0","80071","","null","","","null","19","","","","","","","","","","","","","","","NaN",""
"","S1","","html-keyboard-response","132","1221091","0.0-1.0-182.0","0","0","80071","","null","","","null","20","","","","","","","","","","","","","","","",""
"","ISI","","html-keyboard-response","133","1223095","0.0-1.0-183.0","0","0","80071","","null","","","null","20","NaN","","","","","","","","","","","","","","",""
"","S2","","html-keyboard-response","134","1223249","0.0-1.0-184.0","0","0","80071","","null","","","null","20","","NaN","","","","","","","","","","","","","",""
"","response","","html-keyboard-response","135","1224056","0.0-1.0-185.0-0.0","0","0","80071","","803","","","68","20","","","1","20","training","adjacent","CB","3","2","L.jpg","N.jpg","0","0","1","",""
"","feedback","","html-keyboard-response","136","1225060","0.0-1.0-186.0-0.0","0","0","80071","","null","","","null","20","","","","","","","","","","","","","","","",""
"","ITI","","html-keyboard-response","137","1226065","0.0-1.0-189.0","0","0","80071","","null","","","null","20","","","","","","","","","","","","","","","NaN",""
"","S1","","html-keyboard-response","138","1226219","0.0-1.0-191.0","0","0","80071","","null","","","null","21","","","","","","","","","","","","","","","",""
"","ISI","","html-keyboard-response","139","1228223","0.0-1.0-192.0","0","0","80071","","null","","","null","21","NaN","","","","","","","","","","","","","","",""
"","S2","","html-keyboard-response","140","1228379","0.0-1.0-193.0","0","0","80071","","null","","","null","21","","NaN","","","","","","","","","","","","","",""
"","response","","html-keyboard-response","141","1228744","0.0-1.0-194.0-0.0","0","0","80071","","361","","","75","21","","","1","21","training","adjacent","DC","4","3","M.jpg","L.jpg","1","0","0","",""
"","feedback","","html-keyboard-response","142","1229748","0.0-1.0-195.0-0.0","0","0","80071","","null","","","null","21","","","","","","","","","","","","","","","",""
"","time_out","","html-keyboard-response","143","1231752","0.0-1.0-197.0-0.0","0","0","80071","","null","","","null","21","","","","","","","","","","","","","","","",""
"","ITI","","html-keyboard-response","144","1232757","0.0-1.0-198.0","0","0","80071","","null","","","null","21","","","","","","","","","","","","","","","NaN",""
"","S1","","html-keyboard-response","145","1232910","0.0-1.0-200.0","0","0","80071","","null","","","null","22","","","","","","","","","","","","","","","",""
"","ISI","","html-keyboard-response","146","1234915","0.0-1.0-201.0","0","0","80071","","null","","","null","22","NaN","","","","","","","","","","","","","","",""
"","S2","","html-keyboard-response","147","1235068","0.0-1.0-202.0","0","0","80071","","null","","","null","22","","NaN","","","","","","","","","","","","","",""
"","response","","html-keyboard-response","148","1235560","0.0-1.0-203.0-0.0","0","0","80071","","487","","","68","22","","","1","22","training","adjacent","EF","5","6","O.jpg","P.jpg","0","1","0","",""
"","feedback","","html-keyboard-response","149","1236564","0.0-1.0-204.0-0.0","0","0","80071","","null","","","null","22","","","","","","","","","","","","","","","",""
"","time_out","","html-keyboard-response","150","1238568","0.0-1.0-206.0-0.0","0","0","80071","","null","","","null","22","","","","","","","","","","","","","","","",""
"","ITI","","html-keyboard-response","151","1239572","0.0-1.0-207.0","0","0","80071","","null","","","null","22","","","","","","","","","","","","","","","NaN",""
"","S1","","html-keyboard-response","152","1239726","0.0-1.0-209.0","0","0","80071","","null","","","null","23","","","","","","","","","","","","","","","",""
"","ISI","","html-keyboard-response","153","1241731","0.0-1.0-210.0","0","0","80071","","1749","","","75","23","k","","","","","","","","","","","","","","",""
"","S2","","html-keyboard-response","154","1241886","0.0-1.0-211.0","0","0","80071","","null","","","null","23","","NaN","","","","","","","","","","","","","",""
"","response","","html-keyboard-response","155","1242056","0.0-1.0-212.0-0.0","0","0","80071","","166","","","75","23","","","1","23","training","adjacent","CB","3","2","L.jpg","N.jpg","1","0","0","",""
"","feedback","","html-keyboard-response","156","1243060","0.0-1.0-213.0-0.0","0","0","80071","","null","","","null","23","","","","","","","","","","","","","","","",""
"","time_out","","html-keyboard-response","157","1245065","0.0-1.0-215.0-0.0","0","0","80071","","null","","","null","23","","","","","","","","","","","","","","","",""
"","ITI","","html-keyboard-response","158","1246069","0.0-1.0-216.0","0","0","80071","","null","","","null","23","","","","","","","","","","","","","","","NaN",""
"","S1","","html-keyboard-response","159","1246224","0.0-1.0-218.0","0","0","80071","","null","","","null","24","","","","","","","","","","","","","","","",""
"","ISI","","html-keyboard-response","160","1248227","0.0-1.0-219.0","0","0","80071","","null","","","null","24","NaN","","","","","","","","","","","","","","",""
"","S2","","html-keyboard-response","161","1248383","0.0-1.0-220.0","0","0","80071","","null","","","null","24","","NaN","","","","","","","","","","","","","",""
"","response","","html-keyboard-response","162","1249064","0.0-1.0-221.0-0.0","0","0","80071","","677","","","75","24","","","1","24","training","adjacent","FE","6","5","P.jpg","O.jpg","1","0","0","",""
"","feedback","","html-keyboard-response","163","1250068","0.0-1.0-222.0-0.0","0","0","80071","","null","","","null","24","","","","","","","","","","","","","","","",""
"","time_out","","html-keyboard-response","164","1252073","0.0-1.0-224.0-0.0","0","0","80071","","null","","","null","24","","","","","","","","","","","","","","","",""
"","ITI","","html-keyboard-response","165","1253077","0.0-1.0-225.0","0","0","80071","","null","","","null","24","","","","","","","","","","","","","","","NaN",""
"","S1","","html-keyboard-response","166","1253232","0.0-1.0-227.0","0","0","80071","","null","","","null","25","","","","","","","","","","","","","","","",""
"","ISI","","html-keyboard-response","167","1255236","0.0-1.0-228.0","0","0","80071","","null","","","null","25","NaN","","","","","","","","","","","","","","",""
"","S2","","html-keyboard-response","168","1255390","0.0-1.0-229.0","0","0","80071","","null","","","null","25","","NaN","","","","","","","","","","","","","",""
"","response","","html-keyboard-response","169","1256103","0.0-1.0-230.0-0.0","0","0","80071","","709","","","75","25","","","1","25","training","adjacent","EF","5","6","O.jpg","P.jpg","1","1","1","",""
"","feedback","","html-keyboard-response","170","1257108","0.0-1.0-231.0-0.0","0","0","80071","","null","","","null","25","","","","","","","","","","","","","","","",""
"","ITI","","html-keyboard-response","171","1258112","0.0-1.0-234.0","0","0","80071","","null","","","null","25","","","","","","","","","","","","","","","NaN",""
"","S1","","html-keyboard-response","172","1258266","0.0-1.0-236.0","0","0","80071","","null","","","null","26","","","","","","","","","","","","","","","",""
"","ISI","","html-keyboard-response","173","1260271","0.0-1.0-237.0","0","0","80071","","null","","","null","26","NaN","","","","","","","","","","","","","","",""
"","S2","","html-keyboard-response","174","1260426","0.0-1.0-238.0","0","0","80071","","null","","","null","26","","NaN","","","","","","","","","","","","","",""
"","response","","html-keyboard-response","175","1261015","0.0-1.0-239.0-0.0","0","0","80071","","586","","","75","26","","","1","26","training","adjacent","ED","5","4","O.jpg","M.jpg","1","0","0","",""
"","feedback","","html-keyboard-response","176","1262019","0.0-1.0-240.0-0.0","0","0","80071","","null","","","null","26","","","","","","","","","","","","","","","",""
"","time_out","","html-keyboard-response","177","1264023","0.0-1.0-242.0-0.0","0","0","80071","","null","","","null","26","","","","","","","","","","","","","","","",""
"","ITI","","html-keyboard-response","178","1265027","0.0-1.0-243.0","0","0","80071","","null","","","null","26","","","","","","","","","","","","","","","NaN",""
"","S1","","html-keyboard-response","179","1265182","0.0-1.0-245.0","0","0","80071","","null","","","null","27","","","","","","","","","","","","","","","",""
"","ISI","","html-keyboard-response","180","1267188","0.0-1.0-246.0","0","0","80071","","null","","","null","27","NaN","","","","","","","","","","","","","","",""
"","S2","","html-keyboard-response","181","1267342","0.0-1.0-247.0","0","0","80071","","null","","","null","27","","NaN","","","","","","","","","","","","","",""
"","response","","html-keyboard-response","182","1268273","0.0-1.0-248.0-0.0","0","0","80071","","926","","","68","27","","","1","27","training","adjacent","FE","6","5","P.jpg","O.jpg","0","0","1","",""
"","feedback","","html-keyboard-response","183","1269278","0.0-1.0-249.0-0.0","0","0","80071","","null","","","null","27","","","","","","","","","","","","","","","",""
"","ITI","","html-keyboard-response","184","1270283","0.0-1.0-252.0","0","0","80071","","null","","","null","27","","","","","","","","","","","","","","","NaN",""
"","S1","","html-keyboard-response","185","1270437","0.0-1.0-254.0","0","0","80071","","null","","","null","28","","","","","","","","","","","","","","","",""
"","ISI","","html-keyboard-response","186","1272441","0.0-1.0-255.0","0","0","80071","","null","","","null","28","NaN","","","","","","","","","","","","","","",""
"","S2","","html-keyboard-response","187","1272596","0.0-1.0-256.0","0","0","80071","","null","","","null","28","","NaN","","","","","","","","","","","","","",""
"","response","","html-keyboard-response","188","1273135","0.0-1.0-257.0-0.0","0","0","80071","","536","","","68","28","","","1","28","training","adjacent","ED","5","4","O.jpg","M.jpg","0","0","1","",""
"","feedback","","html-keyboard-response","189","1274139","0.0-1.0-258.0-0.0","0","0","80071","","null","","","null","28","","","","","","","","","","","","","","","",""
"","ITI","","html-keyboard-response","190","1275144","0.0-1.0-261.0","0","0","80071","","null","","","null","28","","","","","","","","","","","","","","","NaN",""
"","S1","","html-keyboard-response","191","1275299","0.0-1.0-263.0","0","0","80071","","null","","","null","29","","","","","","","","","","","","","","","",""
"","ISI","","html-keyboard-response","192","1277302","0.0-1.0-264.0","0","0","80071","","null","","","null","29","NaN","","","","","","","","","","","","","","",""
"","S2","","html-keyboard-response","193","1277457","0.0-1.0-265.0","0","0","80071","","null","","","null","29","","NaN","","","","","","","","","","","","","",""
"","response","","html-keyboard-response","194","1278111","0.0-1.0-266.0-0.0","0","0","80071","","651","","","75","29","","","1","29","training","adjacent","ED","5","4","O.jpg","M.jpg","1","0","0","",""
"","feedback","","html-keyboard-response","195","1279116","0.0-1.0-267.0-0.0","0","0","80071","","null","","","null","29","","","","","","","","","","","","","","","",""
"","time_out","","html-keyboard-response","196","1281120","0.0-1.0-269.0-0.0","0","0","80071","","null","","","null","29","","","","","","","","","","","","","","","",""
"","ITI","","html-keyboard-response","197","1282124","0.0-1.0-270.0","0","0","80071","","null","","","null","29","","","","","","","","","","","","","","","NaN",""
"","S1","","html-keyboard-response","198","1282279","0.0-1.0-272.0","0","0","80071","","null","","","null","30","","","","","","","","","","","","","","","",""
"","ISI","","html-keyboard-response","199","1284283","0.0-1.0-273.0","0","0","80071","","null","","","null","30","NaN","","","","","","","","","","","","","","",""
"","S2","","html-keyboard-response","200","1284438","0.0-1.0-274.0","0","0","80071","","null","","","null","30","","NaN","","","","","","","","","","","","","",""
"","response","","html-keyboard-response","201","1284815","0.0-1.0-275.0-0.0","0","0","80071","","373","","","75","30","","","1","30","training","adjacent","FG","6","7","P.jpg","R.jpg","1","1","1","",""
"","feedback","","html-keyboard-response","202","1285819","0.0-1.0-276.0-0.0","0","0","80071","","null","","","null","30","","","","","","","","","","","","","","","",""
"","ITI","","html-keyboard-response","203","1286823","0.0-1.0-279.0","0","0","80071","","null","","","null","30","","","","","","","","","","","","","","","NaN",""
"","S1","","html-keyboard-response","204","1286977","0.0-1.0-281.0","0","0","80071","","null","","","null","31","","","","","","","","","","","","","","","",""
"","ISI","","html-keyboard-response","205","1288981","0.0-1.0-282.0","0","0","80071","","null","","","null","31","NaN","","","","","","","","","","","","","","",""
"","S2","","html-keyboard-response","206","1289136","0.0-1.0-283.0","0","0","80071","","null","","","null","31","","NaN","","","","","","","","","","","","","",""
"","response","","html-keyboard-response","207","1289454","0.0-1.0-284.0-0.0","0","0","80071","","315","","","75","31","","","1","31","training","adjacent","CD","3","4","L.jpg","M.jpg","1","1","1","",""
"","feedback","","html-keyboard-response","208","1290460","0.0-1.0-285.0-0.0","0","0","80071","","null","","","null","31","","","","","","","","","","","","","","","",""
"","ITI","","html-keyboard-response","209","1291464","0.0-1.0-288.0","0","0","80071","","null","","","null","31","","","","","","","","","","","","","","","NaN",""
"","S1","","html-keyboard-response","210","1291619","0.0-1.0-290.0","0","0","80071","","null","","","null","32","","","","","","","","","","","","","","","",""
"","ISI","","html-keyboard-response","211","1293623","0.0-1.0-291.0","0","0","80071","","null","","","null","32","NaN","","","","","","","","","","","","","","",""
"","S2","","html-keyboard-response","212","1293777","0.0-1.0-292.0","0","0","80071","","null","","","null","32","","NaN","","","","","","","","","","","","","",""
"","response","","html-keyboard-response","213","1294319","0.0-1.0-293.0-0.0","0","0","80071","","537","","","68","32","","","1","32","training","adjacent","FE","6","5","P.jpg","O.jpg","0","0","1","",""
"","feedback","","html-keyboard-response","214","1295323","0.0-1.0-294.0-0.0","0","0","80071","","null","","","null","32","","","","","","","","","","","","","","","",""
"","ITI","","html-keyboard-response","215","1296328","0.0-1.0-297.0","0","0","80071","","null","","","null","32","","","","","","","","","","","","","","","NaN",""
"","S1","","html-keyboard-response","216","1296481","0.0-1.0-299.0","0","0","80071","","null","","","null","33","","","","","","","","","","","","","","","",""
"","ISI","","html-keyboard-response","217","1298485","0.0-1.0-300.0","0","0","80071","","null","","","null","33","NaN","","","","","","","","","","","","","","",""
"","S2","","html-keyboard-response","218","1298640","0.0-1.0-301.0","0","0","80071","","null","","","null","33","","NaN","","","","","","","","","","","","","",""
"","response","","html-keyboard-response","219","1299470","0.0-1.0-302.0-0.0","0","0","80071","","827","","","68","33","","","1","33","training","adjacent","BC","2","3","N.jpg","L.jpg","0","1","0","",""
"","feedback","","html-keyboard-response","220","1300476","0.0-1.0-303.0-0.0","0","0","80071","","null","","","null","33","","","","","","","","","","","","","","","",""
"","time_out","","html-keyboard-response","221","1302479","0.0-1.0-305.0-0.0","0","0","80071","","null","","","null","33","","","","","","","","","","","","","","","",""
"","ITI","","html-keyboard-response","222","1303484","0.0-1.0-306.0","0","0","80071","","null","","","null","33","","","","","","","","","","","","","","","NaN",""
"","S1","","html-keyboard-response","223","1303638","0.0-1.0-308.0","0","0","80071","","null","","","null","34","","","","","","","","","","","","","","","",""
"","ISI","","html-keyboard-response","224","1305642","0.0-1.0-309.0","0","0","80071","","null","","","null","34","NaN","","","","","","","","","","","","","","",""
"","S2","","html-keyboard-response","225","1305797","0.0-1.0-310.0","0","0","80071","","null","","","null","34","","NaN","","","","","","","","","","","","","",""
"","response","","html-keyboard-response","226","1306839","0.0-1.0-311.0-0.0","0","0","80071","","1038","","","68","34","","","1","34","training","adjacent","EF","5","6","O.jpg","P.jpg","0","1","0","",""
"","feedback","","html-keyboard-response","227","1307843","0.0-1.0-312.0-0.0","0","0","80071","","null","","","null","34","","","","","","","","","","","","","","","",""
"","time_out","","html-keyboard-response","228","1309847","0.0-1.0-314.0-0.0","0","0","80071","","null","","","null","34","","","","","","","","","","","","","","","",""
"","ITI","","html-keyboard-response","229","1310852","0.0-1.0-315.0","0","0","80071","","null","","","null","34","","","","","","","","","","","","","","","NaN",""
"","S1","","html-keyboard-response","230","1311007","0.0-1.0-317.0","0","0","80071","","null","","","null","35","","","","","","","","","","","","","","","",""
"","ISI","","html-keyboard-response","231","1313011","0.0-1.0-318.0","0","0","80071","","null","","","null","35","NaN","","","","","","","","","","","","","","",""
"","S2","","html-keyboard-response","232","1313165","0.0-1.0-319.0","0","0","80071","","null","","","null","35","","NaN","","","","","","","","","","","","","",""
"","response","","html-keyboard-response","233","1313606","0.0-1.0-320.0-0.0","0","0","80071","","436","","","75","35","","","1","35","training","adjacent","BC","2","3","N.jpg","L.jpg","1","1","1","",""
"","feedback","","html-keyboard-response","234","1314611","0.0-1.0-321.0-0.0","0","0","80071","","null","","","null","35","","","","","","","","","","","","","","","",""
"","ITI","","html-keyboard-response","235","1315615","0.0-1.0-324.0","0","0","80071","","null","","","null","35","","","","","","","","","","","","","","","NaN",""
"","S1","","html-keyboard-response","236","1315770","0.0-1.0-326.0","0","0","80071","","null","","","null","36","","","","","","","","","","","","","","","",""
"","ISI","","html-keyboard-response","237","1317773","0.0-1.0-327.0","0","0","80071","","null","","","null","36","NaN","","","","","","","","","","","","","","",""
"","S2","","html-keyboard-response","238","1317927","0.0-1.0-328.0","0","0","80071","","null","","","null","36","","NaN","","","","","","","","","","","","","",""
"","response","","html-keyboard-response","239","1318294","0.0-1.0-329.0-0.0","0","0","80071","","363","","","68","36","","","1","36","training","adjacent","DE","4","5","M.jpg","O.jpg","0","1","0","",""
"","feedback","","html-keyboard-response","240","1319299","0.0-1.0-330.0-0.0","0","0","80071","","null","","","null","36","","","","","","","","","","","","","","","",""
"","time_out","","html-keyboard-response","241","1321303","0.0-1.0-332.0-0.0","0","0","80071","","null","","","null","36","","","","","","","","","","","","","","","",""
"","ITI","","html-keyboard-response","242","1322307","0.0-1.0-333.0","0","0","80071","","null","","","null","36","","","","","","","","","","","","","","","NaN",""
"","S1","","html-keyboard-response","243","1322461","0.0-1.0-335.0","0","0","80071","","null","","","null","37","","","","","","","","","","","","","","","",""
"","ISI","","html-keyboard-response","244","1324465","0.0-1.0-336.0","0","0","80071","","null","","","null","37","NaN","","","","","","","","","","","","","","",""
"","S2","","html-keyboard-response","245","1324619","0.0-1.0-337.0","0","0","80071","","null","","","null","37","","NaN","","","","","","","","","","","","","",""
"","response","","html-keyboard-response","246","1325030","0.0-1.0-338.0-0.0","0","0","80071","","408","","","75","37","","","1","37","training","adjacent","BA","2","1","N.jpg","Q.jpg","1","0","0","",""
"","feedback","","html-keyboard-response","247","1326035","0.0-1.0-339.0-0.0","0","0","80071","","null","","","null","37","","","","","","","","","","","","","","","",""
"","time_out","","html-keyboard-response","248","1328040","0.0-1.0-341.0-0.0","0","0","80071","","null","","","null","37","","","","","","","","","","","","","","","",""
"","ITI","","html-keyboard-response","249","1329044","0.0-1.0-342.0","0","0","80071","","null","","","null","37","","","","","","","","","","","","","","","NaN",""
"","S1","","html-keyboard-response","250","1329198","0.0-1.0-344.0","0","0","80071","","null","","","null","38","","","","","","","","","","","","","","","",""
"","ISI","","html-keyboard-response","251","1331203","0.0-1.0-345.0","0","0","80071","","null","","","null","38","NaN","","","","","","","","","","","","","","",""
"","S2","","html-keyboard-response","252","1331357","0.0-1.0-346.0","0","0","80071","","null","","","null","38","","NaN","","","","","","","","","","","","","",""
"","response","","html-keyboard-response","253","1331894","0.0-1.0-347.0-0.0","0","0","80071","","534","","","75","38","","","1","38","training","adjacent","CD","3","4","L.jpg","M.jpg","1","1","1","",""
"","feedback","","html-keyboard-response","254","1332900","0.0-1.0-348.0-0.0","0","0","80071","","null","","","null","38","","","","","","","","","","","","","","","",""
"","ITI","","html-keyboard-response","255","1333904","0.0-1.0-351.0","0","0","80071","","null","","","null","38","","","","","","","","","","","","","","","NaN",""
"","S1","","html-keyboard-response","256","1334057","0.0-1.0-353.0","0","0","80071","","null","","","null","39","","","","","","","","","","","","","","","",""
"","ISI","","html-keyboard-response","257","1336062","0.0-1.0-354.0","0","0","80071","","null","","","null","39","NaN","","","","","","","","","","","","","","",""
"","S2","","html-keyboard-response","258","1336216","0.0-1.0-355.0","0","0","80071","","null","","","null","39","","NaN","","","","","","","","","","","","","",""
"","response","","html-keyboard-response","259","1336950","0.0-1.0-356.0-0.0","0","0","80071","","730","","","68","39","","","1","39","training","adjacent","DE","4","5","M.jpg","O.jpg","0","1","0","",""
"","feedback","","html-keyboard-response","260","1337955","0.0-1.0-357.0-0.0","0","0","80071","","null","","","null","39","","","","","","","","","","","","","","","",""
"","time_out","","html-keyboard-response","261","1339959","0.0-1.0-359.0-0.0","0","0","80071","","null","","","null","39","","","","","","","","","","","","","","","",""
"","ITI","","html-keyboard-response","262","1340962","0.0-1.0-360.0","0","0","80071","","null","","","null","39","","","","","","","","","","","","","","","NaN",""
"","S1","","html-keyboard-response","263","1341117","0.0-1.0-362.0","0","0","80071","","null","","","null","40","","","","","","","","","","","","","","","",""
"","ISI","","html-keyboard-response","264","1343121","0.0-1.0-363.0","0","0","80071","","null","","","null","40","NaN","","","","","","","","","","","","","","",""
"","S2","","html-keyboard-response","265","1343275","0.0-1.0-364.0","0","0","80071","","null","","","null","40","","NaN","","","","","","","","","","","","","",""
"","response","","html-keyboard-response","266","1343725","0.0-1.0-365.0-0.0","0","0","80071","","447","","","68","40","","","1","40","training","adjacent","CB","3","2","L.jpg","N.jpg","0","0","1","",""
"","feedback","","html-keyboard-response","267","1344732","0.0-1.0-366.0-0.0","0","0","80071","","null","","","null","40","","","","","","","","","","","","","","","",""
"","ITI","","html-keyboard-response","268","1345736","0.0-1.0-369.0","0","0","80071","","null","","","null","40","","","","","","","","","","","","","","","NaN",""
"","S1","","html-keyboard-response","269","1345891","0.0-1.0-371.0","0","0","80071","","null","","","null","41","","","","","","","","","","","","","","","",""
"","ISI","","html-keyboard-response","270","1347895","0.0-1.0-372.0","0","0","80071","","null","","","null","41","NaN","","","","","","","","","","","","","","",""
"","S2","","html-keyboard-response","271","1348049","0.0-1.0-373.0","0","0","80071","","null","","","null","41","","NaN","","","","","","","","","","","","","",""
"","response","","html-keyboard-response","272","1349326","0.0-1.0-374.0-0.0","0","0","80071","","1273","","","75","41","","","1","41","training","adjacent","BA","2","1","N.jpg","Q.jpg","1","0","0","",""
"","feedback","","html-keyboard-response","273","1350330","0.0-1.0-375.0-0.0","0","0","80071","","null","","","null","41","","","","","","","","","","","","","","","",""
"","time_out","","html-keyboard-response","274","1352335","0.0-1.0-377.0-0.0","0","0","80071","","null","","","null","41","","","","","","","","","","","","","","","",""
"","ITI","","html-keyboard-response","275","1353339","0.0-1.0-378.0","0","0","80071","","null","","","null","41","","","","","","","","","","","","","","","NaN",""
"","S1","","html-keyboard-response","276","1353494","0.0-1.0-380.0","0","0","80071","","null","","","null","42","","","","","","","","","","","","","","","",""
"","ISI","","html-keyboard-response","277","1355499","0.0-1.0-381.0","0","0","80071","","null","","","null","42","NaN","","","","","","","","","","","","","","",""
"","S2","","html-keyboard-response","278","1355653","0.0-1.0-382.0","0","0","80071","","null","","","null","42","","NaN","","","","","","","","","","","","","",""
"","response","","html-keyboard-response","279","1356109","0.0-1.0-383.0-0.0","0","0","80071","","453","","","68","42","","","1","42","training","adjacent","FE","6","5","P.jpg","O.jpg","0","0","1","",""
"","feedback","","html-keyboard-response","280","1357114","0.0-1.0-384.0-0.0","0","0","80071","","null","","","null","42","","","","","","","","","","","","","","","",""
"","ITI","","html-keyboard-response","281","1358119","0.0-1.0-387.0","0","0","80071","","null","","","null","42","","","","","","","","","","","","","","","NaN",""
"","S1","","html-keyboard-response","282","1358273","0.0-1.0-389.0","0","0","80071","","null","","","null","43","","","","","","","","","","","","","","","",""
"","ISI","","html-keyboard-response","283","1360278","0.0-1.0-390.0","0","0","80071","","null","","","null","43","NaN","","","","","","","","","","","","","","",""
"","S2","","html-keyboard-response","284","1360431","0.0-1.0-391.0","0","0","80071","","null","","","null","43","","NaN","","","","","","","","","","","","","",""
"","response","","html-keyboard-response","285","1361022","0.0-1.0-392.0-0.0","0","0","80071","","586","","","75","43","","","1","43","training","adjacent","AB","1","2","Q.jpg","N.jpg","1","1","1","",""
"","feedback","","html-keyboard-response","286","1362027","0.0-1.0-393.0-0.0","0","0","80071","","null","","","null","43","","","","","","","","","","","","","","","",""
"","ITI","","html-keyboard-response","287","1363030","0.0-1.0-396.0","0","0","80071","","null","","","null","43","","","","","","","","","","","","","","","NaN",""
"","S1","","html-keyboard-response","288","1363186","0.0-1.0-398.0","0","0","80071","","null","","","null","44","","","","","","","","","","","","","","","",""
"","ISI","","html-keyboard-response","289","1365190","0.0-1.0-399.0","0","0","80071","","null","","","null","44","NaN","","","","","","","","","","","","","","",""
"","S2","","html-keyboard-response","290","1365345","0.0-1.0-400.0","0","0","80071","","null","","","null","44","","NaN","","","","","","","","","","","","","",""
"","response","","html-keyboard-response","291","1366189","0.0-1.0-401.0-0.0","0","0","80071","","841","","","68","44","","","1","44","training","adjacent","CD","3","4","L.jpg","M.jpg","0","1","0","",""
"","feedback","","html-keyboard-response","292","1367194","0.0-1.0-402.0-0.0","0","0","80071","","null","","","null","44","","","","","","","","","","","","","","","",""
"","time_out","","html-keyboard-response","293","1369198","0.0-1.0-404.0-0.0","0","0","80071","","null","","","null","44","","","","","","","","","","","","","","","",""
"","ITI","","html-keyboard-response","294","1370202","0.0-1.0-405.0","0","0","80071","","null","","","null","44","","","","","","","","","","","","","","","NaN",""
"","S1","","html-keyboard-response","295","1370356","0.0-1.0-407.0","0","0","80071","","null","","","null","45","","","","","","","","","","","","","","","",""
"","ISI","","html-keyboard-response","296","1372360","0.0-1.0-408.0","0","0","80071","","null","","","null","45","NaN","","","","","","","","","","","","","","",""
"","S2","","html-keyboard-response","297","1372515","0.0-1.0-409.0","0","0","80071","","null","","","null","45","","NaN","","","","","","","","","","","","","",""
"","response","","html-keyboard-response","298","1373150","0.0-1.0-410.0-0.0","0","0","80071","","630","","","68","45","","","1","45","training","adjacent","AB","1","2","Q.jpg","N.jpg","0","1","0","",""
"","feedback","","html-keyboard-response","299","1374154","0.0-1.0-411.0-0.0","0","0","80071","","null","","","null","45","","","","","","","","","","","","","","","",""
"","time_out","","html-keyboard-response","300","1376159","0.0-1.0-413.0-0.0","0","0","80071","","null","","","null","45","","","","","","","","","","","","","","","",""
"","ITI","","html-keyboard-response","301","1377163","0.0-1.0-414.0","0","0","80071","","null","","","null","45","","","","","","","","","","","","","","","NaN",""
"","S1","","html-keyboard-response","302","1377317","0.0-1.0-416.0","0","0","80071","","null","","","null","46","","","","","","","","","","","","","","","",""
"","ISI","","html-keyboard-response","303","1379322","0.0-1.0-417.0","0","0","80071","","null","","","null","46","NaN","","","","","","","","","","","","","","",""
"","S2","","html-keyboard-response","304","1379476","0.0-1.0-418.0","0","0","80071","","null","","","null","46","","NaN","","","","","","","","","","","","","",""
"","response","","html-keyboard-response","305","1380085","0.0-1.0-419.0-0.0","0","0","80071","","604","","","68","46","","","1","46","training","adjacent","FG","6","7","P.jpg","R.jpg","0","1","0","",""
"","feedback","","html-keyboard-response","306","1381091","0.0-1.0-420.0-0.0","0","0","80071","","null","","","null","46","","","","","","","","","","","","","","","",""
"","time_out","","html-keyboard-response","307","1383095","0.0-1.0-422.0-0.0","0","0","80071","","null","","","null","46","","","","","","","","","","","","","","","",""
"","ITI","","html-keyboard-response","308","1384099","0.0-1.0-423.0","0","0","80071","","null","","","null","46","","","","","","","","","","","","","","","NaN",""
"","S1","","html-keyboard-response","309","1384254","0.0-1.0-425.0","0","0","80071","","null","","","null","47","","","","","","","","","","","","","","","",""
"","ISI","","html-keyboard-response","310","1386258","0.0-1.0-426.0","0","0","80071","","null","","","null","47","NaN","","","","","","","","","","","","","","",""
"","S2","","html-keyboard-response","311","1386412","0.0-1.0-427.0","0","0","80071","","null","","","null","47","","NaN","","","","","","","","","","","","","",""
"","response","","html-keyboard-response","312","1387397","0.0-1.0-428.0-0.0","0","0","80071","","981","","","68","47","","","1","47","training","adjacent","DC","4","3","M.jpg","L.jpg","0","0","1","",""
"","feedback","","html-keyboard-response","313","1388402","0.0-1.0-429.0-0.0","0","0","80071","","null","","","null","47","","","","","","","","","","","","","","","",""
"","ITI","","html-keyboard-response","314","1389406","0.0-1.0-432.0","0","0","80071","","null","","","null","47","","","","","","","","","","","","","","","NaN",""
"","block_over","","html-keyboard-response","315","1764018","0.0-1.0-433.0-0.0","0","0","80071","","374603","","","32","47","","","","","","","","","","","","","","","",""
"","S1","","html-keyboard-response","316","1764175","0.0-1.0-434.0","0","0","80071","","null","","","null","48","","","","","","","","","","","","","","","",""
"","ISI","","html-keyboard-response","317","1766181","0.0-1.0-435.0","0","0","80071","","null","","","null","48","NaN","","","","","","","","","","","","","","",""
"","S2","","html-keyboard-response","318","1766336","0.0-1.0-436.0","0","0","80071","","null","","","null","48","","NaN","","","","","","","","","","","","","",""
"","response","","html-keyboard-response","319","1766721","0.0-1.0-437.0-0.0","0","0","80071","","378","","","68","48","","","2","48","training","adjacent","BA","2","1","N.jpg","Q.jpg","0","0","1","",""
"","feedback","","html-keyboard-response","320","1767727","0.0-1.0-438.0-0.0","0","0","80071","","null","","","null","48","","","","","","","","","","","","","","","",""
"","ITI","","html-keyboard-response","321","1768732","0.0-1.0-441.0","0","0","80071","","null","","","null","48","","","","","","","","","","","","","","","NaN",""
"","S1","","html-keyboard-response","322","1768888","0.0-1.0-443.0","0","0","80071","","null","","","null","49","","","","","","","","","","","","","","","",""
"","ISI","","html-keyboard-response","323","1770892","0.0-1.0-444.0","0","0","80071","","null","","","null","49","NaN","","","","","","","","","","","","","","",""
"","S2","","html-keyboard-response","324","1771047","0.0-1.0-445.0","0","0","80071","","null","","","null","49","","NaN","","","","","","","","","","","","","",""
"","response","","html-keyboard-response","325","1771825","0.0-1.0-446.0-0.0","0","0","80071","","772","","","75","49","","","2","49","training","adjacent","FG","6","7","P.jpg","R.jpg","1","1","1","",""
"","feedback","","html-keyboard-response","326","1772830","0.0-1.0-447.0-0.0","0","0","80071","","null","","","null","49","","","","","","","","","","","","","","","",""
"","ITI","","html-keyboard-response","327","1773834","0.0-1.0-450.0","0","0","80071","","null","","","null","49","","","","","","","","","","","","","","","NaN",""
"","S1","","html-keyboard-response","328","1773990","0.0-1.0-452.0","0","0","80071","","null","","","null","50","","","","","","","","","","","","","","","",""
"","ISI","","html-keyboard-response","329","1775993","0.0-1.0-453.0","0","0","80071","","null","","","null","50","NaN","","","","","","","","","","","","","","",""
"","S2","","html-keyboard-response","330","1776148","0.0-1.0-454.0","0","0","80071","","null","","","null","50","","NaN","","","","","","","","","","","","","",""
"","response","","html-keyboard-response","331","1776817","0.0-1.0-455.0-0.0","0","0","80071","","663","","","68","50","","","2","50","training","adjacent","AB","1","2","Q.jpg","N.jpg","0","1","0","",""
"","feedback","","html-keyboard-response","332","1777821","0.0-1.0-456.0-0.0","0","0","80071","","null","","","null","50","","","","","","","","","","","","","","","",""
"","time_out","","html-keyboard-response","333","1779825","0.0-1.0-458.0-0.0","0","0","80071","","null","","","null","50","","","","","","","","","","","","","","","",""
"","ITI","","html-keyboard-response","334","1780829","0.0-1.0-459.0","0","0","80071","","null","","","null","50","","","","","","","","","","","","","","","NaN",""
"","S1","","html-keyboard-response","335","1780984","0.0-1.0-461.0","0","0","80071","","null","","","null","51","","","","","","","","","","","","","","","",""
"","ISI","","html-keyboard-response","336","1782989","0.0-1.0-462.0","0","0","80071","","null","","","null","51","NaN","","","","","","","","","","","","","","",""
"","S2","","html-keyboard-response","337","1783143","0.0-1.0-463.0","0","0","80071","","null","","","null","51","","NaN","","","","","","","","","","","","","",""
"","response","","html-keyboard-response","338","1783840","0.0-1.0-464.0-0.0","0","0","80071","","694","","","68","51","","","2","51","training","adjacent","AB","1","2","Q.jpg","N.jpg","0","1","0","",""
"","feedback","","html-keyboard-response","339","1784845","0.0-1.0-465.0-0.0","0","0","80071","","null","","","null","51","","","","","","","","","","","","","","","",""
"","time_out","","html-keyboard-response","340","1786851","0.0-1.0-467.0-0.0","0","0","80071","","null","","","null","51","","","","","","","","","","","","","","","",""
"","ITI","","html-keyboard-response","341","1787854","0.0-1.0-468.0","0","0","80071","","null","","","null","51","","","","","","","","","","","","","","","NaN",""
"","S1","","html-keyboard-response","342","1788009","0.0-1.0-470.0","0","0","80071","","null","","","null","52","","","","","","","","","","","","","","","",""
"","ISI","","html-keyboard-response","343","1790014","0.0-1.0-471.0","0","0","80071","","null","","","null","52","NaN","","","","","","","","","","","","","","",""
"","S2","","html-keyboard-response","344","1790168","0.0-1.0-472.0","0","0","80071","","null","","","null","52","","NaN","","","","","","","","","","","","","",""
"","response","","html-keyboard-response","345","1790785","0.0-1.0-473.0-0.0","0","0","80071","","611","","","68","52","","","2","52","training","adjacent","GF","7","6","R.jpg","P.jpg","0","0","1","",""
"","feedback","","html-keyboard-response","346","1791790","0.0-1.0-474.0-0.0","0","0","80071","","null","","","null","52","","","","","","","","","","","","","","","",""
"","ITI","","html-keyboard-response","347","1792796","0.0-1.0-477.0","0","0","80071","","null","","","null","52","","","","","","","","","","","","","","","NaN",""
"","S1","","html-keyboard-response","348","1792952","0.0-1.0-479.0","0","0","80071","","null","","","null","53","","","","","","","","","","","","","","","",""
"","ISI","","html-keyboard-response","349","1794956","0.0-1.0-480.0","0","0","80071","","null","","","null","53","NaN","","","","","","","","","","","","","","",""
"","S2","","html-keyboard-response","350","1795111","0.0-1.0-481.0","0","0","80071","","null","","","null","53","","NaN","","","","","","","","","","","","","",""
"","response","","html-keyboard-response","351","1796031","0.0-1.0-482.0-0.0","0","0","80071","","917","","","68","53","","","2","53","training","adjacent","CD","3","4","L.jpg","M.jpg","0","1","0","",""
"","feedback","","html-keyboard-response","352","1797038","0.0-1.0-483.0-0.0","0","0","80071","","null","","","null","53","","","","","","","","","","","","","","","",""
"","time_out","","html-keyboard-response","353","1799042","0.0-1.0-485.0-0.0","0","0","80071","","null","","","null","53","","","","","","","","","","","","","","","",""
"","ITI","","html-keyboard-response","354","1800046","0.0-1.0-486.0","0","0","80071","","null","","","null","53","","","","","","","","","","","","","","","NaN",""
"","S1","","html-keyboard-response","355","1800201","0.0-1.0-488.0","0","0","80071","","null","","","null","54","","","","","","","","","","","","","","","",""
"","ISI","","html-keyboard-response","356","1802206","0.0-1.0-489.0","0","0","80071","","null","","","null","54","NaN","","","","","","","","","","","","","","",""
"","S2","","html-keyboard-response","357","1802360","0.0-1.0-490.0","0","0","80071","","null","","","null","54","","NaN","","","","","","","","","","","","","",""
"","response","","html-keyboard-response","358","1802984","0.0-1.0-491.0-0.0","0","0","80071","","619","","","68","54","","","2","54","training","adjacent","DC","4","3","M.jpg","L.jpg","0","0","1","",""
"","feedback","","html-keyboard-response","359","1803989","0.0-1.0-492.0-0.0","0","0","80071","","null","","","null","54","","","","","","","","","","","","","","","",""
"","ITI","","html-keyboard-response","360","1804993","0.0-1.0-495.0","0","0","80071","","null","","","null","54","","","","","","","","","","","","","","","NaN",""
"","S1","","html-keyboard-response","361","1805148","0.0-1.0-497.0","0","0","80071","","null","","","null","55","","","","","","","","","","","","","","","",""
"","ISI","","html-keyboard-response","362","1807151","0.0-1.0-498.0","0","0","80071","","null","","","null","55","NaN","","","","","","","","","","","","","","",""
"","S2","","html-keyboard-response","363","1807305","0.0-1.0-499.0","0","0","80071","","null","","","null","55","","NaN","","","","","","","","","","","","","",""
"","response","","html-keyboard-response","364","1807991","0.0-1.0-500.0-0.0","0","0","80071","","681","","","75","55","","","2","55","training","adjacent","CB","3","2","L.jpg","N.jpg","1","0","0","",""
"","feedback","","html-keyboard-response","365","1808997","0.0-1.0-501.0-0.0","0","0","80071","","null","","","null","55","","","","","","","","","","","","","","","",""
"","time_out","","html-keyboard-response","366","1811001","0.0-1.0-503.0-0.0","0","0","80071","","null","","","null","55","","","","","","","","","","","","","","","",""
"","ITI","","html-keyboard-response","367","1812006","0.0-1.0-504.0","0","0","80071","","null","","","null","55","","","","","","","","","","","","","","","NaN",""
"","S1","","html-keyboard-response","368","1812161","0.0-1.0-506.0","0","0","80071","","null","","","null","56","","","","","","","","","","","","","","","",""
"","ISI","","html-keyboard-response","369","1814165","0.0-1.0-507.0","0","0","80071","","null","","","null","56","NaN","","","","","","","","","","","","","","",""
"","S2","","html-keyboard-response","370","1814320","0.0-1.0-508.0","0","0","80071","","null","","","null","56","","NaN","","","","","","","","","","","","","",""
"","response","","html-keyboard-response","371","1815255","0.0-1.0-509.0-0.0","0","0","80071","","931","","","68","56","","","2","56","training","adjacent","FG","6","7","P.jpg","R.jpg","0","1","0","",""
"","feedback","","html-keyboard-response","372","1816261","0.0-1.0-510.0-0.0","0","0","80071","","null","","","null","56","","","","","","","","","","","","","","","",""
"","time_out","","html-keyboard-response","373","1818266","0.0-1.0-512.0-0.0","0","0","80071","","null","","","null","56","","","","","","","","","","","","","","","",""
"","ITI","","html-keyboard-response","374","1819271","0.0-1.0-513.0","0","0","80071","","null","","","null","56","","","","","","","","","","","","","","","NaN",""
"","S1","","html-keyboard-response","375","1819427","0.0-1.0-515.0","0","0","80071","","null","","","null","57","","","","","","","","","","","","","","","",""
"","ISI","","html-keyboard-response","376","1821431","0.0-1.0-516.0","0","0","80071","","null","","","null","57","NaN","","","","","","","","","","","","","","",""
"","S2","","html-keyboard-response","377","1821587","0.0-1.0-517.0","0","0","80071","","null","","","null","57","","NaN","","","","","","","","","","","","","",""
"","response","","html-keyboard-response","378","1822424","0.0-1.0-518.0-0.0","0","0","80071","","833","","","75","57","","","2","57","training","adjacent","BC","2","3","N.jpg","L.jpg","1","1","1","",""
"","feedback","","html-keyboard-response","379","1823428","0.0-1.0-519.0-0.0","0","0","80071","","null","","","null","57","","","","","","","","","","","","","","","",""
"","ITI","","html-keyboard-response","380","1824434","0.0-1.0-522.0","0","0","80071","","null","","","null","57","","","","","","","","","","","","","","","NaN",""
"","S1","","html-keyboard-response","381","1824589","0.0-1.0-524.0","0","0","80071","","null","","","null","58","","","","","","","","","","","","","","","",""
"","ISI","","html-keyboard-response","382","1826592","0.0-1.0-525.0","0","0","80071","","null","","","null","58","NaN","","","","","","","","","","","","","","",""
"","S2","","html-keyboard-response","383","1826747","0.0-1.0-526.0","0","0","80071","","null","","","null","58","","NaN","","","","","","","","","","","","","",""
"","response","","html-keyboard-response","384","1827592","0.0-1.0-527.0-0.0","0","0","80071","","840","","","68","58","","","2","58","training","adjacent","EF","5","6","O.jpg","P.jpg","0","1","0","",""
"","feedback","","html-keyboard-response","385","1828596","0.0-1.0-528.0-0.0","0","0","80071","","null","","","null","58","","","","","","","","","","","","","","","",""
"","time_out","","html-keyboard-response","386","1830602","0.0-1.0-530.0-0.0","0","0","80071","","null","","","null","58","","","","","","","","","","","","","","","",""
"","ITI","","html-keyboard-response","387","1831606","0.0-1.0-531.0","0","0","80071","","null","","","null","58","","","","","","","","","","","","","","","NaN",""
"","S1","","html-keyboard-response","388","1831761","0.0-1.0-533.0","0","0","80071","","null","","","null","59","","","","","","","","","","","","","","","",""
"","ISI","","html-keyboard-response","389","1833766","0.0-1.0-534.0","0","0","80071","","null","","","null","59","NaN","","","","","","","","","","","","","","",""
"","S2","","html-keyboard-response","390","1833921","0.0-1.0-535.0","0","0","80071","","null","","","null","59","","NaN","","","","","","","","","","","","","",""
"","response","","html-keyboard-response","391","1834599","0.0-1.0-536.0-0.0","0","0","80071","","675","","","75","59","","","2","59","training","adjacent","CD","3","4","L.jpg","M.jpg","1","1","1","",""
"","feedback","","html-keyboard-response","392","1835604","0.0-1.0-537.0-0.0","0","0","80071","","null","","","null","59","","","","","","","","","","","","","","","",""
"","ITI","","html-keyboard-response","393","1836608","0.0-1.0-540.0","0","0","80071","","null","","","null","59","","","","","","","","","","","","","","","NaN",""
"","S1","","html-keyboard-response","394","1836763","0.0-1.0-542.0","0","0","80071","","null","","","null","60","","","","","","","","","","","","","","","",""
"","ISI","","html-keyboard-response","395","1838768","0.0-1.0-543.0","0","0","80071","","null","","","null","60","NaN","","","","","","","","","","","","","","",""
"","S2","","html-keyboard-response","396","1838923","0.0-1.0-544.0","0","0","80071","","null","","","null","60","","NaN","","","","","","","","","","","","","",""
"","response","","html-keyboard-response","397","1839856","0.0-1.0-545.0-0.0","0","0","80071","","928","","","68","60","","","2","60","training","adjacent","BA","2","1","N.jpg","Q.jpg","0","0","1","",""
"","feedback","","html-keyboard-response","398","1840861","0.0-1.0-546.0-0.0","0","0","80071","","null","","","null","60","","","","","","","","","","","","","","","",""
"","ITI","","html-keyboard-response","399","1841865","0.0-1.0-549.0","0","0","80071","","null","","","null","60","","","","","","","","","","","","","","","NaN",""
"","S1","","html-keyboard-response","400","1842021","0.0-1.0-551.0","0","0","80071","","null","","","null","61","","","","","","","","","","","","","","","",""
"","ISI","","html-keyboard-response","401","1844024","0.0-1.0-552.0","0","0","80071","","null","","","null","61","NaN","","","","","","","","","","","","","","",""
"","S2","","html-keyboard-response","402","1844179","0.0-1.0-553.0","0","0","80071","","null","","","null","61","","NaN","","","","","","","","","","","","","",""
"","response","","html-keyboard-response","403","1844783","0.0-1.0-554.0-0.0","0","0","80071","","600","","","75","61","","","2","61","training","adjacent","GF","7","6","R.jpg","P.jpg","1","0","0","",""
"","feedback","","html-keyboard-response","404","1845788","0.0-1.0-555.0-0.0","0","0","80071","","null","","","null","61","","","","","","","","","","","","","","","",""
"","time_out","","html-keyboard-response","405","1847794","0.0-1.0-557.0-0.0","0","0","80071","","null","","","null","61","","","","","","","","","","","","","","","",""
"","ITI","","html-keyboard-response","406","1848797","0.0-1.0-558.0","0","0","80071","","null","","","null","61","","","","","","","","","","","","","","","NaN",""
"","S1","","html-keyboard-response","407","1848952","0.0-1.0-560.0","0","0","80071","","null","","","null","62","","","","","","","","","","","","","","","",""
"","ISI","","html-keyboard-response","408","1850957","0.0-1.0-561.0","0","0","80071","","null","","","null","62","NaN","","","","","","","","","","","","","","",""
"","S2","","html-keyboard-response","409","1851111","0.0-1.0-562.0","0","0","80071","","null","","","null","62","","NaN","","","","","","","","","","","","","",""
"","response","","html-keyboard-response","410","1851551","0.0-1.0-563.0-0.0","0","0","80071","","436","","","68","62","","","2","62","training","adjacent","EF","5","6","O.jpg","P.jpg","0","1","0","",""
"","feedback","","html-keyboard-response","411","1852556","0.0-1.0-564.0-0.0","0","0","80071","","null","","","null","62","","","","","","","","","","","","","","","",""
"","time_out","","html-keyboard-response","412","1854561","0.0-1.0-566.0-0.0","0","0","80071","","null","","","null","62","","","","","","","","","","","","","","","",""
"","ITI","","html-keyboard-response","413","1855566","0.0-1.0-567.0","0","0","80071","","null","","","null","62","","","","","","","","","","","","","","","NaN",""
"","S1","","html-keyboard-response","414","1855720","0.0-1.0-569.0","0","0","80071","","null","","","null","63","","","","","","","","","","","","","","","",""
"","ISI","","html-keyboard-response","415","1857726","0.0-1.0-570.0","0","0","80071","","562","","","68","63","d","","","","","","","","","","","","","","",""
"","S2","","html-keyboard-response","416","1857732","0.0-1.0-571.0","0","0","80071","","1","","","68","63","","d","2","63","training","adjacent","CB","3","2","L.jpg","N.jpg","0","0","1","",""
"","feedback","","html-keyboard-response","417","1858737","0.0-1.0-573.0-0.0","0","0","80071","","null","","","null","63","","","","","","","","","","","","","","","",""
"","ITI","","html-keyboard-response","418","1859742","0.0-1.0-576.0","0","0","80071","","null","","","null","63","","","","","","","","","","","","","","","NaN",""
"","S1","","html-keyboard-response","419","1859897","0.0-1.0-578.0","0","0","80071","","null","","","null","64","","","","","","","","","","","","","","","",""
"","ISI","","html-keyboard-response","420","1861901","0.0-1.0-579.0","0","0","80071","","null","","","null","64","NaN","","","","","","","","","","","","","","",""
"","S2","","html-keyboard-response","421","1862055","0.0-1.0-580.0","0","0","80071","","null","","","null","64","","NaN","","","","","","","","","","","","","",""
"","response","","html-keyboard-response","422","1862574","0.0-1.0-581.0-0.0","0","0","80071","","516","","","68","64","","","2","64","training","adjacent","ED","5","4","O.jpg","M.jpg","0","0","1","",""
"","feedback","","html-keyboard-response","423","1863579","0.0-1.0-582.0-0.0","0","0","80071","","null","","","null","64","","","","","","","","","","","","","","","",""
"","ITI","","html-keyboard-response","424","1864584","0.0-1.0-585.0","0","0","80071","","null","","","null","64","","","","","","","","","","","","","","","NaN",""
"","S1","","html-keyboard-response","425","1864739","0.0-1.0-587.0","0","0","80071","","null","","","null","65","","","","","","","","","","","","","","","",""
"","ISI","","html-keyboard-response","426","1866744","0.0-1.0-588.0","0","0","80071","","null","","","null","65","NaN","","","","","","","","","","","","","","",""
"","S2","","html-keyboard-response","427","1866899","0.0-1.0-589.0","0","0","80071","","null","","","null","65","","NaN","","","","","","","","","","","","","",""
"","response","","html-keyboard-response","428","1867518","0.0-1.0-590.0-0.0","0","0","80071","","616","","","68","65","","","2","65","training","adjacent","AB","1","2","Q.jpg","N.jpg","0","1","0","",""
"","feedback","","html-keyboard-response","429","1868523","0.0-1.0-591.0-0.0","0","0","80071","","null","","","null","65","","","","","","","","","","","","","","","",""
"","time_out","","html-keyboard-response","430","1870528","0.0-1.0-593.0-0.0","0","0","80071","","null","","","null","65","","","","","","","","","","","","","","","",""
"","ITI","","html-keyboard-response","431","1871532","0.0-1.0-594.0","0","0","80071","","null","","","null","65","","","","","","","","","","","","","","","NaN",""
"","S1","","html-keyboard-response","432","1871687","0.0-1.0-596.0","0","0","80071","","null","","","null","66","","","","","","","","","","","","","","","",""
"","ISI","","html-keyboard-response","433","1873691","0.0-1.0-597.0","0","0","80071","","null","","","null","66","NaN","","","","","","","","","","","","","","",""
"","S2","","html-keyboard-response","434","1873846","0.0-1.0-598.0","0","0","80071","","null","","","null","66","","NaN","","","","","","","","","","","","","",""
"","response","","html-keyboard-response","435","1874343","0.0-1.0-599.0-0.0","0","0","80071","","492","","","68","66","","","2","66","training","adjacent","BA","2","1","N.jpg","Q.jpg","0","0","1","",""
"","feedback","","html-keyboard-response","436","1875347","0.0-1.0-600.0-0.0","0","0","80071","","null","","","null","66","","","","","","","","","","","","","","","",""
"","ITI","","html-keyboard-response","437","1876351","0.0-1.0-603.0","0","0","80071","","null","","","null","66","","","","","","","","","","","","","","","NaN",""
"","S1","","html-keyboard-response","438","1876506","0.0-1.0-605.0","0","0","80071","","null","","","null","67","","","","","","","","","","","","","","","",""
"","ISI","","html-keyboard-response","439","1878511","0.0-1.0-606.0","0","0","80071","","null","","","null","67","NaN","","","","","","","","","","","","","","",""
"","S2","","html-keyboard-response","440","1878665","0.0-1.0-607.0","0","0","80071","","null","","","null","67","","NaN","","","","","","","","","","","","","",""
"","response","","html-keyboard-response","441","1879255","0.0-1.0-608.0-0.0","0","0","80071","","586","","","68","67","","","2","67","training","adjacent","FG","6","7","P.jpg","R.jpg","0","1","0","",""
"","feedback","","html-keyboard-response","442","1880260","0.0-1.0-609.0-0.0","0","0","80071","","null","","","null","67","","","","","","","","","","","","","","","",""
"","time_out","","html-keyboard-response","443","1882264","0.0-1.0-611.0-0.0","0","0","80071","","null","","","null","67","","","","","","","","","","","","","","","",""
"","ITI","","html-keyboard-response","444","1883268","0.0-1.0-612.0","0","0","80071","","null","","","null","67","","","","","","","","","","","","","","","NaN",""
"","S1","","html-keyboard-response","445","1883423","0.0-1.0-614.0","0","0","80071","","null","","","null","68","","","","","","","","","","","","","","","",""
"","ISI","","html-keyboard-response","446","1885427","0.0-1.0-615.0","0","0","80071","","null","","","null","68","NaN","","","","","","","","","","","","","","",""
"","S2","","html-keyboard-response","447","1885582","0.0-1.0-616.0","0","0","80071","","null","","","null","68","","NaN","","","","","","","","","","","","","",""
"","response","","html-keyboard-response","448","1886054","0.0-1.0-617.0-0.0","0","0","80071","","468","","","75","68","","","2","68","training","adjacent","ED","5","4","O.jpg","M.jpg","1","0","0","",""
"","feedback","","html-keyboard-response","449","1887059","0.0-1.0-618.0-0.0","0","0","80071","","null","","","null","68","","","","","","","","","","","","","","","",""
"","time_out","","html-keyboard-response","450","1889065","0.0-1.0-620.0-0.0","0","0","80071","","null","","","null","68","","","","","","","","","","","","","","","",""
"","ITI","","html-keyboard-response","451","1890070","0.0-1.0-621.0","0","0","80071","","null","","","null","68","","","","","","","","","","","","","","","NaN",""
"","S1","","html-keyboard-response","452","1890225","0.0-1.0-623.0","0","0","80071","","null","","","null","69","","","","","","","","","","","","","","","",""
"","ISI","","html-keyboard-response","453","1892228","0.0-1.0-624.0","0","0","80071","","null","","","null","69","NaN","","","","","","","","","","","","","","",""
"","S2","","html-keyboard-response","454","1892382","0.0-1.0-625.0","0","0","80071","","null","","","null","69","","NaN","","","","","","","","","","","","","",""
"","response","","html-keyboard-response","455","1894236","0.0-1.0-626.0-0.0","0","0","80071","","null","","","null","69","","","2","69","training","adjacent","DC","4","3","M.jpg","L.jpg","NaN","0","0","",""
"","too_slow_prompt","","html-keyboard-response","456","1895242","0.0-1.0-628.0-0.0","1","0","80071","","null","","","null","","","","","","","","","","","","","","","","",""
"","time_out","","html-keyboard-response","457","1897246","0.0-1.0-629.0-0.0","0","0","80071","","null","","","null","69","","","","","","","","","","","","","","","",""
"","ITI","","html-keyboard-response","458","1898249","0.0-1.0-630.0","0","0","80071","","null","","","null","69","","","","","","","","","","","","","","","NaN",""
"","S1","","html-keyboard-response","459","1898405","0.0-1.0-632.0","0","0","80071","","null","","","null","70","","","","","","","","","","","","","","","",""
"","ISI","","html-keyboard-response","460","1900409","0.0-1.0-633.0","0","0","80071","","null","","","null","70","NaN","","","","","","","","","","","","","","",""
"","S2","","html-keyboard-response","461","1900562","0.0-1.0-634.0","0","0","80071","","null","","","null","70","","NaN","","","","","","","","","","","","","",""
"","response","","html-keyboard-response","462","1900918","0.0-1.0-635.0-0.0","0","0","80071","","352","","","75","70","","","2","70","training","adjacent","CB","3","2","L.jpg","N.jpg","1","0","0","",""
"","feedback","","html-keyboard-response","463","1901923","0.0-1.0-636.0-0.0","0","0","80071","","null","","","null","70","","","","","","","","","","","","","","","",""
"","time_out","","html-keyboard-response","464","1903928","0.0-1.0-638.0-0.0","0","0","80071","","null","","","null","70","","","","","","","","","","","","","","","",""
"","ITI","","html-keyboard-response","465","1904932","0.0-1.0-639.0","0","0","80071","","null","","","null","70","","","","","","","","","","","","","","","NaN",""
"","S1","","html-keyboard-response","466","1905087","0.0-1.0-641.0","0","0","80071","","null","","","null","71","","","","","","","","","","","","","","","",""
"","ISI","","html-keyboard-response","467","1907091","0.0-1.0-642.0","0","0","80071","","null","","","null","71","NaN","","","","","","","","","","","","","","",""
"","S2","","html-keyboard-response","468","1907246","0.0-1.0-643.0","0","0","80071","","null","","","null","71","","NaN","","","","","","","","","","","","","",""
"","response","","html-keyboard-response","469","1907926","0.0-1.0-644.0-0.0","0","0","80071","","675","","","68","71","","","2","71","training","adjacent","CD","3","4","L.jpg","M.jpg","0","1","0","",""
"","feedback","","html-keyboard-response","470","1908931","0.0-1.0-645.0-0.0","0","0","80071","","null","","","null","71","","","","","","","","","","","","","","","",""
"","time_out","","html-keyboard-response","471","1910937","0.0-1.0-647.0-0.0","0","0","80071","","null","","","null","71","","","","","","","","","","","","","","","",""
"","ITI","","html-keyboard-response","472","1911942","0.0-1.0-648.0","0","0","80071","","null","","","null","71","","","","","","","","","","","","","","","NaN",""
"","S1","","html-keyboard-response","473","1912096","0.0-1.0-650.0","0","0","80071","","null","","","null","72","","","","","","","","","","","","","","","",""
"","ISI","","html-keyboard-response","474","1914100","0.0-1.0-651.0","0","0","80071","","null","","","null","72","NaN","","","","","","","","","","","","","","",""
"","S2","","html-keyboard-response","475","1914254","0.0-1.0-652.0","0","0","80071","","null","","","null","72","","NaN","","","","","","","","","","","","","",""
"","response","","html-keyboard-response","476","1914798","0.0-1.0-653.0-0.0","0","0","80071","","540","","","75","72","","","2","72","training","adjacent","DE","4","5","M.jpg","O.jpg","1","1","1","",""
"","feedback","","html-keyboard-response","477","1915803","0.0-1.0-654.0-0.0","0","0","80071","","null","","","null","72","","","","","","","","","","","","","","","",""
"","ITI","","html-keyboard-response","478","1916807","0.0-1.0-657.0","0","0","80071","","null","","","null","72","","","","","","","","","","","","","","","NaN",""
"","S1","","html-keyboard-response","479","1916962","0.0-1.0-659.0","0","0","80071","","null","","","null","73","","","","","","","","","","","","","","","",""
"","ISI","","html-keyboard-response","480","1918967","0.0-1.0-660.0","0","0","80071","","null","","","null","73","NaN","","","","","","","","","","","","","","",""
"","S2","","html-keyboard-response","481","1919122","0.0-1.0-661.0","0","0","80071","","null","","","null","73","","NaN","","","","","","","","","","","","","",""
"","response","","html-keyboard-response","482","1919934","0.0-1.0-662.0-0.0","0","0","80071","","807","","","68","73","","","2","73","training","adjacent","FG","6","7","P.jpg","R.jpg","0","1","0","",""
"","feedback","","html-keyboard-response","483","1920939","0.0-1.0-663.0-0.0","0","0","80071","","null","","","null","73","","","","","","","","","","","","","","","",""
"","time_out","","html-keyboard-response","484","1922944","0.0-1.0-665.0-0.0","0","0","80071","","null","","","null","73","","","","","","","","","","","","","","","",""
"","ITI","","html-keyboard-response","485","1923947","0.0-1.0-666.0","0","0","80071","","null","","","null","73","","","","","","","","","","","","","","","NaN",""
"","S1","","html-keyboard-response","486","1924101","0.0-1.0-668.0","0","0","80071","","null","","","null","74","","","","","","","","","","","","","","","",""
"","ISI","","html-keyboard-response","487","1926106","0.0-1.0-669.0","0","0","80071","","null","","","null","74","NaN","","","","","","","","","","","","","","",""
"","S2","","html-keyboard-response","488","1926261","0.0-1.0-670.0","0","0","80071","","null","","","null","74","","NaN","","","","","","","","","","","","","",""
"","response","","html-keyboard-response","489","1927214","0.0-1.0-671.0-0.0","0","0","80071","","949","","","68","74","","","2","74","training","adjacent","BC","2","3","N.jpg","L.jpg","0","1","0","",""
"","feedback","","html-keyboard-response","490","1928219","0.0-1.0-672.0-0.0","0","0","80071","","null","","","null","74","","","","","","","","","","","","","","","",""
"","time_out","","html-keyboard-response","491","1930223","0.0-1.0-674.0-0.0","0","0","80071","","null","","","null","74","","","","","","","","","","","","","","","",""
"","ITI","","html-keyboard-response","492","1931227","0.0-1.0-675.0","0","0","80071","","null","","","null","74","","","","","","","","","","","","","","","NaN",""
"","S1","","html-keyboard-response","493","1931382","0.0-1.0-677.0","0","0","80071","","null","","","null","75","","","","","","","","","","","","","","","",""
"","ISI","","html-keyboard-response","494","1933387","0.0-1.0-678.0","0","0","80071","","null","","","null","75","NaN","","","","","","","","","","","","","","",""
"","S2","","html-keyboard-response","495","1933542","0.0-1.0-679.0","0","0","80071","","null","","","null","75","","NaN","","","","","","","","","","","","","",""
"","response","","html-keyboard-response","496","1934093","0.0-1.0-680.0-0.0","0","0","80071","","548","","","75","75","","","2","75","training","adjacent","DE","4","5","M.jpg","O.jpg","1","1","1","",""
"","feedback","","html-keyboard-response","497","1935099","0.0-1.0-681.0-0.0","0","0","80071","","null","","","null","75","","","","","","","","","","","","","","","",""
"","ITI","","html-keyboard-response","498","1936104","0.0-1.0-684.0","0","0","80071","","null","","","null","75","","","","","","","","","","","","","","","NaN",""
"","S1","","html-keyboard-response","499","1936258","0.0-1.0-686.0","0","0","80071","","null","","","null","76","","","","","","","","","","","","","","","",""
"","ISI","","html-keyboard-response","500","1938263","0.0-1.0-687.0","0","0","80071","","null","","","null","76","NaN","","","","","","","","","","","","","","",""
"","S2","","html-keyboard-response","501","1938418","0.0-1.0-688.0","0","0","80071","","null","","","null","76","","NaN","","","","","","","","","","","","","",""
"","response","","html-keyboard-response","502","1940272","0.0-1.0-689.0-0.0","0","0","80071","","null","","","null","76","","","2","76","training","adjacent","BA","2","1","N.jpg","Q.jpg","NaN","0","0","",""
"","too_slow_prompt","","html-keyboard-response","503","1941277","0.0-1.0-691.0-0.0","1","0","80071","","null","","","null","","","","","","","","","","","","","","","","",""
"","time_out","","html-keyboard-response","504","1943282","0.0-1.0-692.0-0.0","0","0","80071","","null","","","null","76","","","","","","","","","","","","","","","",""
"","ITI","","html-keyboard-response","505","1944286","0.0-1.0-693.0","0","0","80071","","null","","","null","76","","","","","","","","","","","","","","","NaN",""
"","S1","","html-keyboard-response","506","1944441","0.0-1.0-695.0","0","0","80071","","null","","","null","77","","","","","","","","","","","","","","","",""
"","ISI","","html-keyboard-response","507","1946445","0.0-1.0-696.0","0","0","80071","","null","","","null","77","NaN","","","","","","","","","","","","","","",""
"","S2","","html-keyboard-response","508","1946600","0.0-1.0-697.0","0","0","80071","","null","","","null","77","","NaN","","","","","","","","","","","","","",""
"","response","","html-keyboard-response","509","1947149","0.0-1.0-698.0-0.0","0","0","80071","","545","","","68","77","","","2","77","training","adjacent","DC","4","3","M.jpg","L.jpg","0","0","1","",""
"","feedback","","html-keyboard-response","510","1948155","0.0-1.0-699.0-0.0","0","0","80071","","null","","","null","77","","","","","","","","","","","","","","","",""
"","ITI","","html-keyboard-response","511","1949159","0.0-1.0-702.0","0","0","80071","","null","","","null","77","","","","","","","","","","","","","","","NaN",""
"","S1","","html-keyboard-response","512","1949314","0.0-1.0-704.0","0","0","80071","","null","","","null","78","","","","","","","","","","","","","","","",""
"","ISI","","html-keyboard-response","513","1951317","0.0-1.0-705.0","0","0","80071","","null","","","null","78","NaN","","","","","","","","","","","","","","",""
"","S2","","html-keyboard-response","514","1951472","0.0-1.0-706.0","0","0","80071","","null","","","null","78","","NaN","","","","","","","","","","","","","",""
"","response","","html-keyboard-response","515","1951909","0.0-1.0-707.0-0.0","0","0","80071","","434","","","75","78","","","2","78","training","adjacent","ED","5","4","O.jpg","M.jpg","1","0","0","",""
"","feedback","","html-keyboard-response","516","1952914","0.0-1.0-708.0-0.0","0","0","80071","","null","","","null","78","","","","","","","","","","","","","","","",""
"","time_out","","html-keyboard-response","517","1954920","0.0-1.0-710.0-0.0","0","0","80071","","null","","","null","78","","","","","","","","","","","","","","","",""
"","ITI","","html-keyboard-response","518","1955924","0.0-1.0-711.0","0","0","80071","","null","","","null","78","","","","","","","","","","","","","","","NaN",""
"","S1","","html-keyboard-response","519","1956079","0.0-1.0-713.0","0","0","80071","","null","","","null","79","","","","","","","","","","","","","","","",""
"","ISI","","html-keyboard-response","520","1958083","0.0-1.0-714.0","0","0","80071","","null","","","null","79","NaN","","","","","","","","","","","","","","",""
"","S2","","html-keyboard-response","521","1958237","0.0-1.0-715.0","0","0","80071","","null","","","null","79","","NaN","","","","","","","","","","","","","",""
"","response","","html-keyboard-response","522","1958934","0.0-1.0-716.0-0.0","0","0","80071","","692","","","75","79","","","2","79","training","adjacent","BC","2","3","N.jpg","L.jpg","1","1","1","",""
"","feedback","","html-keyboard-response","523","1959939","0.0-1.0-717.0-0.0","0","0","80071","","null","","","null","79","","","","","","","","","","","","","","","",""
"","ITI","","html-keyboard-response","524","1960944","0.0-1.0-720.0","0","0","80071","","null","","","null","79","","","","","","","","","","","","","","","NaN",""
"","S1","","html-keyboard-response","525","1961099","0.0-1.0-722.0","0","0","80071","","null","","","null","80","","","","","","","","","","","","","","","",""
"","ISI","","html-keyboard-response","526","1963103","0.0-1.0-723.0","0","0","80071","","null","","","null","80","NaN","","","","","","","","","","","","","","",""
"","S2","","html-keyboard-response","527","1963258","0.0-1.0-724.0","0","0","80071","","null","","","null","80","","NaN","","","","","","","","","","","","","",""
"","response","","html-keyboard-response","528","1963878","0.0-1.0-725.0-0.0","0","0","80071","","616","","","68","80","","","2","80","training","adjacent","FE","6","5","P.jpg","O.jpg","0","0","1","",""
"","feedback","","html-keyboard-response","529","1964882","0.0-1.0-726.0-0.0","0","0","80071","","null","","","null","80","","","","","","","","","","","","","","","",""
"","ITI","","html-keyboard-response","530","1965887","0.0-1.0-729.0","0","0","80071","","null","","","null","80","","","","","","","","","","","","","","","NaN",""
"","S1","","html-keyboard-response","531","1966042","0.0-1.0-731.0","0","0","80071","","null","","","null","81","","","","","","","","","","","","","","","",""
"","ISI","","html-keyboard-response","532","1968047","0.0-1.0-732.0","0","0","80071","","null","","","null","81","NaN","","","","","","","","","","","","","","",""
"","S2","","html-keyboard-response","533","1968201","0.0-1.0-733.0","0","0","80071","","null","","","null","81","","NaN","","","","","","","","","","","","","",""
"","response","","html-keyboard-response","534","1968885","0.0-1.0-734.0-0.0","0","0","80071","","680","","","75","81","","","2","81","training","adjacent","AB","1","2","Q.jpg","N.jpg","1","1","1","",""
"","feedback","","html-keyboard-response","535","1969890","0.0-1.0-735.0-0.0","0","0","80071","","null","","","null","81","","","","","","","","","","","","","","","",""
"","ITI","","html-keyboard-response","536","1970895","0.0-1.0-738.0","0","0","80071","","null","","","null","81","","","","","","","","","","","","","","","NaN",""
"","S1","","html-keyboard-response","537","1971050","0.0-1.0-740.0","0","0","80071","","null","","","null","82","","","","","","","","","","","","","","","",""
"","ISI","","html-keyboard-response","538","1973054","0.0-1.0-741.0","0","0","80071","","null","","","null","82","NaN","","","","","","","","","","","","","","",""
"","S2","","html-keyboard-response","539","1973209","0.0-1.0-742.0","0","0","80071","","null","","","null","82","","NaN","","","","","","","","","","","","","",""
"","response","","html-keyboard-response","540","1973668","0.0-1.0-743.0-0.0","0","0","80071","","455","","","68","82","","","2","82","training","adjacent","FE","6","5","P.jpg","O.jpg","0","0","1","",""
"","feedback","","html-keyboard-response","541","1974675","0.0-1.0-744.0-0.0","0","0","80071","","null","","","null","82","","","","","","","","","","","","","","","",""
"","ITI","","html-keyboard-response","542","1975680","0.0-1.0-747.0","0","0","80071","","null","","","null","82","","","","","","","","","","","","","","","NaN",""
"","S1","","html-keyboard-response","543","1975833","0.0-1.0-749.0","0","0","80071","","null","","","null","83","","","","","","","","","","","","","","","",""
"","ISI","","html-keyboard-response","544","1977838","0.0-1.0-750.0","0","0","80071","","null","","","null","83","NaN","","","","","","","","","","","","","","",""
"","S2","","html-keyboard-response","545","1977993","0.0-1.0-751.0","0","0","80071","","null","","","null","83","","NaN","","","","","","","","","","","","","",""
"","response","","html-keyboard-response","546","1978501","0.0-1.0-752.0-0.0","0","0","80071","","503","","","75","83","","","2","83","training","adjacent","GF","7","6","R.jpg","P.jpg","1","0","0","",""
"","feedback","","html-keyboard-response","547","1979506","0.0-1.0-753.0-0.0","0","0","80071","","null","","","null","83","","","","","","","","","","","","","","","",""
"","time_out","","html-keyboard-response","548","1981511","0.0-1.0-755.0-0.0","0","0","80071","","null","","","null","83","","","","","","","","","","","","","","","",""
"","ITI","","html-keyboard-response","549","1982515","0.0-1.0-756.0","0","0","80071","","null","","","null","83","","","","","","","","","","","","","","","NaN",""
"","S1","","html-keyboard-response","550","1982670","0.0-1.0-758.0","0","0","80071","","null","","","null","84","","","","","","","","","","","","","","","",""
"","ISI","","html-keyboard-response","551","1984675","0.0-1.0-759.0","0","0","80071","","null","","","null","84","NaN","","","","","","","","","","","","","","",""
"","S2","","html-keyboard-response","552","1984829","0.0-1.0-760.0","0","0","80071","","null","","","null","84","","NaN","","","","","","","","","","","","","",""
"","response","","html-keyboard-response","553","1985254","0.0-1.0-761.0-0.0","0","0","80071","","420","","","68","84","","","2","84","training","adjacent","CB","3","2","L.jpg","N.jpg","0","0","1","",""
"","feedback","","html-keyboard-response","554","1986258","0.0-1.0-762.0-0.0","0","0","80071","","null","","","null","84","","","","","","","","","","","","","","","",""
"","ITI","","html-keyboard-response","555","1987264","0.0-1.0-765.0","0","0","80071","","null","","","null","84","","","","","","","","","","","","","","","NaN",""
"","S1","","html-keyboard-response","556","1987418","0.0-1.0-767.0","0","0","80071","","null","","","null","85","","","","","","","","","","","","","","","",""
"","ISI","","html-keyboard-response","557","1989423","0.0-1.0-768.0","0","0","80071","","null","","","null","85","NaN","","","","","","","","","","","","","","",""
"","S2","","html-keyboard-response","558","1989577","0.0-1.0-769.0","0","0","80071","","null","","","null","85","","NaN","","","","","","","","","","","","","",""
"","response","","html-keyboard-response","559","1990308","0.0-1.0-770.0-0.0","0","0","80071","","727","","","75","85","","","2","85","training","adjacent","FE","6","5","P.jpg","O.jpg","1","0","0","",""
"","feedback","","html-keyboard-response","560","1991314","0.0-1.0-771.0-0.0","0","0","80071","","null","","","null","85","","","","","","","","","","","","","","","",""
"","time_out","","html-keyboard-response","561","1993318","0.0-1.0-773.0-0.0","0","0","80071","","null","","","null","85","","","","","","","","","","","","","","","",""
"","ITI","","html-keyboard-response","562","1994322","0.0-1.0-774.0","0","0","80071","","null","","","null","85","","","","","","","","","","","","","","","NaN",""
"","S1","","html-keyboard-response","563","1994478","0.0-1.0-776.0","0","0","80071","","null","","","null","86","","","","","","","","","","","","","","","",""
"","ISI","","html-keyboard-response","564","1996481","0.0-1.0-777.0","0","0","80071","","null","","","null","86","NaN","","","","","","","","","","","","","","",""
"","S2","","html-keyboard-response","565","1996636","0.0-1.0-778.0","0","0","80071","","null","","","null","86","","NaN","","","","","","","","","","","","","",""
"","response","","html-keyboard-response","566","1997277","0.0-1.0-779.0-0.0","0","0","80071","","636","","","68","86","","","2","86","training","adjacent","BC","2","3","N.jpg","L.jpg","0","1","0","",""
"","feedback","","html-keyboard-response","567","1998281","0.0-1.0-780.0-0.0","0","0","80071","","null","","","null","86","","","","","","","","","","","","","","","",""
"","time_out","","html-keyboard-response","568","2000287","0.0-1.0-782.0-0.0","0","0","80071","","null","","","null","86","","","","","","","","","","","","","","","",""
"","ITI","","html-keyboard-response","569","2001292","0.0-1.0-783.0","0","0","80071","","null","","","null","86","","","","","","","","","","","","","","","NaN",""
"","S1","","html-keyboard-response","570","2001447","0.0-1.0-785.0","0","0","80071","","null","","","null","87","","","","","","","","","","","","","","","",""
"","ISI","","html-keyboard-response","571","2003451","0.0-1.0-786.0","0","0","80071","","null","","","null","87","NaN","","","","","","","","","","","","","","",""
"","S2","","html-keyboard-response","572","2003605","0.0-1.0-787.0","0","0","80071","","null","","","null","87","","NaN","","","","","","","","","","","","","",""
"","response","","html-keyboard-response","573","2004045","0.0-1.0-788.0-0.0","0","0","80071","","436","","","75","87","","","2","87","training","adjacent","DE","4","5","M.jpg","O.jpg","1","1","1","",""
"","feedback","","html-keyboard-response","574","2005050","0.0-1.0-789.0-0.0","0","0","80071","","null","","","null","87","","","","","","","","","","","","","","","",""
"","ITI","","html-keyboard-response","575","2006055","0.0-1.0-792.0","0","0","80071","","null","","","null","87","","","","","","","","","","","","","","","NaN",""
"","S1","","html-keyboard-response","576","2006210","0.0-1.0-794.0","0","0","80071","","null","","","null","88","","","","","","","","","","","","","","","",""
"","ISI","","html-keyboard-response","577","2008214","0.0-1.0-795.0","0","0","80071","","null","","","null","88","NaN","","","","","","","","","","","","","","",""
"","S2","","html-keyboard-response","578","2008369","0.0-1.0-796.0","0","0","80071","","null","","","null","88","","NaN","","","","","","","","","","","","","",""
"","response","","html-keyboard-response","579","2009260","0.0-1.0-797.0-0.0","0","0","80071","","887","","","68","88","","","2","88","training","adjacent","EF","5","6","O.jpg","P.jpg","0","1","0","",""
