"success","ttype","start_time","trial_type","trial_index","time_elapsed","internal_node_id","warning","missed_checkup","PID","view_history","rt","responses","repeat_instructions","key_press","index","keypress_isi","keypress_S2","block","trial_num","phase","group_type","pair_type","S1_stim","S2_stim","S1_img","S2_img","S1_chosen","S1_higher","accuracy","keypress_iti","total_bonus_tally"
"true","full_screen","d04152023hr1613","fullscreen","0","5948","0.0-0.0","0","0","81080","","","","","","","","","","","","","","","","","","","","","",""
"","instructions","","instructions","1","38575","0.0-1.0-0.0-0.0","0","0","81080","[{""page_index"":0,""viewing_time"":4083},{""page_index"":1,""viewing_time"":17106},{""page_index"":2,""viewing_time"":8350},{""page_index"":3,""viewing_time"":3085}]","32624","","","","","","","","","","","","","","","","","","","",""
"","comprehension_check","","survey-multi-choice","2","64949","0.0-1.0-0.0-1.0","0","0","81080","","26367","{""Q0"":""True"",""Q1"":""D"",""Q2"":""Only when the screen 'MAKE A CHOICE' is shown"",""Q3"":""Green mark"",""Q4"":""either D or K""}","1","","","","","","","","","","","","","","","","","",""
"","missed_instruction_checkup","","html-keyboard-response","3","66762","0.0-1.0-0.0-2.0-0.0","0","1","81080","","1810","","","32","","","","","","","","","","","","","","","","",""
"","instructions","","instructions","4","83798","0.0-1.0-0.1-0.1","0","0","81080","[{""page_index"":0,""viewing_time"":1606},{""page_index"":1,""viewing_time"":675},{""page_index"":2,""viewing_time"":7957},{""page_index"":3,""viewing_time"":1564},{""page_index"":2,""viewing_time"":631},{""page_index"":1,""viewing_time"":3509},{""page_index"":2,""viewing_time"":546},{""page_index"":3,""viewing_time"":545}]","17033","","","","","","","","","","","","","","","","","","","",""
"","comprehension_check","","survey-multi-choice","5","94452","0.0-1.0-0.1-1.1","0","0","81080","","10649","{""Q0"":""True"",""Q1"":""D"",""Q2"":""Once the second image appears and while the screen 'MAKE A CHOICE' is shown"",""Q3"":""Green mark"",""Q4"":""either D or K""}","0","","","","","","","","","","","","","","","","","",""
"","start_exp","","html-keyboard-response","6","95481","0.0-1.0-1.0","0","0","81080","","1026","","","32","","","","","","","","","","","","","","","","",""
"","S1","","html-keyboard-response","7","95734","0.0-1.0-2.0","0","0","81080","","null","","","null","0","","","","","","","","","","","","","","","",""
"","ISI","","html-keyboard-response","8","96737","0.0-1.0-3.0","0","0","81080","","null","","","null","0","NaN","","","","","","","","","","","","","","",""
"","S2","","html-keyboard-response","9","96990","0.0-1.0-4.0","0","0","81080","","null","","","null","0","","NaN","","","","","","","","","","","","","",""
"","response","","html-keyboard-response","10","97459","0.0-1.0-5.0-0.0","0","0","81080","","466","","","75","0","","","1","0","training","adjacent","EF","5","6","Q.jpg","M.jpg","0","1","0","",""
"","feedback","","html-keyboard-response","11","98462","0.0-1.0-6.0-0.0","0","0","81080","","null","","","null","0","","","","","","","","","","","","","","","",""
"","time_out","","html-keyboard-response","12","100466","0.0-1.0-8.0-0.0","0","0","81080","","null","","","null","0","","","","","","","","","","","","","","","",""
"","ITI","","html-keyboard-response","13","101468","0.0-1.0-9.0","0","0","81080","","528","","","32","0","","","","","","","","","","","","","","","space",""
"","S1","","html-keyboard-response","14","101722","0.0-1.0-11.0","0","0","81080","","null","","","null","1","","","","","","","","","","","","","","","",""
"","ISI","","html-keyboard-response","15","102724","0.0-1.0-12.0","0","0","81080","","null","","","null","1","NaN","","","","","","","","","","","","","","",""
"","S2","","html-keyboard-response","16","102978","0.0-1.0-13.0","0","0","81080","","null","","","null","1","","NaN","","","","","","","","","","","","","",""
"","response","","html-keyboard-response","17","103208","0.0-1.0-14.0-0.0","0","0","81080","","227","","","68","1","","","1","1","training","adjacent","FG","6","7","M.jpg","R.jpg","1","1","1","",""
"","feedback","","html-keyboard-response","18","104211","0.0-1.0-15.0-0.0","0","0","81080","","null","","","null","1","","","","","","","","","","","","","","","",""
"","ITI","","html-keyboard-response","19","105215","0.0-1.0-18.0","0","0","81080","","null","","","null","1","","","","","","","","","","","","","","","NaN",""
"","S1","","html-keyboard-response","20","105468","0.0-1.0-20.0","0","0","81080","","null","","","null","2","","","","","","","","","","","","","","","",""
"","ISI","","html-keyboard-response","21","106471","0.0-1.0-21.0","0","0","81080","","null","","","null","2","NaN","","","","","","","","","","","","","","",""
"","S2","","html-keyboard-response","22","106724","0.0-1.0-22.0","0","0","81080","","null","","","null","2","","NaN","","","","","","","","","","","","","",""
"","response","","html-keyboard-response","23","107247","0.0-1.0-23.0-0.0","0","0","81080","","521","","","75","2","","","1","2","training","adjacent","ED","5","4","Q.jpg","O.jpg","0","0","1","",""
"","feedback","","html-keyboard-response","24","108250","0.0-1.0-24.0-0.0","0","0","81080","","null","","","null","2","","","","","","","","","","","","","","","",""
"","ITI","","html-keyboard-response","25","109252","0.0-1.0-27.0","0","0","81080","","null","","","null","2","","","","","","","","","","","","","","","NaN",""
"","S1","","html-keyboard-response","26","109504","0.0-1.0-29.0","0","0","81080","","null","","","null","3","","","","","","","","","","","","","","","",""
"","ISI","","html-keyboard-response","27","110507","0.0-1.0-30.0","0","0","81080","","null","","","null","3","NaN","","","","","","","","","","","","","","",""
"","S2","","html-keyboard-response","28","110760","0.0-1.0-31.0","0","0","81080","","null","","","null","3","","NaN","","","","","","","","","","","","","",""
"","response","","html-keyboard-response","29","110990","0.0-1.0-32.0-0.0","0","0","81080","","227","","","75","3","","","1","3","training","adjacent","AB","1","2","N.jpg","P.jpg","0","1","0","",""
"","feedback","","html-keyboard-response","30","111993","0.0-1.0-33.0-0.0","0","0","81080","","null","","","null","3","","","","","","","","","","","","","","","",""
"","time_out","","html-keyboard-response","31","113995","0.0-1.0-35.0-0.0","0","0","81080","","null","","","null","3","","","","","","","","","","","","","","","",""
"","ITI","","html-keyboard-response","32","115000","0.0-1.0-36.0","0","0","81080","","null","","","null","3","","","","","","","","","","","","","","","NaN",""
"","S1","","html-keyboard-response","33","115253","0.0-1.0-38.0","0","0","81080","","null","","","null","4","","","","","","","","","","","","","","","",""
"","ISI","","html-keyboard-response","34","116256","0.0-1.0-39.0","0","0","81080","","null","","","null","4","NaN","","","","","","","","","","","","","","",""
"","S2","","html-keyboard-response","35","116509","0.0-1.0-40.0","0","0","81080","","null","","","null","4","","NaN","","","","","","","","","","","","","",""
"","response","","html-keyboard-response","36","116618","0.0-1.0-41.0-0.0","0","0","81080","","105","","","68","4","","","1","4","training","adjacent","DE","4","5","O.jpg","Q.jpg","1","1","1","",""
"","feedback","","html-keyboard-response","37","117621","0.0-1.0-42.0-0.0","0","0","81080","","null","","","null","4","","","","","","","","","","","","","","","",""
"","ITI","","html-keyboard-response","38","118624","0.0-1.0-45.0","0","0","81080","","null","","","null","4","","","","","","","","","","","","","","","NaN",""
"","S1","","html-keyboard-response","39","118877","0.0-1.0-47.0","0","0","81080","","null","","","null","5","","","","","","","","","","","","","","","",""
"","ISI","","html-keyboard-response","40","119880","0.0-1.0-48.0","0","0","81080","","null","","","null","5","NaN","","","","","","","","","","","","","","",""
"","S2","","html-keyboard-response","41","120133","0.0-1.0-49.0","0","0","81080","","null","","","null","5","","NaN","","","","","","","","","","","","","",""
"","response","","html-keyboard-response","42","120429","0.0-1.0-50.0-0.0","0","0","81080","","294","","","75","5","","","1","5","training","adjacent","CD","3","4","L.jpg","O.jpg","0","1","0","",""
"","feedback","","html-keyboard-response","43","121433","0.0-1.0-51.0-0.0","0","0","81080","","null","","","null","5","","","","","","","","","","","","","","","",""
"","time_out","","html-keyboard-response","44","123436","0.0-1.0-53.0-0.0","0","0","81080","","null","","","null","5","","","","","","","","","","","","","","","",""
"","ITI","","html-keyboard-response","45","124439","0.0-1.0-54.0","0","0","81080","","null","","","null","5","","","","","","","","","","","","","","","NaN",""
"","S1","","html-keyboard-response","46","124692","0.0-1.0-56.0","0","0","81080","","null","","","null","6","","","","","","","","","","","","","","","",""
"","ISI","","html-keyboard-response","47","125695","0.0-1.0-57.0","0","0","81080","","null","","","null","6","NaN","","","","","","","","","","","","","","",""
"","S2","","html-keyboard-response","48","125949","0.0-1.0-58.0","0","0","81080","","null","","","null","6","","NaN","","","","","","","","","","","","","",""
"","response","","html-keyboard-response","49","126040","0.0-1.0-59.0-0.0","0","0","81080","","89","","","68","6","","","1","6","training","adjacent","GF","7","6","R.jpg","M.jpg","1","0","0","",""
"","feedback","","html-keyboard-response","50","127043","0.0-1.0-60.0-0.0","0","0","81080","","null","","","null","6","","","","","","","","","","","","","","","",""
"","time_out","","html-keyboard-response","51","129046","0.0-1.0-62.0-0.0","0","0","81080","","null","","","null","6","","","","","","","","","","","","","","","",""
"","ITI","","html-keyboard-response","52","130049","0.0-1.0-63.0","0","0","81080","","null","","","null","6","","","","","","","","","","","","","","","NaN",""
"","S1","","html-keyboard-response","53","130302","0.0-1.0-65.0","0","0","81080","","null","","","null","7","","","","","","","","","","","","","","","",""
"","ISI","","html-keyboard-response","54","131305","0.0-1.0-66.0","0","0","81080","","null","","","null","7","NaN","","","","","","","","","","","","","","",""
"","S2","","html-keyboard-response","55","131558","0.0-1.0-67.0","0","0","81080","","null","","","null","7","","NaN","","","","","","","","","","","","","",""
"","response","","html-keyboard-response","56","131850","0.0-1.0-68.0-0.0","0","0","81080","","288","","","68","7","","","1","7","training","adjacent","FG","6","7","M.jpg","R.jpg","1","1","1","",""
"","feedback","","html-keyboard-response","57","132854","0.0-1.0-69.0-0.0","0","0","81080","","null","","","null","7","","","","","","","","","","","","","","","",""
"","ITI","","html-keyboard-response","58","133856","0.0-1.0-72.0","0","0","81080","","null","","","null","7","","","","","","","","","","","","","","","NaN",""
"","S1","","html-keyboard-response","59","134109","0.0-1.0-74.0","0","0","81080","","null","","","null","8","","","","","","","","","","","","","","","",""
"","ISI","","html-keyboard-response","60","135111","0.0-1.0-75.0","0","0","81080","","null","","","null","8","NaN","","","","","","","","","","","","","","",""
"","S2","","html-keyboard-response","61","135365","0.0-1.0-76.0","0","0","81080","","null","","","null","8","","NaN","","","","","","","","","","","","","",""
"","response","","html-keyboard-response","62","135680","0.0-1.0-77.0-0.0","0","0","81080","","313","","","68","8","","","1","8","training","adjacent","FE","6","5","M.jpg","Q.jpg","1","0","0","",""
"","feedback","","html-keyboard-response","63","136684","0.0-1.0-78.0-0.0","0","0","81080","","null","","","null","8","","","","","","","","","","","","","","","",""
"","time_out","","html-keyboard-response","64","138687","0.0-1.0-80.0-0.0","0","0","81080","","null","","","null","8","","","","","","","","","","","","","","","",""
"","ITI","","html-keyboard-response","65","139691","0.0-1.0-81.0","0","0","81080","","null","","","null","8","","","","","","","","","","","","","","","NaN",""
"","S1","","html-keyboard-response","66","139945","0.0-1.0-83.0","0","0","81080","","null","","","null","9","","","","","","","","","","","","","","","",""
"","ISI","","html-keyboard-response","67","140948","0.0-1.0-84.0","0","0","81080","","null","","","null","9","NaN","","","","","","","","","","","","","","",""
"","S2","","html-keyboard-response","68","141201","0.0-1.0-85.0","0","0","81080","","null","","","null","9","","NaN","","","","","","","","","","","","","",""
"","response","","html-keyboard-response","69","141607","0.0-1.0-86.0-0.0","0","0","81080","","404","","","68","9","","","1","9","training","adjacent","DE","4","5","O.jpg","Q.jpg","1","1","1","",""
"","feedback","","html-keyboard-response","70","142611","0.0-1.0-87.0-0.0","0","0","81080","","null","","","null","9","","","","","","","","","","","","","","","",""
"","ITI","","html-keyboard-response","71","143614","0.0-1.0-90.0","0","0","81080","","null","","","null","9","","","","","","","","","","","","","","","NaN",""
"","S1","","html-keyboard-response","72","143867","0.0-1.0-92.0","0","0","81080","","null","","","null","10","","","","","","","","","","","","","","","",""
"","ISI","","html-keyboard-response","73","144870","0.0-1.0-93.0","0","0","81080","","null","","","null","10","NaN","","","","","","","","","","","","","","",""
"","S2","","html-keyboard-response","74","145123","0.0-1.0-94.0","0","0","81080","","null","","","null","10","","NaN","","","","","","","","","","","","","",""
"","response","","html-keyboard-response","75","145682","0.0-1.0-95.0-0.0","0","0","81080","","558","","","75","10","","","1","10","training","adjacent","BC","2","3","P.jpg","L.jpg","0","1","0","",""
"","feedback","","html-keyboard-response","76","146685","0.0-1.0-96.0-0.0","0","0","81080","","null","","","null","10","","","","","","","","","","","","","","","",""
"","time_out","","html-keyboard-response","77","148688","0.0-1.0-98.0-0.0","0","0","81080","","null","","","null","10","","","","","","","","","","","","","","","",""
"","ITI","","html-keyboard-response","78","149691","0.0-1.0-99.0","0","0","81080","","null","","","null","10","","","","","","","","","","","","","","","NaN",""
"","S1","","html-keyboard-response","79","149944","0.0-1.0-101.0","0","0","81080","","null","","","null","11","","","","","","","","","","","","","","","",""
"","ISI","","html-keyboard-response","80","150947","0.0-1.0-102.0","0","0","81080","","null","","","null","11","NaN","","","","","","","","","","","","","","",""
"","S2","","html-keyboard-response","81","151200","0.0-1.0-103.0","0","0","81080","","null","","","null","11","","NaN","","","","","","","","","","","","","",""
"","response","","html-keyboard-response","82","151800","0.0-1.0-104.0-0.0","0","0","81080","","597","","","75","11","","","1","11","training","adjacent","GF","7","6","R.jpg","M.jpg","0","0","1","",""
"","feedback","","html-keyboard-response","83","152803","0.0-1.0-105.0-0.0","0","0","81080","","null","","","null","11","","","","","","","","","","","","","","","",""
"","ITI","","html-keyboard-response","84","153807","0.0-1.0-108.0","0","0","81080","","null","","","null","11","","","","","","","","","","","","","","","NaN",""
"","S1","","html-keyboard-response","85","154061","0.0-1.0-110.0","0","0","81080","","null","","","null","12","","","","","","","","","","","","","","","",""
"","ISI","","html-keyboard-response","86","155064","0.0-1.0-111.0","0","0","81080","","null","","","null","12","NaN","","","","","","","","","","","","","","",""
"","S2","","html-keyboard-response","87","155317","0.0-1.0-112.0","0","0","81080","","null","","","null","12","","NaN","","","","","","","","","","","","","",""
"","response","","html-keyboard-response","88","155565","0.0-1.0-113.0-0.0","0","0","81080","","246","","","68","12","","","1","12","training","adjacent","BA","2","1","P.jpg","N.jpg","1","0","0","",""
"","feedback","","html-keyboard-response","89","156568","0.0-1.0-114.0-0.0","0","0","81080","","null","","","null","12","","","","","","","","","","","","","","","",""
"","time_out","","html-keyboard-response","90","158571","0.0-1.0-116.0-0.0","0","0","81080","","null","","","null","12","","","","","","","","","","","","","","","",""
"","ITI","","html-keyboard-response","91","159573","0.0-1.0-117.0","0","0","81080","","null","","","null","12","","","","","","","","","","","","","","","NaN",""
"","S1","","html-keyboard-response","92","159827","0.0-1.0-119.0","0","0","81080","","null","","","null","13","","","","","","","","","","","","","","","",""
"","ISI","","html-keyboard-response","93","160829","0.0-1.0-120.0","0","0","81080","","null","","","null","13","NaN","","","","","","","","","","","","","","",""
"","S2","","html-keyboard-response","94","161083","0.0-1.0-121.0","0","0","81080","","null","","","null","13","","NaN","","","","","","","","","","","","","",""
"","response","","html-keyboard-response","95","161195","0.0-1.0-122.0-0.0","0","0","81080","","111","","","75","13","","","1","13","training","adjacent","EF","5","6","Q.jpg","M.jpg","0","1","0","",""
"","feedback","","html-keyboard-response","96","162198","0.0-1.0-123.0-0.0","0","0","81080","","null","","","null","13","","","","","","","","","","","","","","","",""
"","time_out","","html-keyboard-response","97","164201","0.0-1.0-125.0-0.0","0","0","81080","","null","","","null","13","","","","","","","","","","","","","","","",""
"","ITI","","html-keyboard-response","98","165204","0.0-1.0-126.0","0","0","81080","","null","","","null","13","","","","","","","","","","","","","","","NaN",""
"","S1","","html-keyboard-response","99","165457","0.0-1.0-128.0","0","0","81080","","null","","","null","14","","","","","","","","","","","","","","","",""
"","ISI","","html-keyboard-response","100","166460","0.0-1.0-129.0","0","0","81080","","null","","","null","14","NaN","","","","","","","","","","","","","","",""
"","S2","","html-keyboard-response","101","166714","0.0-1.0-130.0","0","0","81080","","null","","","null","14","","NaN","","","","","","","","","","","","","",""
"","response","","html-keyboard-response","102","166863","0.0-1.0-131.0-0.0","0","0","81080","","146","","","68","14","","","1","14","training","adjacent","BA","2","1","P.jpg","N.jpg","1","0","0","",""
"","feedback","","html-keyboard-response","103","167865","0.0-1.0-132.0-0.0","0","0","81080","","null","","","null","14","","","","","","","","","","","","","","","",""
"","time_out","","html-keyboard-response","104","169868","0.0-1.0-134.0-0.0","0","0","81080","","null","","","null","14","","","","","","","","","","","","","","","",""
"","ITI","","html-keyboard-response","105","170872","0.0-1.0-135.0","0","0","81080","","null","","","null","14","","","","","","","","","","","","","","","NaN",""
"","S1","","html-keyboard-response","106","171125","0.0-1.0-137.0","0","0","81080","","null","","","null","15","","","","","","","","","","","","","","","",""
"","ISI","","html-keyboard-response","107","172128","0.0-1.0-138.0","0","0","81080","","null","","","null","15","NaN","","","","","","","","","","","","","","",""
"","S2","","html-keyboard-response","108","172381","0.0-1.0-139.0","0","0","81080","","null","","","null","15","","NaN","","","","","","","","","","","","","",""
"","response","","html-keyboard-response","109","172462","0.0-1.0-140.0-0.0","0","0","81080","","79","","","75","15","","","1","15","training","adjacent","BA","2","1","P.jpg","N.jpg","0","0","1","",""
"","feedback","","html-keyboard-response","110","173465","0.0-1.0-141.0-0.0","0","0","81080","","null","","","null","15","","","","","","","","","","","","","","","",""
"","ITI","","html-keyboard-response","111","174469","0.0-1.0-144.0","0","0","81080","","null","","","null","15","","","","","","","","","","","","","","","NaN",""
"","S1","","html-keyboard-response","112","174722","0.0-1.0-146.0","0","0","81080","","null","","","null","16","","","","","","","","","","","","","","","",""
"","ISI","","html-keyboard-response","113","175726","0.0-1.0-147.0","0","0","81080","","null","","","null","16","NaN","","","","","","","","","","","","","","",""
"","S2","","html-keyboard-response","114","175979","0.0-1.0-148.0","0","0","81080","","null","","","null","16","","NaN","","","","","","","","","","","","","",""
"","response","","html-keyboard-response","115","176092","0.0-1.0-149.0-0.0","0","0","81080","","111","","","75","16","","","1","16","training","adjacent","CB","3","2","L.jpg","P.jpg","0","0","1","",""
"","feedback","","html-keyboard-response","116","177094","0.0-1.0-150.0-0.0","0","0","81080","","null","","","null","16","","","","","","","","","","","","","","","",""
"","ITI","","html-keyboard-response","117","178098","0.0-1.0-153.0","0","0","81080","","null","","","null","16","","","","","","","","","","","","","","","NaN",""
"","S1","","html-keyboard-response","118","178352","0.0-1.0-155.0","0","0","81080","","null","","","null","17","","","","","","","","","","","","","","","",""
"","ISI","","html-keyboard-response","119","179356","0.0-1.0-156.0","0","0","81080","","null","","","null","17","NaN","","","","","","","","","","","","","","",""
"","S2","","html-keyboard-response","120","179609","0.0-1.0-157.0","0","0","81080","","null","","","null","17","","NaN","","","","","","","","","","","","","",""
"","response","","html-keyboard-response","121","179909","0.0-1.0-158.0-0.0","0","0","81080","","298","","","68","17","","","1","17","training","adjacent","DC","4","3","O.jpg","L.jpg","1","0","0","",""
"","feedback","","html-keyboard-response","122","180913","0.0-1.0-159.0-0.0","0","0","81080","","null","","","null","17","","","","","","","","","","","","","","","",""
"","time_out","","html-keyboard-response","123","182916","0.0-1.0-161.0-0.0","0","0","81080","","null","","","null","17","","","","","","","","","","","","","","","",""
"","ITI","","html-keyboard-response","124","183919","0.0-1.0-162.0","0","0","81080","","null","","","null","17","","","","","","","","","","","","","","","NaN",""
"","S1","","html-keyboard-response","125","184173","0.0-1.0-164.0","0","0","81080","","null","","","null","18","","","","","","","","","","","","","","","",""
"","ISI","","html-keyboard-response","126","185176","0.0-1.0-165.0","0","0","81080","","null","","","null","18","NaN","","","","","","","","","","","","","","",""
"","S2","","html-keyboard-response","127","185430","0.0-1.0-166.0","0","0","81080","","null","","","null","18","","NaN","","","","","","","","","","","","","",""
"","response","","html-keyboard-response","128","185682","0.0-1.0-167.0-0.0","0","0","81080","","250","","","68","18","","","1","18","training","adjacent","FG","6","7","M.jpg","R.jpg","1","1","1","",""
"","feedback","","html-keyboard-response","129","186684","0.0-1.0-168.0-0.0","0","0","81080","","null","","","null","18","","","","","","","","","","","","","","","",""
"","ITI","","html-keyboard-response","130","187689","0.0-1.0-171.0","0","0","81080","","null","","","null","18","","","","","","","","","","","","","","","NaN",""
"","S1","","html-keyboard-response","131","187940","0.0-1.0-173.0","0","0","81080","","null","","","null","19","","","","","","","","","","","","","","","",""
"","ISI","","html-keyboard-response","132","188943","0.0-1.0-174.0","0","0","81080","","null","","","null","19","NaN","","","","","","","","","","","","","","",""
"","S2","","html-keyboard-response","133","189197","0.0-1.0-175.0","0","0","81080","","null","","","null","19","","NaN","","","","","","","","","","","","","",""
"","response","","html-keyboard-response","134","189304","0.0-1.0-176.0-0.0","0","0","81080","","106","","","75","19","","","1","19","training","adjacent","FE","6","5","M.jpg","Q.jpg","0","0","1","",""
"","feedback","","html-keyboard-response","135","190308","0.0-1.0-177.0-0.0","0","0","81080","","null","","","null","19","","","","","","","","","","","","","","","",""
"","ITI","","html-keyboard-response","136","191311","0.0-1.0-180.0","0","0","81080","","null","","","null","19","","","","","","","","","","","","","","","NaN",""
"","S1","","html-keyboard-response","137","191563","0.0-1.0-182.0","0","0","81080","","null","","","null","20","","","","","","","","","","","","","","","",""
"","ISI","","html-keyboard-response","138","192568","0.0-1.0-183.0","0","0","81080","","null","","","null","20","NaN","","","","","","","","","","","","","","",""
"","S2","","html-keyboard-response","139","192821","0.0-1.0-184.0","0","0","81080","","null","","","null","20","","NaN","","","","","","","","","","","","","",""
"","response","","html-keyboard-response","140","193205","0.0-1.0-185.0-0.0","0","0","81080","","383","","","75","20","","","1","20","training","adjacent","DE","4","5","O.jpg","Q.jpg","0","1","0","",""
"","feedback","","html-keyboard-response","141","194208","0.0-1.0-186.0-0.0","0","0","81080","","null","","","null","20","","","","","","","","","","","","","","","",""
"","time_out","","html-keyboard-response","142","196211","0.0-1.0-188.0-0.0","0","0","81080","","null","","","null","20","","","","","","","","","","","","","","","",""
"","ITI","","html-keyboard-response","143","197214","0.0-1.0-189.0","0","0","81080","","null","","","null","20","","","","","","","","","","","","","","","NaN",""
"","S1","","html-keyboard-response","144","197466","0.0-1.0-191.0","0","0","81080","","null","","","null","21","","","","","","","","","","","","","","","",""
"","ISI","","html-keyboard-response","145","198469","0.0-1.0-192.0","0","0","81080","","null","","","null","21","NaN","","","","","","","","","","","","","","",""
"","S2","","html-keyboard-response","146","198723","0.0-1.0-193.0","0","0","81080","","null","","","null","21","","NaN","","","","","","","","","","","","","",""
"","response","","html-keyboard-response","147","199259","0.0-1.0-194.0-0.0","0","0","81080","","534","","","68","21","","","1","21","training","adjacent","EF","5","6","Q.jpg","M.jpg","1","1","1","",""
"","feedback","","html-keyboard-response","148","200262","0.0-1.0-195.0-0.0","0","0","81080","","null","","","null","21","","","","","","","","","","","","","","","",""
"","ITI","","html-keyboard-response","149","201266","0.0-1.0-198.0","0","0","81080","","null","","","null","21","","","","","","","","","","","","","","","NaN",""
"","S1","","html-keyboard-response","150","201519","0.0-1.0-200.0","0","0","81080","","null","","","null","22","","","","","","","","","","","","","","","",""
"","ISI","","html-keyboard-response","151","202522","0.0-1.0-201.0","0","0","81080","","null","","","null","22","NaN","","","","","","","","","","","","","","",""
"","S2","","html-keyboard-response","152","202775","0.0-1.0-202.0","0","0","81080","","null","","","null","22","","NaN","","","","","","","","","","","","","",""
"","response","","html-keyboard-response","153","203096","0.0-1.0-203.0-0.0","0","0","81080","","318","","","75","22","","","1","22","training","adjacent","BC","2","3","P.jpg","L.jpg","0","1","0","",""
"","feedback","","html-keyboard-response","154","204099","0.0-1.0-204.0-0.0","0","0","81080","","null","","","null","22","","","","","","","","","","","","","","","",""
"","time_out","","html-keyboard-response","155","206102","0.0-1.0-206.0-0.0","0","0","81080","","null","","","null","22","","","","","","","","","","","","","","","",""
"","ITI","","html-keyboard-response","156","207104","0.0-1.0-207.0","0","0","81080","","null","","","null","22","","","","","","","","","","","","","","","NaN",""
"","S1","","html-keyboard-response","157","207358","0.0-1.0-209.0","0","0","81080","","null","","","null","23","","","","","","","","","","","","","","","",""
"","ISI","","html-keyboard-response","158","208361","0.0-1.0-210.0","0","0","81080","","null","","","null","23","NaN","","","","","","","","","","","","","","",""
"","S2","","html-keyboard-response","159","208614","0.0-1.0-211.0","0","0","81080","","null","","","null","23","","NaN","","","","","","","","","","","","","",""
"","response","","html-keyboard-response","160","208998","0.0-1.0-212.0-0.0","0","0","81080","","382","","","75","23","","","1","23","training","adjacent","FE","6","5","M.jpg","Q.jpg","0","0","1","",""
"","feedback","","html-keyboard-response","161","210001","0.0-1.0-213.0-0.0","0","0","81080","","null","","","null","23","","","","","","","","","","","","","","","",""
"","ITI","","html-keyboard-response","162","211004","0.0-1.0-216.0","0","0","81080","","null","","","null","23","","","","","","","","","","","","","","","NaN",""
"","S1","","html-keyboard-response","163","211257","0.0-1.0-218.0","0","0","81080","","null","","","null","24","","","","","","","","","","","","","","","",""
"","ISI","","html-keyboard-response","164","212260","0.0-1.0-219.0","0","0","81080","","null","","","null","24","NaN","","","","","","","","","","","","","","",""
"","S2","","html-keyboard-response","165","212523","0.0-1.0-220.0","0","0","81080","","null","","","null","24","","NaN","","","","","","","","","","","","","",""
"","response","","html-keyboard-response","166","213093","0.0-1.0-221.0-0.0","0","0","81080","","567","","","68","24","","","1","24","training","adjacent","AB","1","2","N.jpg","P.jpg","1","1","1","",""
"","feedback","","html-keyboard-response","167","214096","0.0-1.0-222.0-0.0","0","0","81080","","null","","","null","24","","","","","","","","","","","","","","","",""
"","ITI","","html-keyboard-response","168","215099","0.0-1.0-225.0","0","0","81080","","null","","","null","24","","","","","","","","","","","","","","","NaN",""
"","S1","","html-keyboard-response","169","215353","0.0-1.0-227.0","0","0","81080","","null","","","null","25","","","","","","","","","","","","","","","",""
"","ISI","","html-keyboard-response","170","216356","0.0-1.0-228.0","0","0","81080","","null","","","null","25","NaN","","","","","","","","","","","","","","",""
"","S2","","html-keyboard-response","171","216608","0.0-1.0-229.0","0","0","81080","","null","","","null","25","","NaN","","","","","","","","","","","","","",""
"","response","","html-keyboard-response","172","217620","0.0-1.0-230.0-0.0","0","0","81080","","1010","","","75","25","","","1","25","training","adjacent","CD","3","4","L.jpg","O.jpg","0","1","0","",""
"","feedback","","html-keyboard-response","173","218624","0.0-1.0-231.0-0.0","0","0","81080","","null","","","null","25","","","","","","","","","","","","","","","",""
"","time_out","","html-keyboard-response","174","220627","0.0-1.0-233.0-0.0","0","0","81080","","null","","","null","25","","","","","","","","","","","","","","","",""
"","ITI","","html-keyboard-response","175","221631","0.0-1.0-234.0","0","0","81080","","null","","","null","25","","","","","","","","","","","","","","","NaN",""
"","S1","","html-keyboard-response","176","221885","0.0-1.0-236.0","0","0","81080","","null","","","null","26","","","","","","","","","","","","","","","",""
"","ISI","","html-keyboard-response","177","222889","0.0-1.0-237.0","0","0","81080","","null","","","null","26","NaN","","","","","","","","","","","","","","",""
"","S2","","html-keyboard-response","178","223142","0.0-1.0-238.0","0","0","81080","","null","","","null","26","","NaN","","","","","","","","","","","","","",""
"","response","","html-keyboard-response","179","223650","0.0-1.0-239.0-0.0","0","0","81080","","505","","","68","26","","","1","26","training","adjacent","CB","3","2","L.jpg","P.jpg","1","0","0","",""
"","feedback","","html-keyboard-response","180","224654","0.0-1.0-240.0-0.0","0","0","81080","","null","","","null","26","","","","","","","","","","","","","","","",""
"","time_out","","html-keyboard-response","181","226658","0.0-1.0-242.0-0.0","0","0","81080","","null","","","null","26","","","","","","","","","","","","","","","",""
"","ITI","","html-keyboard-response","182","227671","0.0-1.0-243.0","0","0","81080","","null","","","null","26","","","","","","","","","","","","","","","NaN",""
"","S1","","html-keyboard-response","183","227924","0.0-1.0-245.0","0","0","81080","","null","","","null","27","","","","","","","","","","","","","","","",""
"","ISI","","html-keyboard-response","184","228928","0.0-1.0-246.0","0","0","81080","","null","","","null","27","NaN","","","","","","","","","","","","","","",""
"","S2","","html-keyboard-response","185","229181","0.0-1.0-247.0","0","0","81080","","null","","","null","27","","NaN","","","","","","","","","","","","","",""
"","response","","html-keyboard-response","186","229770","0.0-1.0-248.0-0.0","0","0","81080","","587","","","68","27","","","1","27","training","adjacent","AB","1","2","N.jpg","P.jpg","1","1","1","",""
"","feedback","","html-keyboard-response","187","230773","0.0-1.0-249.0-0.0","0","0","81080","","null","","","null","27","","","","","","","","","","","","","","","",""
"","ITI","","html-keyboard-response","188","231776","0.0-1.0-252.0","0","0","81080","","null","","","null","27","","","","","","","","","","","","","","","NaN",""
"","S1","","html-keyboard-response","189","232029","0.0-1.0-254.0","0","0","81080","","null","","","null","28","","","","","","","","","","","","","","","",""
"","ISI","","html-keyboard-response","190","233032","0.0-1.0-255.0","0","0","81080","","null","","","null","28","NaN","","","","","","","","","","","","","","",""
"","S2","","html-keyboard-response","191","233285","0.0-1.0-256.0","0","0","81080","","null","","","null","28","","NaN","","","","","","","","","","","","","",""
"","response","","html-keyboard-response","192","233529","0.0-1.0-257.0-0.0","0","0","81080","","242","","","68","28","","","1","28","training","adjacent","GF","7","6","R.jpg","M.jpg","1","0","0","",""
"","feedback","","html-keyboard-response","193","234532","0.0-1.0-258.0-0.0","0","0","81080","","null","","","null","28","","","","","","","","","","","","","","","",""
"","time_out","","html-keyboard-response","194","236535","0.0-1.0-260.0-0.0","0","0","81080","","null","","","null","28","","","","","","","","","","","","","","","",""
"","ITI","","html-keyboard-response","195","237537","0.0-1.0-261.0","0","0","81080","","null","","","null","28","","","","","","","","","","","","","","","NaN",""
"","S1","","html-keyboard-response","196","237791","0.0-1.0-263.0","0","0","81080","","null","","","null","29","","","","","","","","","","","","","","","",""
"","ISI","","html-keyboard-response","197","238794","0.0-1.0-264.0","0","0","81080","","489","","","75","29","k","","","","","","","","","","","","","","",""
"","S2","","html-keyboard-response","198","239048","0.0-1.0-265.0","0","0","81080","","null","","","null","29","","NaN","","","","","","","","","","","","","",""
"","response","","html-keyboard-response","199","239530","0.0-1.0-266.0-0.0","0","0","81080","","480","","","75","29","","","1","29","training","adjacent","DC","4","3","O.jpg","L.jpg","0","0","1","",""
"","feedback","","html-keyboard-response","200","240540","0.0-1.0-267.0-0.0","0","0","81080","","null","","","null","29","","","","","","","","","","","","","","","",""
"","ITI","","html-keyboard-response","201","241543","0.0-1.0-270.0","0","0","81080","","null","","","null","29","","","","","","","","","","","","","","","NaN",""
"","S1","","html-keyboard-response","202","241796","0.0-1.0-272.0","0","0","81080","","null","","","null","30","","","","","","","","","","","","","","","",""
"","ISI","","html-keyboard-response","203","242799","0.0-1.0-273.0","0","0","81080","","null","","","null","30","NaN","","","","","","","","","","","","","","",""
"","S2","","html-keyboard-response","204","243053","0.0-1.0-274.0","0","0","81080","","null","","","null","30","","NaN","","","","","","","","","","","","","",""
"","response","","html-keyboard-response","205","243734","0.0-1.0-275.0-0.0","0","0","81080","","679","","","68","30","","","1","30","training","adjacent","DC","4","3","O.jpg","L.jpg","1","0","0","",""
"","feedback","","html-keyboard-response","206","244737","0.0-1.0-276.0-0.0","0","0","81080","","null","","","null","30","","","","","","","","","","","","","","","",""
"","time_out","","html-keyboard-response","207","246741","0.0-1.0-278.0-0.0","0","0","81080","","null","","","null","30","","","","","","","","","","","","","","","",""
"","ITI","","html-keyboard-response","208","247744","0.0-1.0-279.0","0","0","81080","","null","","","null","30","","","","","","","","","","","","","","","NaN",""
"","S1","","html-keyboard-response","209","247998","0.0-1.0-281.0","0","0","81080","","null","","","null","31","","","","","","","","","","","","","","","",""
"","ISI","","html-keyboard-response","210","249001","0.0-1.0-282.0","0","0","81080","","null","","","null","31","NaN","","","","","","","","","","","","","","",""
"","S2","","html-keyboard-response","211","249255","0.0-1.0-283.0","0","0","81080","","null","","","null","31","","NaN","","","","","","","","","","","","","",""
"","response","","html-keyboard-response","212","249582","0.0-1.0-284.0-0.0","0","0","81080","","324","","","68","31","","","1","31","training","adjacent","ED","5","4","Q.jpg","O.jpg","1","0","0","",""
"","feedback","","html-keyboard-response","213","250586","0.0-1.0-285.0-0.0","0","0","81080","","null","","","null","31","","","","","","","","","","","","","","","",""
"","time_out","","html-keyboard-response","214","252589","0.0-1.0-287.0-0.0","0","0","81080","","null","","","null","31","","","","","","","","","","","","","","","",""
"","ITI","","html-keyboard-response","215","253592","0.0-1.0-288.0","0","0","81080","","null","","","null","31","","","","","","","","","","","","","","","NaN",""
"","S1","","html-keyboard-response","216","253844","0.0-1.0-290.0","0","0","81080","","null","","","null","32","","","","","","","","","","","","","","","",""
"","ISI","","html-keyboard-response","217","254847","0.0-1.0-291.0","0","0","81080","","null","","","null","32","NaN","","","","","","","","","","","","","","",""
"","S2","","html-keyboard-response","218","255101","0.0-1.0-292.0","0","0","81080","","null","","","null","32","","NaN","","","","","","","","","","","","","",""
"","response","","html-keyboard-response","219","255365","0.0-1.0-293.0-0.0","0","0","81080","","263","","","75","32","","","1","32","training","adjacent","BC","2","3","P.jpg","L.jpg","0","1","0","",""
"","feedback","","html-keyboard-response","220","256368","0.0-1.0-294.0-0.0","0","0","81080","","null","","","null","32","","","","","","","","","","","","","","","",""
"","time_out","","html-keyboard-response","221","258372","0.0-1.0-296.0-0.0","0","0","81080","","null","","","null","32","","","","","","","","","","","","","","","",""
"","ITI","","html-keyboard-response","222","259374","0.0-1.0-297.0","0","0","81080","","null","","","null","32","","","","","","","","","","","","","","","NaN",""
"","S1","","html-keyboard-response","223","259628","0.0-1.0-299.0","0","0","81080","","null","","","null","33","","","","","","","","","","","","","","","",""
"","ISI","","html-keyboard-response","224","260631","0.0-1.0-300.0","0","0","81080","","null","","","null","33","NaN","","","","","","","","","","","","","","",""
"","S2","","html-keyboard-response","225","260885","0.0-1.0-301.0","0","0","81080","","null","","","null","33","","NaN","","","","","","","","","","","","","",""
"","response","","html-keyboard-response","226","261210","0.0-1.0-302.0-0.0","0","0","81080","","324","","","68","33","","","1","33","training","adjacent","EF","5","6","Q.jpg","M.jpg","1","1","1","",""
"","feedback","","html-keyboard-response","227","262213","0.0-1.0-303.0-0.0","0","0","81080","","null","","","null","33","","","","","","","","","","","","","","","",""
"","ITI","","html-keyboard-response","228","263217","0.0-1.0-306.0","0","0","81080","","null","","","null","33","","","","","","","","","","","","","","","NaN",""
"","S1","","html-keyboard-response","229","263470","0.0-1.0-308.0","0","0","81080","","null","","","null","34","","","","","","","","","","","","","","","",""
"","ISI","","html-keyboard-response","230","264473","0.0-1.0-309.0","0","0","81080","","null","","","null","34","NaN","","","","","","","","","","","","","","",""
"","S2","","html-keyboard-response","231","264725","0.0-1.0-310.0","0","0","81080","","null","","","null","34","","NaN","","","","","","","","","","","","","",""
"","response","","html-keyboard-response","232","265377","0.0-1.0-311.0-0.0","0","0","81080","","649","","","68","34","","","1","34","training","adjacent","DE","4","5","O.jpg","Q.jpg","1","1","1","",""
"","feedback","","html-keyboard-response","233","266380","0.0-1.0-312.0-0.0","0","0","81080","","null","","","null","34","","","","","","","","","","","","","","","",""
"","ITI","","html-keyboard-response","234","267383","0.0-1.0-315.0","0","0","81080","","null","","","null","34","","","","","","","","","","","","","","","NaN",""
"","S1","","html-keyboard-response","235","267646","0.0-1.0-317.0","0","0","81080","","null","","","null","35","","","","","","","","","","","","","","","",""
"","ISI","","html-keyboard-response","236","268650","0.0-1.0-318.0","0","0","81080","","null","","","null","35","NaN","","","","","","","","","","","","","","",""
"","S2","","html-keyboard-response","237","268904","0.0-1.0-319.0","0","0","81080","","null","","","null","35","","NaN","","","","","","","","","","","","","",""
"","response","","html-keyboard-response","238","269534","0.0-1.0-320.0-0.0","0","0","81080","","629","","","75","35","","","1","35","training","adjacent","CB","3","2","L.jpg","P.jpg","0","0","1","",""
"","feedback","","html-keyboard-response","239","270537","0.0-1.0-321.0-0.0","0","0","81080","","null","","","null","35","","","","","","","","","","","","","","","",""
"","ITI","","html-keyboard-response","240","271541","0.0-1.0-324.0","0","0","81080","","null","","","null","35","","","","","","","","","","","","","","","NaN",""
"","S1","","html-keyboard-response","241","271793","0.0-1.0-326.0","0","0","81080","","null","","","null","36","","","","","","","","","","","","","","","",""
"","ISI","","html-keyboard-response","242","272796","0.0-1.0-327.0","0","0","81080","","null","","","null","36","NaN","","","","","","","","","","","","","","",""
"","S2","","html-keyboard-response","243","273049","0.0-1.0-328.0","0","0","81080","","null","","","null","36","","NaN","","","","","","","","","","","","","",""
"","response","","html-keyboard-response","244","273561","0.0-1.0-329.0-0.0","0","0","81080","","509","","","75","36","","","1","36","training","adjacent","GF","7","6","R.jpg","M.jpg","0","0","1","",""
"","feedback","","html-keyboard-response","245","274564","0.0-1.0-330.0-0.0","0","0","81080","","null","","","null","36","","","","","","","","","","","","","","","",""
"","ITI","","html-keyboard-response","246","275567","0.0-1.0-333.0","0","0","81080","","null","","","null","36","","","","","","","","","","","","","","","NaN",""
"","S1","","html-keyboard-response","247","275821","0.0-1.0-335.0","0","0","81080","","null","","","null","37","","","","","","","","","","","","","","","",""
"","ISI","","html-keyboard-response","248","276823","0.0-1.0-336.0","0","0","81080","","null","","","null","37","NaN","","","","","","","","","","","","","","",""
"","S2","","html-keyboard-response","249","277077","0.0-1.0-337.0","0","0","81080","","null","","","null","37","","NaN","","","","","","","","","","","","","",""
"","response","","html-keyboard-response","250","277393","0.0-1.0-338.0-0.0","0","0","81080","","313","","","68","37","","","1","37","training","adjacent","CD","3","4","L.jpg","O.jpg","1","1","1","",""
"","feedback","","html-keyboard-response","251","278397","0.0-1.0-339.0-0.0","0","0","81080","","null","","","null","37","","","","","","","","","","","","","","","",""
"","ITI","","html-keyboard-response","252","279400","0.0-1.0-342.0","0","0","81080","","null","","","null","37","","","","","","","","","","","","","","","NaN",""
"","S1","","html-keyboard-response","253","279655","0.0-1.0-344.0","0","0","81080","","null","","","null","38","","","","","","","","","","","","","","","",""
"","ISI","","html-keyboard-response","254","280657","0.0-1.0-345.0","0","0","81080","","null","","","null","38","NaN","","","","","","","","","","","","","","",""
"","S2","","html-keyboard-response","255","280911","0.0-1.0-346.0","0","0","81080","","null","","","null","38","","NaN","","","","","","","","","","","","","",""
"","response","","html-keyboard-response","256","281412","0.0-1.0-347.0-0.0","0","0","81080","","499","","","75","38","","","1","38","training","adjacent","CD","3","4","L.jpg","O.jpg","0","1","0","",""
"","feedback","","html-keyboard-response","257","282414","0.0-1.0-348.0-0.0","0","0","81080","","null","","","null","38","","","","","","","","","","","","","","","",""
"","time_out","","html-keyboard-response","258","284417","0.0-1.0-350.0-0.0","0","0","81080","","null","","","null","38","","","","","","","","","","","","","","","",""
"","ITI","","html-keyboard-response","259","285420","0.0-1.0-351.0","0","0","81080","","null","","","null","38","","","","","","","","","","","","","","","NaN",""
"","S1","","html-keyboard-response","260","285682","0.0-1.0-353.0","0","0","81080","","null","","","null","39","","","","","","","","","","","","","","","",""
"","ISI","","html-keyboard-response","261","286684","0.0-1.0-354.0","0","0","81080","","null","","","null","39","NaN","","","","","","","","","","","","","","",""
"","S2","","html-keyboard-response","262","286939","0.0-1.0-355.0","0","0","81080","","null","","","null","39","","NaN","","","","","","","","","","","","","",""
"","response","","html-keyboard-response","263","287630","0.0-1.0-356.0-0.0","0","0","81080","","690","","","75","39","","","1","39","training","adjacent","BA","2","1","P.jpg","N.jpg","0","0","1","",""
"","feedback","","html-keyboard-response","264","288634","0.0-1.0-357.0-0.0","0","0","81080","","null","","","null","39","","","","","","","","","","","","","","","",""
"","ITI","","html-keyboard-response","265","289637","0.0-1.0-360.0","0","0","81080","","null","","","null","39","","","","","","","","","","","","","","","NaN",""
"","S1","","html-keyboard-response","266","289890","0.0-1.0-362.0","0","0","81080","","null","","","null","40","","","","","","","","","","","","","","","",""
"","ISI","","html-keyboard-response","267","290892","0.0-1.0-363.0","0","0","81080","","null","","","null","40","NaN","","","","","","","","","","","","","","",""
"","S2","","html-keyboard-response","268","291146","0.0-1.0-364.0","0","0","81080","","null","","","null","40","","NaN","","","","","","","","","","","","","",""
"","response","","html-keyboard-response","269","291703","0.0-1.0-365.0-0.0","0","0","81080","","556","","","75","40","","","1","40","training","adjacent","BC","2","3","P.jpg","L.jpg","0","1","0","",""
"","feedback","","html-keyboard-response","270","292706","0.0-1.0-366.0-0.0","0","0","81080","","null","","","null","40","","","","","","","","","","","","","","","",""
"","time_out","","html-keyboard-response","271","294709","0.0-1.0-368.0-0.0","0","0","81080","","null","","","null","40","","","","","","","","","","","","","","","",""
"","ITI","","html-keyboard-response","272","295712","0.0-1.0-369.0","0","0","81080","","null","","","null","40","","","","","","","","","","","","","","","NaN",""
"","S1","","html-keyboard-response","273","295965","0.0-1.0-371.0","0","0","81080","","null","","","null","41","","","","","","","","","","","","","","","",""
"","ISI","","html-keyboard-response","274","296969","0.0-1.0-372.0","0","0","81080","","null","","","null","41","NaN","","","","","","","","","","","","","","",""
"","S2","","html-keyboard-response","275","297222","0.0-1.0-373.0","0","0","81080","","null","","","null","41","","NaN","","","","","","","","","","","","","",""
"","response","","html-keyboard-response","276","297776","0.0-1.0-374.0-0.0","0","0","81080","","551","","","68","41","","","1","41","training","adjacent","ED","5","4","Q.jpg","O.jpg","1","0","0","",""
"","feedback","","html-keyboard-response","277","298779","0.0-1.0-375.0-0.0","0","0","81080","","null","","","null","41","","","","","","","","","","","","","","","",""
"","time_out","","html-keyboard-response","278","300782","0.0-1.0-377.0-0.0","0","0","81080","","null","","","null","41","","","","","","","","","","","","","","","",""
"","ITI","","html-keyboard-response","279","301786","0.0-1.0-378.0","0","0","81080","","null","","","null","41","","","","","","","","","","","","","","","NaN",""
"","S1","","html-keyboard-response","280","302040","0.0-1.0-380.0","0","0","81080","","null","","","null","42","","","","","","","","","","","","","","","",""
"","ISI","","html-keyboard-response","281","303043","0.0-1.0-381.0","0","0","81080","","null","","","null","42","NaN","","","","","","","","","","","","","","",""
"","S2","","html-keyboard-response","282","303296","0.0-1.0-382.0","0","0","81080","","null","","","null","42","","NaN","","","","","","","","","","","","","",""
"","response","","html-keyboard-response","283","303778","0.0-1.0-383.0-0.0","0","0","81080","","479","","","68","42","","","1","42","training","adjacent","FE","6","5","M.jpg","Q.jpg","1","0","0","",""
"","feedback","","html-keyboard-response","284","304781","0.0-1.0-384.0-0.0","0","0","81080","","null","","","null","42","","","","","","","","","","","","","","","",""
"","time_out","","html-keyboard-response","285","306784","0.0-1.0-386.0-0.0","0","0","81080","","null","","","null","42","","","","","","","","","","","","","","","",""
"","ITI","","html-keyboard-response","286","307787","0.0-1.0-387.0","0","0","81080","","null","","","null","42","","","","","","","","","","","","","","","NaN",""
"","S1","","html-keyboard-response","287","308040","0.0-1.0-389.0","0","0","81080","","null","","","null","43","","","","","","","","","","","","","","","",""
"","ISI","","html-keyboard-response","288","309043","0.0-1.0-390.0","0","0","81080","","null","","","null","43","NaN","","","","","","","","","","","","","","",""
"","S2","","html-keyboard-response","289","309295","0.0-1.0-391.0","0","0","81080","","null","","","null","43","","NaN","","","","","","","","","","","","","",""
"","response","","html-keyboard-response","290","309824","0.0-1.0-392.0-0.0","0","0","81080","","527","","","75","43","","","1","43","training","adjacent","AB","1","2","N.jpg","P.jpg","0","1","0","",""
"","feedback","","html-keyboard-response","291","310828","0.0-1.0-393.0-0.0","0","0","81080","","null","","","null","43","","","","","","","","","","","","","","","",""
"","time_out","","html-keyboard-response","292","312832","0.0-1.0-395.0-0.0","0","0","81080","","null","","","null","43","","","","","","","","","","","","","","","",""
"","ITI","","html-keyboard-response","293","313835","0.0-1.0-396.0","0","0","81080","","null","","","null","43","","","","","","","","","","","","","","","NaN",""
"","S1","","html-keyboard-response","294","314088","0.0-1.0-398.0","0","0","81080","","null","","","null","44","","","","","","","","","","","","","","","",""
"","ISI","","html-keyboard-response","295","315091","0.0-1.0-399.0","0","0","81080","","null","","","null","44","NaN","","","","","","","","","","","","","","",""
"","S2","","html-keyboard-response","296","315344","0.0-1.0-400.0","0","0","81080","","null","","","null","44","","NaN","","","","","","","","","","","","","",""
"","response","","html-keyboard-response","297","315580","0.0-1.0-401.0-0.0","0","0","81080","","233","","","68","44","","","1","44","training","adjacent","CB","3","2","L.jpg","P.jpg","1","0","0","",""
"","feedback","","html-keyboard-response","298","316583","0.0-1.0-402.0-0.0","0","0","81080","","null","","","null","44","","","","","","","","","","","","","","","",""
"","time_out","","html-keyboard-response","299","318586","0.0-1.0-404.0-0.0","0","0","81080","","null","","","null","44","","","","","","","","","","","","","","","",""
"","ITI","","html-keyboard-response","300","319589","0.0-1.0-405.0","0","0","81080","","null","","","null","44","","","","","","","","","","","","","","","NaN",""
"","S1","","html-keyboard-response","301","319841","0.0-1.0-407.0","0","0","81080","","null","","","null","45","","","","","","","","","","","","","","","",""
"","ISI","","html-keyboard-response","302","320845","0.0-1.0-408.0","0","0","81080","","null","","","null","45","NaN","","","","","","","","","","","","","","",""
"","S2","","html-keyboard-response","303","321098","0.0-1.0-409.0","0","0","81080","","null","","","null","45","","NaN","","","","","","","","","","","","","",""
"","response","","html-keyboard-response","304","321209","0.0-1.0-410.0-0.0","0","0","81080","","108","","","75","45","","","1","45","training","adjacent","DC","4","3","O.jpg","L.jpg","0","0","1","",""
"","feedback","","html-keyboard-response","305","322212","0.0-1.0-411.0-0.0","0","0","81080","","null","","","null","45","","","","","","","","","","","","","","","",""
"","ITI","","html-keyboard-response","306","323216","0.0-1.0-414.0","0","0","81080","","null","","","null","45","","","","","","","","","","","","","","","NaN",""
"","S1","","html-keyboard-response","307","323469","0.0-1.0-416.0","0","0","81080","","null","","","null","46","","","","","","","","","","","","","","","",""
"","ISI","","html-keyboard-response","308","324472","0.0-1.0-417.0","0","0","81080","","null","","","null","46","NaN","","","","","","","","","","","","","","",""
"","S2","","html-keyboard-response","309","324725","0.0-1.0-418.0","0","0","81080","","null","","","null","46","","NaN","","","","","","","","","","","","","",""
"","response","","html-keyboard-response","310","325052","0.0-1.0-419.0-0.0","0","0","81080","","324","","","68","46","","","1","46","training","adjacent","FG","6","7","M.jpg","R.jpg","1","1","1","",""
"","feedback","","html-keyboard-response","311","326055","0.0-1.0-420.0-0.0","0","0","81080","","null","","","null","46","","","","","","","","","","","","","","","",""
"","ITI","","html-keyboard-response","312","327058","0.0-1.0-423.0","0","0","81080","","null","","","null","46","","","","","","","","","","","","","","","NaN",""
"","S1","","html-keyboard-response","313","327311","0.0-1.0-425.0","0","0","81080","","null","","","null","47","","","","","","","","","","","","","","","",""
"","ISI","","html-keyboard-response","314","328313","0.0-1.0-426.0","0","0","81080","","null","","","null","47","NaN","","","","","","","","","","","","","","",""
"","S2","","html-keyboard-response","315","328566","0.0-1.0-427.0","0","0","81080","","null","","","null","47","","NaN","","","","","","","","","","","","","",""
"","response","","html-keyboard-response","316","328831","0.0-1.0-428.0-0.0","0","0","81080","","262","","","68","47","","","1","47","training","adjacent","ED","5","4","Q.jpg","O.jpg","1","0","0","",""
"","feedback","","html-keyboard-response","317","329834","0.0-1.0-429.0-0.0","0","0","81080","","null","","","null","47","","","","","","","","","","","","","","","",""
"","time_out","","html-keyboard-response","318","331837","0.0-1.0-431.0-0.0","0","0","81080","","null","","","null","47","","","","","","","","","","","","","","","",""
"","ITI","","html-keyboard-response","319","332840","0.0-1.0-432.0","0","0","81080","","null","","","null","47","","","","","","","","","","","","","","","NaN",""
"","block_over","","html-keyboard-response","320","337279","0.0-1.0-433.0-0.0","0","0","81080","","4436","","","32","47","","","","","","","","","","","","","","","",""
"","S1","","html-keyboard-response","321","337533","0.0-1.0-434.0","0","0","81080","","null","","","null","48","","","","","","","","","","","","","","","",""
"","ISI","","html-keyboard-response","322","338536","0.0-1.0-435.0","0","0","81080","","null","","","null","48","NaN","","","","","","","","","","","","","","",""
"","S2","","html-keyboard-response","323","338789","0.0-1.0-436.0","0","0","81080","","null","","","null","48","","NaN","","","","","","","","","","","","","",""
"","response","","html-keyboard-response","324","339538","0.0-1.0-437.0-0.0","0","0","81080","","746","","","68","48","","","2","48","training","adjacent","BC","2","3","P.jpg","L.jpg","1","1","1","",""
"","feedback","","html-keyboard-response","325","340555","0.0-1.0-438.0-0.0","0","0","81080","","null","","","null","48","","","","","","","","","","","","","","","",""
"","ITI","","html-keyboard-response","326","341559","0.0-1.0-441.0","0","0","81080","","null","","","null","48","","","","","","","","","","","","","","","NaN",""
"","S1","","html-keyboard-response","327","341812","0.0-1.0-443.0","0","0","81080","","null","","","null","49","","","","","","","","","","","","","","","",""
"","ISI","","html-keyboard-response","328","342816","0.0-1.0-444.0","0","0","81080","","null","","","null","49","NaN","","","","","","","","","","","","","","",""
"","S2","","html-keyboard-response","329","343069","0.0-1.0-445.0","0","0","81080","","null","","","null","49","","NaN","","","","","","","","","","","","","",""
"","response","","html-keyboard-response","330","343581","0.0-1.0-446.0-0.0","0","0","81080","","511","","","75","49","","","2","49","training","adjacent","GF","7","6","R.jpg","M.jpg","0","0","1","",""
"","feedback","","html-keyboard-response","331","344585","0.0-1.0-447.0-0.0","0","0","81080","","null","","","null","49","","","","","","","","","","","","","","","",""
"","ITI","","html-keyboard-response","332","345589","0.0-1.0-450.0","0","0","81080","","null","","","null","49","","","","","","","","","","","","","","","NaN",""
"","S1","","html-keyboard-response","333","345842","0.0-1.0-452.0","0","0","81080","","null","","","null","50","","","","","","","","","","","","","","","",""
"","ISI","","html-keyboard-response","334","346844","0.0-1.0-453.0","0","0","81080","","null","","","null","50","NaN","","","","","","","","","","","","","","",""
"","S2","","html-keyboard-response","335","347098","0.0-1.0-454.0","0","0","81080","","null","","","null","50","","NaN","","","","","","","","","","","","","",""
"","response","","html-keyboard-response","336","347751","0.0-1.0-455.0-0.0","0","0","81080","","650","","","75","50","","","2","50","training","adjacent","EF","5","6","Q.jpg","M.jpg","0","1","0","",""
"","feedback","","html-keyboard-response","337","348754","0.0-1.0-456.0-0.0","0","0","81080","","null","","","null","50","","","","","","","","","","","","","","","",""
"","time_out","","html-keyboard-response","338","350757","0.0-1.0-458.0-0.0","0","0","81080","","null","","","null","50","","","","","","","","","","","","","","","",""
"","ITI","","html-keyboard-response","339","351761","0.0-1.0-459.0","0","0","81080","","null","","","null","50","","","","","","","","","","","","","","","NaN",""
"","S1","","html-keyboard-response","340","352015","0.0-1.0-461.0","0","0","81080","","null","","","null","51","","","","","","","","","","","","","","","",""
"","ISI","","html-keyboard-response","341","353026","0.0-1.0-462.0","0","0","81080","","null","","","null","51","NaN","","","","","","","","","","","","","","",""
"","S2","","html-keyboard-response","342","353279","0.0-1.0-463.0","0","0","81080","","null","","","null","51","","NaN","","","","","","","","","","","","","",""
"","response","","html-keyboard-response","343","354106","0.0-1.0-464.0-0.0","0","0","81080","","825","","","75","51","","","2","51","training","adjacent","CB","3","2","L.jpg","P.jpg","0","0","1","",""
"","feedback","","html-keyboard-response","344","355109","0.0-1.0-465.0-0.0","0","0","81080","","null","","","null","51","","","","","","","","","","","","","","","",""
"","ITI","","html-keyboard-response","345","356113","0.0-1.0-468.0","0","0","81080","","null","","","null","51","","","","","","","","","","","","","","","NaN",""
"","S1","","html-keyboard-response","346","356367","0.0-1.0-470.0","0","0","81080","","null","","","null","52","","","","","","","","","","","","","","","",""
"","ISI","","html-keyboard-response","347","357371","0.0-1.0-471.0","0","0","81080","","null","","","null","52","NaN","","","","","","","","","","","","","","",""
"","S2","","html-keyboard-response","348","357623","0.0-1.0-472.0","0","0","81080","","null","","","null","52","","NaN","","","","","","","","","","","","","",""
"","response","","html-keyboard-response","349","357890","0.0-1.0-473.0-0.0","0","0","81080","","265","","","75","52","","","2","52","training","adjacent","BC","2","3","P.jpg","L.jpg","0","1","0","",""
"","feedback","","html-keyboard-response","350","358895","0.0-1.0-474.0-0.0","0","0","81080","","null","","","null","52","","","","","","","","","","","","","","","",""
"","time_out","","html-keyboard-response","351","360898","0.0-1.0-476.0-0.0","0","0","81080","","null","","","null","52","","","","","","","","","","","","","","","",""
"","ITI","","html-keyboard-response","352","361901","0.0-1.0-477.0","0","0","81080","","null","","","null","52","","","","","","","","","","","","","","","NaN",""
"","S1","","html-keyboard-response","353","362168","0.0-1.0-479.0","0","0","81080","","null","","","null","53","","","","","","","","","","","","","","","",""
"","ISI","","html-keyboard-response","354","363171","0.0-1.0-480.0","0","0","81080","","null","","","null","53","NaN","","","","","","","","","","","","","","",""
"","S2","","html-keyboard-response","355","363425","0.0-1.0-481.0","0","0","81080","","null","","","null","53","","NaN","","","","","","","","","","","","","",""
"","response","","html-keyboard-response","356","364124","0.0-1.0-482.0-0.0","0","0","81080","","698","","","68","53","","","2","53","training","adjacent","BA","2","1","P.jpg","N.jpg","1","0","0","",""
"","feedback","","html-keyboard-response","357","365128","0.0-1.0-483.0-0.0","0","0","81080","","null","","","null","53","","","","","","","","","","","","","","","",""
"","time_out","","html-keyboard-response","358","367131","0.0-1.0-485.0-0.0","0","0","81080","","null","","","null","53","","","","","","","","","","","","","","","",""
"","ITI","","html-keyboard-response","359","368133","0.0-1.0-486.0","0","0","81080","","null","","","null","53","","","","","","","","","","","","","","","NaN",""
"","S1","","html-keyboard-response","360","368386","0.0-1.0-488.0","0","0","81080","","null","","","null","54","","","","","","","","","","","","","","","",""
"","ISI","","html-keyboard-response","361","369389","0.0-1.0-489.0","0","0","81080","","null","","","null","54","NaN","","","","","","","","","","","","","","",""
"","S2","","html-keyboard-response","362","369642","0.0-1.0-490.0","0","0","81080","","null","","","null","54","","NaN","","","","","","","","","","","","","",""
"","response","","html-keyboard-response","363","370338","0.0-1.0-491.0-0.0","0","0","81080","","695","","","68","54","","","2","54","training","adjacent","BA","2","1","P.jpg","N.jpg","1","0","0","",""
"","feedback","","html-keyboard-response","364","371342","0.0-1.0-492.0-0.0","0","0","81080","","null","","","null","54","","","","","","","","","","","","","","","",""
"","time_out","","html-keyboard-response","365","373345","0.0-1.0-494.0-0.0","0","0","81080","","null","","","null","54","","","","","","","","","","","","","","","",""
"","ITI","","html-keyboard-response","366","374348","0.0-1.0-495.0","0","0","81080","","null","","","null","54","","","","","","","","","","","","","","","NaN",""
"","S1","","html-keyboard-response","367","374602","0.0-1.0-497.0","0","0","81080","","null","","","null","55","","","","","","","","","","","","","","","",""
"","ISI","","html-keyboard-response","368","375605","0.0-1.0-498.0","0","0","81080","","null","","","null","55","NaN","","","","","","","","","","","","","","",""
"","S2","","html-keyboard-response","369","375859","0.0-1.0-499.0","0","0","81080","","null","","","null","55","","NaN","","","","","","","","","","","","","",""
"","response","","html-keyboard-response","370","376219","0.0-1.0-500.0-0.0","0","0","81080","","358","","","75","55","","","2","55","training","adjacent","DC","4","3","O.jpg","L.jpg","0","0","1","",""
"","feedback","","html-keyboard-response","371","377222","0.0-1.0-501.0-0.0","0","0","81080","","null","","","null","55","","","","","","","","","","","","","","","",""
"","ITI","","html-keyboard-response","372","378225","0.0-1.0-504.0","0","0","81080","","null","","","null","55","","","","","","","","","","","","","","","NaN",""
"","S1","","html-keyboard-response","373","378478","0.0-1.0-506.0","0","0","81080","","null","","","null","56","","","","","","","","","","","","","","","",""
"","ISI","","html-keyboard-response","374","379482","0.0-1.0-507.0","0","0","81080","","null","","","null","56","NaN","","","","","","","","","","","","","","",""
"","S2","","html-keyboard-response","375","379736","0.0-1.0-508.0","0","0","81080","","null","","","null","56","","NaN","","","","","","","","","","","","","",""
"","response","","html-keyboard-response","376","380026","0.0-1.0-509.0-0.0","0","0","81080","","289","","","75","56","","","2","56","training","adjacent","DC","4","3","O.jpg","L.jpg","0","0","1","",""
"","feedback","","html-keyboard-response","377","381029","0.0-1.0-510.0-0.0","0","0","81080","","null","","","null","56","","","","","","","","","","","","","","","",""
"","ITI","","html-keyboard-response","378","382032","0.0-1.0-513.0","0","0","81080","","null","","","null","56","","","","","","","","","","","","","","","NaN",""
"","S1","","html-keyboard-response","379","382293","0.0-1.0-515.0","0","0","81080","","null","","","null","57","","","","","","","","","","","","","","","",""
"","ISI","","html-keyboard-response","380","383296","0.0-1.0-516.0","0","0","81080","","null","","","null","57","NaN","","","","","","","","","","","","","","",""
"","S2","","html-keyboard-response","381","383549","0.0-1.0-517.0","0","0","81080","","null","","","null","57","","NaN","","","","","","","","","","","","","",""
"","response","","html-keyboard-response","382","384322","0.0-1.0-518.0-0.0","0","0","81080","","770","","","68","57","","","2","57","training","adjacent","BC","2","3","P.jpg","L.jpg","1","1","1","",""
"","feedback","","html-keyboard-response","383","385325","0.0-1.0-519.0-0.0","0","0","81080","","null","","","null","57","","","","","","","","","","","","","","","",""
"","ITI","","html-keyboard-response","384","386328","0.0-1.0-522.0","0","0","81080","","null","","","null","57","","","","","","","","","","","","","","","NaN",""
"","S1","","html-keyboard-response","385","386581","0.0-1.0-524.0","0","0","81080","","null","","","null","58","","","","","","","","","","","","","","","",""
"","ISI","","html-keyboard-response","386","387585","0.0-1.0-525.0","0","0","81080","","null","","","null","58","NaN","","","","","","","","","","","","","","",""
"","S2","","html-keyboard-response","387","387838","0.0-1.0-526.0","0","0","81080","","null","","","null","58","","NaN","","","","","","","","","","","","","",""
"","response","","html-keyboard-response","388","388471","0.0-1.0-527.0-0.0","0","0","81080","","632","","","75","58","","","2","58","training","adjacent","CD","3","4","L.jpg","O.jpg","0","1","0","",""
"","feedback","","html-keyboard-response","389","389476","0.0-1.0-528.0-0.0","0","0","81080","","null","","","null","58","","","","","","","","","","","","","","","",""
"","time_out","","html-keyboard-response","390","391478","0.0-1.0-530.0-0.0","0","0","81080","","null","","","null","58","","","","","","","","","","","","","","","",""
"","ITI","","html-keyboard-response","391","392481","0.0-1.0-531.0","0","0","81080","","null","","","null","58","","","","","","","","","","","","","","","NaN",""
"","S1","","html-keyboard-response","392","392734","0.0-1.0-533.0","0","0","81080","","null","","","null","59","","","","","","","","","","","","","","","",""
"","ISI","","html-keyboard-response","393","393737","0.0-1.0-534.0","0","0","81080","","null","","","null","59","NaN","","","","","","","","","","","","","","",""
"","S2","","html-keyboard-response","394","393989","0.0-1.0-535.0","0","0","81080","","null","","","null","59","","NaN","","","","","","","","","","","","","",""
"","response","","html-keyboard-response","395","394646","0.0-1.0-536.0-0.0","0","0","81080","","655","","","68","59","","","2","59","training","adjacent","FE","6","5","M.jpg","Q.jpg","1","0","0","",""
"","feedback","","html-keyboard-response","396","395651","0.0-1.0-537.0-0.0","0","0","81080","","null","","","null","59","","","","","","","","","","","","","","","",""
"","time_out","","html-keyboard-response","397","397653","0.0-1.0-539.0-0.0","0","0","81080","","null","","","null","59","","","","","","","","","","","","","","","",""
"","ITI","","html-keyboard-response","398","398658","0.0-1.0-540.0","0","0","81080","","null","","","null","59","","","","","","","","","","","","","","","NaN",""
"","S1","","html-keyboard-response","399","398912","0.0-1.0-542.0","0","0","81080","","null","","","null","60","","","","","","","","","","","","","","","",""
"","ISI","","html-keyboard-response","400","399914","0.0-1.0-543.0","0","0","81080","","null","","","null","60","NaN","","","","","","","","","","","","","","",""
"","S2","","html-keyboard-response","401","400168","0.0-1.0-544.0","0","0","81080","","null","","","null","60","","NaN","","","","","","","","","","","","","",""
"","response","","html-keyboard-response","402","400747","0.0-1.0-545.0-0.0","0","0","81080","","576","","","75","60","","","2","60","training","adjacent","BC","2","3","P.jpg","L.jpg","0","1","0","",""
"","feedback","","html-keyboard-response","403","401752","0.0-1.0-546.0-0.0","0","0","81080","","null","","","null","60","","","","","","","","","","","","","","","",""
"","time_out","","html-keyboard-response","404","403756","0.0-1.0-548.0-0.0","0","0","81080","","null","","","null","60","","","","","","","","","","","","","","","",""
"","ITI","","html-keyboard-response","405","404758","0.0-1.0-549.0","0","0","81080","","null","","","null","60","","","","","","","","","","","","","","","NaN",""
"","S1","","html-keyboard-response","406","405011","0.0-1.0-551.0","0","0","81080","","null","","","null","61","","","","","","","","","","","","","","","",""
"","ISI","","html-keyboard-response","407","406015","0.0-1.0-552.0","0","0","81080","","null","","","null","61","NaN","","","","","","","","","","","","","","",""
"","S2","","html-keyboard-response","408","406269","0.0-1.0-553.0","0","0","81080","","null","","","null","61","","NaN","","","","","","","","","","","","","",""
"","response","","html-keyboard-response","409","406859","0.0-1.0-554.0-0.0","0","0","81080","","588","","","68","61","","","2","61","training","adjacent","CD","3","4","L.jpg","O.jpg","1","1","1","",""
"","feedback","","html-keyboard-response","410","407864","0.0-1.0-555.0-0.0","0","0","81080","","null","","","null","61","","","","","","","","","","","","","","","",""
"","ITI","","html-keyboard-response","411","408868","0.0-1.0-558.0","0","0","81080","","null","","","null","61","","","","","","","","","","","","","","","NaN",""
"","S1","","html-keyboard-response","412","409121","0.0-1.0-560.0","0","0","81080","","null","","","null","62","","","","","","","","","","","","","","","",""
"","ISI","","html-keyboard-response","413","410124","0.0-1.0-561.0","0","0","81080","","null","","","null","62","NaN","","","","","","","","","","","","","","",""
"","S2","","html-keyboard-response","414","410377","0.0-1.0-562.0","0","0","81080","","null","","","null","62","","NaN","","","","","","","","","","","","","",""
"","response","","html-keyboard-response","415","411176","0.0-1.0-563.0-0.0","0","0","81080","","796","","","68","62","","","2","62","training","adjacent","ED","5","4","Q.jpg","O.jpg","1","0","0","",""
"","feedback","","html-keyboard-response","416","412179","0.0-1.0-564.0-0.0","0","0","81080","","null","","","null","62","","","","","","","","","","","","","","","",""
"","time_out","","html-keyboard-response","417","414182","0.0-1.0-566.0-0.0","0","0","81080","","null","","","null","62","","","","","","","","","","","","","","","",""
"","ITI","","html-keyboard-response","418","415185","0.0-1.0-567.0","0","0","81080","","null","","","null","62","","","","","","","","","","","","","","","NaN",""
"","S1","","html-keyboard-response","419","415438","0.0-1.0-569.0","0","0","81080","","null","","","null","63","","","","","","","","","","","","","","","",""
"","ISI","","html-keyboard-response","420","416441","0.0-1.0-570.0","0","0","81080","","null","","","null","63","NaN","","","","","","","","","","","","","","",""
"","S2","","html-keyboard-response","421","416694","0.0-1.0-571.0","0","0","81080","","null","","","null","63","","NaN","","","","","","","","","","","","","",""
"","response","","html-keyboard-response","422","417269","0.0-1.0-572.0-0.0","0","0","81080","","574","","","68","63","","","2","63","training","adjacent","CB","3","2","L.jpg","P.jpg","1","0","0","",""
"","feedback","","html-keyboard-response","423","418272","0.0-1.0-573.0-0.0","0","0","81080","","null","","","null","63","","","","","","","","","","","","","","","",""
"","time_out","","html-keyboard-response","424","420275","0.0-1.0-575.0-0.0","0","0","81080","","null","","","null","63","","","","","","","","","","","","","","","",""
"","ITI","","html-keyboard-response","425","421279","0.0-1.0-576.0","0","0","81080","","null","","","null","63","","","","","","","","","","","","","","","NaN",""
"","S1","","html-keyboard-response","426","421532","0.0-1.0-578.0","0","0","81080","","null","","","null","64","","","","","","","","","","","","","","","",""
"","ISI","","html-keyboard-response","427","422536","0.0-1.0-579.0","0","0","81080","","null","","","null","64","NaN","","","","","","","","","","","","","","",""
"","S2","","html-keyboard-response","428","422789","0.0-1.0-580.0","0","0","81080","","null","","","null","64","","NaN","","","","","","","","","","","","","",""
"","response","","html-keyboard-response","429","423384","0.0-1.0-581.0-0.0","0","0","81080","","593","","","75","64","","","2","64","training","adjacent","DC","4","3","O.jpg","L.jpg","0","0","1","",""
"","feedback","","html-keyboard-response","430","424387","0.0-1.0-582.0-0.0","0","0","81080","","null","","","null","64","","","","","","","","","","","","","","","",""
"","ITI","","html-keyboard-response","431","425392","0.0-1.0-585.0","0","0","81080","","null","","","null","64","","","","","","","","","","","","","","","NaN",""
"","S1","","html-keyboard-response","432","425646","0.0-1.0-587.0","0","0","81080","","null","","","null","65","","","","","","","","","","","","","","","",""
"","ISI","","html-keyboard-response","433","426648","0.0-1.0-588.0","0","0","81080","","null","","","null","65","NaN","","","","","","","","","","","","","","",""
"","S2","","html-keyboard-response","434","426901","0.0-1.0-589.0","0","0","81080","","null","","","null","65","","NaN","","","","","","","","","","","","","",""
"","response","","html-keyboard-response","435","427392","0.0-1.0-590.0-0.0","0","0","81080","","489","","","68","65","","","2","65","training","adjacent","DE","4","5","O.jpg","Q.jpg","1","1","1","",""
"","feedback","","html-keyboard-response","436","428395","0.0-1.0-591.0-0.0","0","0","81080","","null","","","null","65","","","","","","","","","","","","","","","",""
"","ITI","","html-keyboard-response","437","429399","0.0-1.0-594.0","0","0","81080","","null","","","null","65","","","","","","","","","","","","","","","NaN",""
"","S1","","html-keyboard-response","438","429652","0.0-1.0-596.0","0","0","81080","","null","","","null","66","","","","","","","","","","","","","","","",""
"","ISI","","html-keyboard-response","439","430656","0.0-1.0-597.0","0","0","81080","","null","","","null","66","NaN","","","","","","","","","","","","","","",""
"","S2","","html-keyboard-response","440","430910","0.0-1.0-598.0","0","0","81080","","null","","","null","66","","NaN","","","","","","","","","","","","","",""
"","response","","html-keyboard-response","441","431598","0.0-1.0-599.0-0.0","0","0","81080","","686","","","68","66","","","2","66","training","adjacent","CB","3","2","L.jpg","P.jpg","1","0","0","",""
"","feedback","","html-keyboard-response","442","432601","0.0-1.0-600.0-0.0","0","0","81080","","null","","","null","66","","","","","","","","","","","","","","","",""
"","time_out","","html-keyboard-response","443","434604","0.0-1.0-602.0-0.0","0","0","81080","","null","","","null","66","","","","","","","","","","","","","","","",""
"","ITI","","html-keyboard-response","444","435607","0.0-1.0-603.0","0","0","81080","","null","","","null","66","","","","","","","","","","","","","","","NaN",""
"","S1","","html-keyboard-response","445","435860","0.0-1.0-605.0","0","0","81080","","null","","","null","67","","","","","","","","","","","","","","","",""
"","ISI","","html-keyboard-response","446","436863","0.0-1.0-606.0","0","0","81080","","null","","","null","67","NaN","","","","","","","","","","","","","","",""
"","S2","","html-keyboard-response","447","437116","0.0-1.0-607.0","0","0","81080","","null","","","null","67","","NaN","","","","","","","","","","","","","",""
"","response","","html-keyboard-response","448","437376","0.0-1.0-608.0-0.0","0","0","81080","","257","","","75","67","","","2","67","training","adjacent","GF","7","6","R.jpg","M.jpg","0","0","1","",""
"","feedback","","html-keyboard-response","449","438379","0.0-1.0-609.0-0.0","0","0","81080","","null","","","null","67","","","","","","","","","","","","","","","",""
"","ITI","","html-keyboard-response","450","439383","0.0-1.0-612.0","0","0","81080","","null","","","null","67","","","","","","","","","","","","","","","NaN",""
"","S1","","html-keyboard-response","451","439636","0.0-1.0-614.0","0","0","81080","","null","","","null","68","","","","","","","","","","","","","","","",""
"","ISI","","html-keyboard-response","452","440639","0.0-1.0-615.0","0","0","81080","","null","","","null","68","NaN","","","","","","","","","","","","","","",""
"","S2","","html-keyboard-response","453","440893","0.0-1.0-616.0","0","0","81080","","null","","","null","68","","NaN","","","","","","","","","","","","","",""
"","response","","html-keyboard-response","454","441385","0.0-1.0-617.0-0.0","0","0","81080","","489","","","75","68","","","2","68","training","adjacent","GF","7","6","R.jpg","M.jpg","0","0","1","",""
"","feedback","","html-keyboard-response","455","442388","0.0-1.0-618.0-0.0","0","0","81080","","null","","","null","68","","","","","","","","","","","","","","","",""
"","ITI","","html-keyboard-response","456","443392","0.0-1.0-621.0","0","0","81080","","null","","","null","68","","","","","","","","","","","","","","","NaN",""
"","S1","","html-keyboard-response","457","443645","0.0-1.0-623.0","0","0","81080","","null","","","null","69","","","","","","","","","","","","","","","",""
"","ISI","","html-keyboard-response","458","444648","0.0-1.0-624.0","0","0","81080","","null","","","null","69","NaN","","","","","","","","","","","","","","",""
"","S2","","html-keyboard-response","459","444902","0.0-1.0-625.0","0","0","81080","","null","","","null","69","","NaN","","","","","","","","","","","","","",""
"","response","","html-keyboard-response","460","445480","0.0-1.0-626.0-0.0","0","0","81080","","576","","","68","69","","","2","69","training","adjacent","ED","5","4","Q.jpg","O.jpg","1","0","0","",""
"","feedback","","html-keyboard-response","461","446484","0.0-1.0-627.0-0.0","0","0","81080","","null","","","null","69","","","","","","","","","","","","","","","",""
"","time_out","","html-keyboard-response","462","448487","0.0-1.0-629.0-0.0","0","0","81080","","null","","","null","69","","","","","","","","","","","","","","","",""
"","ITI","","html-keyboard-response","463","449489","0.0-1.0-630.0","0","0","81080","","null","","","null","69","","","","","","","","","","","","","","","NaN",""
"","S1","","html-keyboard-response","464","449742","0.0-1.0-632.0","0","0","81080","","null","","","null","70","","","","","","","","","","","","","","","",""
"","ISI","","html-keyboard-response","465","450746","0.0-1.0-633.0","0","0","81080","","null","","","null","70","NaN","","","","","","","","","","","","","","",""
"","S2","","html-keyboard-response","466","450999","0.0-1.0-634.0","0","0","81080","","null","","","null","70","","NaN","","","","","","","","","","","","","",""
"","response","","html-keyboard-response","467","451532","0.0-1.0-635.0-0.0","0","0","81080","","531","","","68","70","","","2","70","training","adjacent","AB","1","2","N.jpg","P.jpg","1","1","1","",""
"","feedback","","html-keyboard-response","468","452555","0.0-1.0-636.0-0.0","0","0","81080","","null","","","null","70","","","","","","","","","","","","","","","",""
"","ITI","","html-keyboard-response","469","453558","0.0-1.0-639.0","0","0","81080","","null","","","null","70","","","","","","","","","","","","","","","NaN",""
"","S1","","html-keyboard-response","470","453811","0.0-1.0-641.0","0","0","81080","","null","","","null","71","","","","","","","","","","","","","","","",""
"","ISI","","html-keyboard-response","471","454814","0.0-1.0-642.0","0","0","81080","","null","","","null","71","NaN","","","","","","","","","","","","","","",""
"","S2","","html-keyboard-response","472","455067","0.0-1.0-643.0","0","0","81080","","null","","","null","71","","NaN","","","","","","","","","","","","","",""
"","response","","html-keyboard-response","473","456055","0.0-1.0-644.0-0.0","0","0","81080","","986","","","75","71","","","2","71","training","adjacent","CB","3","2","L.jpg","P.jpg","0","0","1","",""
"","feedback","","html-keyboard-response","474","457059","0.0-1.0-645.0-0.0","0","0","81080","","null","","","null","71","","","","","","","","","","","","","","","",""
"","ITI","","html-keyboard-response","475","458063","0.0-1.0-648.0","0","0","81080","","null","","","null","71","","","","","","","","","","","","","","","NaN",""
"","S1","","html-keyboard-response","476","458317","0.0-1.0-650.0","0","0","81080","","null","","","null","72","","","","","","","","","","","","","","","",""
"","ISI","","html-keyboard-response","477","459321","0.0-1.0-651.0","0","0","81080","","null","","","null","72","NaN","","","","","","","","","","","","","","",""
"","S2","","html-keyboard-response","478","459575","0.0-1.0-652.0","0","0","81080","","null","","","null","72","","NaN","","","","","","","","","","","","","",""
"","response","","html-keyboard-response","479","460064","0.0-1.0-653.0-0.0","0","0","81080","","487","","","68","72","","","2","72","training","adjacent","FE","6","5","M.jpg","Q.jpg","1","0","0","",""
"","feedback","","html-keyboard-response","480","461068","0.0-1.0-654.0-0.0","0","0","81080","","null","","","null","72","","","","","","","","","","","","","","","",""
"","time_out","","html-keyboard-response","481","463071","0.0-1.0-656.0-0.0","0","0","81080","","null","","","null","72","","","","","","","","","","","","","","","",""
"","ITI","","html-keyboard-response","482","464074","0.0-1.0-657.0","0","0","81080","","null","","","null","72","","","","","","","","","","","","","","","NaN",""
"","S1","","html-keyboard-response","483","464329","0.0-1.0-659.0","0","0","81080","","null","","","null","73","","","","","","","","","","","","","","","",""
"","ISI","","html-keyboard-response","484","465333","0.0-1.0-660.0","0","0","81080","","null","","","null","73","NaN","","","","","","","","","","","","","","",""
"","S2","","html-keyboard-response","485","465586","0.0-1.0-661.0","0","0","81080","","null","","","null","73","","NaN","","","","","","","","","","","","","",""
"","response","","html-keyboard-response","486","466213","0.0-1.0-662.0-0.0","0","0","81080","","623","","","75","73","","","2","73","training","adjacent","DE","4","5","O.jpg","Q.jpg","0","1","0","",""
"","feedback","","html-keyboard-response","487","467217","0.0-1.0-663.0-0.0","0","0","81080","","null","","","null","73","","","","","","","","","","","","","","","",""
"","time_out","","html-keyboard-response","488","469220","0.0-1.0-665.0-0.0","0","0","81080","","null","","","null","73","","","","","","","","","","","","","","","",""
"","ITI","","html-keyboard-response","489","470223","0.0-1.0-666.0","0","0","81080","","null","","","null","73","","","","","","","","","","","","","","","NaN",""
"","S1","","html-keyboard-response","490","470476","0.0-1.0-668.0","0","0","81080","","null","","","null","74","","","","","","","","","","","","","","","",""
"","ISI","","html-keyboard-response","491","471479","0.0-1.0-669.0","0","0","81080","","null","","","null","74","NaN","","","","","","","","","","","","","","",""
"","S2","","html-keyboard-response","492","471731","0.0-1.0-670.0","0","0","81080","","null","","","null","74","","NaN","","","","","","","","","","","","","",""
"","response","","html-keyboard-response","493","472213","0.0-1.0-671.0-0.0","0","0","81080","","479","","","68","74","","","2","74","training","adjacent","FG","6","7","M.jpg","R.jpg","1","1","1","",""
"","feedback","","html-keyboard-response","494","473216","0.0-1.0-672.0-0.0","0","0","81080","","null","","","null","74","","","","","","","","","","","","","","","",""
"","ITI","","html-keyboard-response","495","474219","0.0-1.0-675.0","0","0","81080","","null","","","null","74","","","","","","","","","","","","","","","NaN",""
"","S1","","html-keyboard-response","496","474473","0.0-1.0-677.0","0","0","81080","","null","","","null","75","","","","","","","","","","","","","","","",""
"","ISI","","html-keyboard-response","497","475477","0.0-1.0-678.0","0","0","81080","","null","","","null","75","NaN","","","","","","","","","","","","","","",""
"","S2","","html-keyboard-response","498","475729","0.0-1.0-679.0","0","0","81080","","null","","","null","75","","NaN","","","","","","","","","","","","","",""
"","response","","html-keyboard-response","499","476305","0.0-1.0-680.0-0.0","0","0","81080","","573","","","68","75","","","2","75","training","adjacent","FE","6","5","M.jpg","Q.jpg","1","0","0","",""
"","feedback","","html-keyboard-response","500","477308","0.0-1.0-681.0-0.0","0","0","81080","","null","","","null","75","","","","","","","","","","","","","","","",""
"","time_out","","html-keyboard-response","501","479311","0.0-1.0-683.0-0.0","0","0","81080","","null","","","null","75","","","","","","","","","","","","","","","",""
"","ITI","","html-keyboard-response","502","480314","0.0-1.0-684.0","0","0","81080","","null","","","null","75","","","","","","","","","","","","","","","NaN",""
"","S1","","html-keyboard-response","503","480567","0.0-1.0-686.0","0","0","81080","","null","","","null","76","","","","","","","","","","","","","","","",""
"","ISI","","html-keyboard-response","504","481571","0.0-1.0-687.0","0","0","81080","","null","","","null","76","NaN","","","","","","","","","","","","","","",""
"","S2","","html-keyboard-response","505","481824","0.0-1.0-688.0","0","0","81080","","null","","","null","76","","NaN","","","","","","","","","","","","","",""
"","response","","html-keyboard-response","506","482074","0.0-1.0-689.0-0.0","0","0","81080","","248","","","75","76","","","2","76","training","adjacent","EF","5","6","Q.jpg","M.jpg","0","1","0","",""
"","feedback","","html-keyboard-response","507","483077","0.0-1.0-690.0-0.0","0","0","81080","","null","","","null","76","","","","","","","","","","","","","","","",""
"","time_out","","html-keyboard-response","508","485081","0.0-1.0-692.0-0.0","0","0","81080","","null","","","null","76","","","","","","","","","","","","","","","",""
"","ITI","","html-keyboard-response","509","486085","0.0-1.0-693.0","0","0","81080","","null","","","null","76","","","","","","","","","","","","","","","NaN",""
"","S1","","html-keyboard-response","510","486338","0.0-1.0-695.0","0","0","81080","","null","","","null","77","","","","","","","","","","","","","","","",""
"","ISI","","html-keyboard-response","511","487340","0.0-1.0-696.0","0","0","81080","","null","","","null","77","NaN","","","","","","","","","","","","","","",""
"","S2","","html-keyboard-response","512","487594","0.0-1.0-697.0","0","0","81080","","null","","","null","77","","NaN","","","","","","","","","","","","","",""
"","response","","html-keyboard-response","513","488054","0.0-1.0-698.0-0.0","0","0","81080","","458","","","68","77","","","2","77","training","adjacent","AB","1","2","N.jpg","P.jpg","1","1","1","",""
"","feedback","","html-keyboard-response","514","489058","0.0-1.0-699.0-0.0","0","0","81080","","null","","","null","77","","","","","","","","","","","","","","","",""
"","ITI","","html-keyboard-response","515","490060","0.0-1.0-702.0","0","0","81080","","null","","","null","77","","","","","","","","","","","","","","","NaN",""
"","S1","","html-keyboard-response","516","490313","0.0-1.0-704.0","0","0","81080","","null","","","null","78","","","","","","","","","","","","","","","",""
"","ISI","","html-keyboard-response","517","491316","0.0-1.0-705.0","0","0","81080","","null","","","null","78","NaN","","","","","","","","","","","","","","",""
"","S2","","html-keyboard-response","518","491580","0.0-1.0-706.0","0","0","81080","","null","","","null","78","","NaN","","","","","","","","","","","","","",""
"","response","","html-keyboard-response","519","492125","0.0-1.0-707.0-0.0","0","0","81080","","542","","","75","78","","","2","78","training","adjacent","EF","5","6","Q.jpg","M.jpg","0","1","0","",""
"","feedback","","html-keyboard-response","520","493128","0.0-1.0-708.0-0.0","0","0","81080","","null","","","null","78","","","","","","","","","","","","","","","",""
"","time_out","","html-keyboard-response","521","495131","0.0-1.0-710.0-0.0","0","0","81080","","null","","","null","78","","","","","","","","","","","","","","","",""
"","ITI","","html-keyboard-response","522","496134","0.0-1.0-711.0","0","0","81080","","null","","","null","78","","","","","","","","","","","","","","","NaN",""
"","S1","","html-keyboard-response","523","496387","0.0-1.0-713.0","0","0","81080","","null","","","null","79","","","","","","","","","","","","","","","",""
"","ISI","","html-keyboard-response","524","497391","0.0-1.0-714.0","0","0","81080","","null","","","null","79","NaN","","","","","","","","","","","","","","",""
"","S2","","html-keyboard-response","525","497644","0.0-1.0-715.0","0","0","81080","","null","","","null","79","","NaN","","","","","","","","","","","","","",""
"","response","","html-keyboard-response","526","498015","0.0-1.0-716.0-0.0","0","0","81080","","369","","","68","79","","","2","79","training","adjacent","AB","1","2","N.jpg","P.jpg","1","1","1","",""
"","feedback","","html-keyboard-response","527","499019","0.0-1.0-717.0-0.0","0","0","81080","","null","","","null","79","","","","","","","","","","","","","","","",""
"","ITI","","html-keyboard-response","528","500023","0.0-1.0-720.0","0","0","81080","","null","","","null","79","","","","","","","","","","","","","","","NaN",""
"","S1","","html-keyboard-response","529","500276","0.0-1.0-722.0","0","0","81080","","null","","","null","80","","","","","","","","","","","","","","","",""
"","ISI","","html-keyboard-response","530","501279","0.0-1.0-723.0","0","0","81080","","null","","","null","80","NaN","","","","","","","","","","","","","","",""
"","S2","","html-keyboard-response","531","501532","0.0-1.0-724.0","0","0","81080","","null","","","null","80","","NaN","","","","","","","","","","","","","",""
"","response","","html-keyboard-response","532","502158","0.0-1.0-725.0-0.0","0","0","81080","","623","","","68","80","","","2","80","training","adjacent","FG","6","7","M.jpg","R.jpg","1","1","1","",""
"","feedback","","html-keyboard-response","533","503161","0.0-1.0-726.0-0.0","0","0","81080","","null","","","null","80","","","","","","","","","","","","","","","",""
"","ITI","","html-keyboard-response","534","504165","0.0-1.0-729.0","0","0","81080","","null","","","null","80","","","","","","","","","","","","","","","NaN",""
"","S1","","html-keyboard-response","535","504417","0.0-1.0-731.0","0","0","81080","","null","","","null","81","","","","","","","","","","","","","","","",""
"","ISI","","html-keyboard-response","536","505420","0.0-1.0-732.0","0","0","81080","","null","","","null","81","NaN","","","","","","","","","","","","","","",""
"","S2","","html-keyboard-response","537","505674","0.0-1.0-733.0","0","0","81080","","null","","","null","81","","NaN","","","","","","","","","","","","","",""
"","response","","html-keyboard-response","538","506438","0.0-1.0-734.0-0.0","0","0","81080","","762","","","75","81","","","2","81","training","adjacent","FG","6","7","M.jpg","R.jpg","0","1","0","",""
"","feedback","","html-keyboard-response","539","507443","0.0-1.0-735.0-0.0","0","0","81080","","null","","","null","81","","","","","","","","","","","","","","","",""
"","time_out","","html-keyboard-response","540","509446","0.0-1.0-737.0-0.0","0","0","81080","","null","","","null","81","","","","","","","","","","","","","","","",""
"","ITI","","html-keyboard-response","541","510450","0.0-1.0-738.0","0","0","81080","","null","","","null","81","","","","","","","","","","","","","","","NaN",""
"","S1","","html-keyboard-response","542","510704","0.0-1.0-740.0","0","0","81080","","null","","","null","82","","","","","","","","","","","","","","","",""
"","ISI","","html-keyboard-response","543","511707","0.0-1.0-741.0","0","0","81080","","null","","","null","82","NaN","","","","","","","","","","","","","","",""
"","S2","","html-keyboard-response","544","511960","0.0-1.0-742.0","0","0","81080","","null","","","null","82","","NaN","","","","","","","","","","","","","",""
"","response","","html-keyboard-response","545","512680","0.0-1.0-743.0-0.0","0","0","81080","","717","","","75","82","","","2","82","training","adjacent","ED","5","4","Q.jpg","O.jpg","0","0","1","",""
"","feedback","","html-keyboard-response","546","513683","0.0-1.0-744.0-0.0","0","0","81080","","null","","","null","82","","","","","","","","","","","","","","","",""
"","ITI","","html-keyboard-response","547","514687","0.0-1.0-747.0","0","0","81080","","null","","","null","82","","","","","","","","","","","","","","","NaN",""
"","S1","","html-keyboard-response","548","514940","0.0-1.0-749.0","0","0","81080","","null","","","null","83","","","","","","","","","","","","","","","",""
"","ISI","","html-keyboard-response","549","515943","0.0-1.0-750.0","0","0","81080","","null","","","null","83","NaN","","","","","","","","","","","","","","",""
"","S2","","html-keyboard-response","550","516196","0.0-1.0-751.0","0","0","81080","","null","","","null","83","","NaN","","","","","","","","","","","","","",""
"","response","","html-keyboard-response","551","516770","0.0-1.0-752.0-0.0","0","0","81080","","572","","","68","83","","","2","83","training","adjacent","FE","6","5","M.jpg","Q.jpg","1","0","0","",""
"","feedback","","html-keyboard-response","552","517774","0.0-1.0-753.0-0.0","0","0","81080","","null","","","null","83","","","","","","","","","","","","","","","",""
"","time_out","","html-keyboard-response","553","519778","0.0-1.0-755.0-0.0","0","0","81080","","null","","","null","83","","","","","","","","","","","","","","","",""
"","ITI","","html-keyboard-response","554","520781","0.0-1.0-756.0","0","0","81080","","null","","","null","83","","","","","","","","","","","","","","","NaN",""
"","S1","","html-keyboard-response","555","521034","0.0-1.0-758.0","0","0","81080","","null","","","null","84","","","","","","","","","","","","","","","",""
"","ISI","","html-keyboard-response","556","522037","0.0-1.0-759.0","0","0","81080","","null","","","null","84","NaN","","","","","","","","","","","","","","",""
"","S2","","html-keyboard-response","557","522290","0.0-1.0-760.0","0","0","81080","","null","","","null","84","","NaN","","","","","","","","","","","","","",""
"","response","","html-keyboard-response","558","522769","0.0-1.0-761.0-0.0","0","0","81080","","477","","","75","84","","","2","84","training","adjacent","DE","4","5","O.jpg","Q.jpg","0","1","0","",""
"","feedback","","html-keyboard-response","559","523773","0.0-1.0-762.0-0.0","0","0","81080","","null","","","null","84","","","","","","","","","","","","","","","",""
"","time_out","","html-keyboard-response","560","525776","0.0-1.0-764.0-0.0","0","0","81080","","null","","","null","84","","","","","","","","","","","","","","","",""
"","ITI","","html-keyboard-response","561","526778","0.0-1.0-765.0","0","0","81080","","null","","","null","84","","","","","","","","","","","","","","","NaN",""
"","S1","","html-keyboard-response","562","527031","0.0-1.0-767.0","0","0","81080","","null","","","null","85","","","","","","","","","","","","","","","",""
"","ISI","","html-keyboard-response","563","528034","0.0-1.0-768.0","0","0","81080","","null","","","null","85","NaN","","","","","","","","","","","","","","",""
"","S2","","html-keyboard-response","564","528287","0.0-1.0-769.0","0","0","81080","","null","","","null","85","","NaN","","","","","","","","","","","","","",""
"","response","","html-keyboard-response","565","528831","0.0-1.0-770.0-0.0","0","0","81080","","542","","","75","85","","","2","85","training","adjacent","DE","4","5","O.jpg","Q.jpg","0","1","0","",""
"","feedback","","html-keyboard-response","566","529835","0.0-1.0-771.0-0.0","0","0","81080","","null","","","null","85","","","","","","","","","","","","","","","",""
"","time_out","","html-keyboard-response","567","531838","0.0-1.0-773.0-0.0","0","0","81080","","null","","","null","85","","","","","","","","","","","","","","","",""
"","ITI","","html-keyboard-response","568","532841","0.0-1.0-774.0","0","0","81080","","null","","","null","85","","","","","","","","","","","","","","","NaN",""
"","S1","","html-keyboard-response","569","533094","0.0-1.0-776.0","0","0","81080","","null","","","null","86","","","","","","","","","","","","","","","",""
"","ISI","","html-keyboard-response","570","534097","0.0-1.0-777.0","0","0","81080","","null","","","null","86","NaN","","","","","","","","","","","","","","",""
"","S2","","html-keyboard-response","571","534351","0.0-1.0-778.0","0","0","81080","","null","","","null","86","","NaN","","","","","","","","","","","","","",""
"","response","","html-keyboard-response","572","535219","0.0-1.0-779.0-0.0","0","0","81080","","867","","","75","86","","","2","86","training","adjacent","BA","2","1","P.jpg","N.jpg","0","0","1","",""
"","feedback","","html-keyboard-response","573","536223","0.0-1.0-780.0-0.0","0","0","81080","","null","","","null","86","","","","","","","","","","","","","","","",""
"","ITI","","html-keyboard-response","574","537227","0.0-1.0-783.0","0","0","81080","","null","","","null","86","","","","","","","","","","","","","","","NaN",""
"","S1","","html-keyboard-response","575","537481","0.0-1.0-785.0","0","0","81080","","null","","","null","87","","","","","","","","","","","","","","","",""
"","ISI","","html-keyboard-response","576","538484","0.0-1.0-786.0","0","0","81080","","null","","","null","87","NaN","","","","","","","","","","","","","","",""
"","S2","","html-keyboard-response","577","538737","0.0-1.0-787.0","0","0","81080","","null","","","null","87","","NaN","","","","","","","","","","","","","",""
"","response","","html-keyboard-response","578","539461","0.0-1.0-788.0-0.0","0","0","81080","","722","","","75","87","","","2","87","training","adjacent","BA","2","1","P.jpg","N.jpg","0","0","1","",""
"","feedback","","html-keyboard-response","579","540465","0.0-1.0-789.0-0.0","0","0","81080","","null","","","null","87","","","","","","","","","","","","","","","",""
"","ITI","","html-keyboard-response","580","541468","0.0-1.0-792.0","0","0","81080","","null","","","null","87","","","","","","","","","","","","","","","NaN",""
