"success","ttype","start_time","trial_type","trial_index","time_elapsed","internal_node_id","warning","missed_checkup","PID","view_history","rt","responses","repeat_instructions","key_press","index","keypress_isi","keypress_S2","block","trial_num","phase","group_type","pair_type","S1_stim","S2_stim","S1_img","S2_img","S1_chosen","S1_higher","accuracy","keypress_iti","total_bonus_tally"
"true","full_screen","d07292022hr1919","fullscreen","0","33139","0.0-0.0","0","0","49894","","","","","","","","","","","","","","","","","","","","","",""
"","instructions","","instructions","1","77386","0.0-1.0-0.0-0.0","0","0","49894","[{""page_index"":0,""viewing_time"":6085},{""page_index"":1,""viewing_time"":19970},{""page_index"":2,""viewing_time"":14002},{""page_index"":3,""viewing_time"":4189}]","44246","","","","","","","","","","","","","","","","","","","",""
"","comprehension_check","","survey-multi-choice","2","100184","0.0-1.0-0.0-1.0","0","0","49894","","22795","{""Q0"":""True"",""Q1"":""D"",""Q2"":""When you see the prompt 'MAKE A CHOICE' after the second image was presented"",""Q3"":""Green mark"",""Q4"":""either D or K""}","0","","","","","","","","","","","","","","","","","",""
"","start_exp","","html-keyboard-response","3","103188","0.0-1.0-1.0","0","0","49894","","3002","","","32","","","","","","","","","","","","","","","","",""
"","S1","","html-keyboard-response","4","103441","0.0-1.0-2.0","0","0","49894","","null","","","null","0","","","","","","","","","","","","","","","",""
"","ISI","","html-keyboard-response","5","105444","0.0-1.0-3.0","0","0","49894","","null","","","null","0","NaN","","","","","","","","","","","","","","",""
"","S2","","html-keyboard-response","6","105697","0.0-1.0-4.0","0","0","49894","","null","","","null","0","","NaN","","","","","","","","","","","","","",""
"","response","","html-keyboard-response","7","106265","0.0-1.0-5.0","0","0","49894","","567","","","75","0","","","1","0","training","adjacent","FE","6","5","N.jpg","M.jpg","0","0","1","",""
"","feedback","","html-keyboard-response","8","107268","0.0-1.0-6.0-0.0","0","0","49894","","null","","","null","0","","","","","","","","","","","","","","","",""
"","ITI","","html-keyboard-response","9","108270","0.0-1.0-9.0","0","0","49894","","null","","","null","0","","","","","","","","","","","","","","","NaN",""
"","S1","","html-keyboard-response","10","108522","0.0-1.0-11.0","0","0","49894","","null","","","null","1","","","","","","","","","","","","","","","",""
"","ISI","","html-keyboard-response","11","110524","0.0-1.0-12.0","0","0","49894","","null","","","null","1","NaN","","","","","","","","","","","","","","",""
"","S2","","html-keyboard-response","12","110776","0.0-1.0-13.0","0","0","49894","","null","","","null","1","","NaN","","","","","","","","","","","","","",""
"","response","","html-keyboard-response","13","111377","0.0-1.0-14.0","0","0","49894","","600","","","68","1","","","1","1","training","adjacent","GF","7","6","L.jpg","N.jpg","1","0","0","",""
"","feedback","","html-keyboard-response","14","112379","0.0-1.0-15.0-0.0","0","0","49894","","null","","","null","1","","","","","","","","","","","","","","","",""
"","time_out","","html-keyboard-response","15","114381","0.0-1.0-17.0-0.0","0","0","49894","","null","","","null","1","","","","","","","","","","","","","","","",""
"","ITI","","html-keyboard-response","16","115384","0.0-1.0-18.0","0","0","49894","","null","","","null","1","","","","","","","","","","","","","","","NaN",""
"","S1","","html-keyboard-response","17","115636","0.0-1.0-20.0","0","0","49894","","null","","","null","2","","","","","","","","","","","","","","","",""
"","ISI","","html-keyboard-response","18","117638","0.0-1.0-21.0","0","0","49894","","null","","","null","2","NaN","","","","","","","","","","","","","","",""
"","S2","","html-keyboard-response","19","117890","0.0-1.0-22.0","0","0","49894","","null","","","null","2","","NaN","","","","","","","","","","","","","",""
"","response","","html-keyboard-response","20","118521","0.0-1.0-23.0","0","0","49894","","631","","","75","2","","","1","2","training","adjacent","CB","3","2","P.jpg","R.jpg","0","0","1","",""
"","feedback","","html-keyboard-response","21","119529","0.0-1.0-24.0-0.0","0","0","49894","","null","","","null","2","","","","","","","","","","","","","","","",""
"","ITI","","html-keyboard-response","22","120530","0.0-1.0-27.0","0","0","49894","","null","","","null","2","","","","","","","","","","","","","","","NaN",""
"","S1","","html-keyboard-response","23","120783","0.0-1.0-29.0","0","0","49894","","null","","","null","3","","","","","","","","","","","","","","","",""
"","ISI","","html-keyboard-response","24","122785","0.0-1.0-30.0","0","0","49894","","null","","","null","3","NaN","","","","","","","","","","","","","","",""
"","S2","","html-keyboard-response","25","123038","0.0-1.0-31.0","0","0","49894","","null","","","null","3","","NaN","","","","","","","","","","","","","",""
"","response","","html-keyboard-response","26","123645","0.0-1.0-32.0","0","0","49894","","606","","","75","3","","","1","3","training","adjacent","BC","2","3","R.jpg","P.jpg","0","1","0","",""
"","feedback","","html-keyboard-response","27","124654","0.0-1.0-33.0-0.0","0","0","49894","","null","","","null","3","","","","","","","","","","","","","","","",""
"","time_out","","html-keyboard-response","28","126656","0.0-1.0-35.0-0.0","0","0","49894","","null","","","null","3","","","","","","","","","","","","","","","",""
"","ITI","","html-keyboard-response","29","127658","0.0-1.0-36.0","0","0","49894","","null","","","null","3","","","","","","","","","","","","","","","NaN",""
"","S1","","html-keyboard-response","30","127911","0.0-1.0-38.0","0","0","49894","","null","","","null","4","","","","","","","","","","","","","","","",""
"","ISI","","html-keyboard-response","31","129912","0.0-1.0-39.0","0","0","49894","","null","","","null","4","NaN","","","","","","","","","","","","","","",""
"","S2","","html-keyboard-response","32","130164","0.0-1.0-40.0","0","0","49894","","null","","","null","4","","NaN","","","","","","","","","","","","","",""
"","response","","html-keyboard-response","33","130850","0.0-1.0-41.0","0","0","49894","","685","","","68","4","","","1","4","training","adjacent","DC","4","3","O.jpg","P.jpg","1","0","0","",""
"","feedback","","html-keyboard-response","34","131852","0.0-1.0-42.0-0.0","0","0","49894","","null","","","null","4","","","","","","","","","","","","","","","",""
"","time_out","","html-keyboard-response","35","133854","0.0-1.0-44.0-0.0","0","0","49894","","null","","","null","4","","","","","","","","","","","","","","","",""
"","ITI","","html-keyboard-response","36","134857","0.0-1.0-45.0","0","0","49894","","null","","","null","4","","","","","","","","","","","","","","","NaN",""
"","S1","","html-keyboard-response","37","135108","0.0-1.0-47.0","0","0","49894","","null","","","null","5","","","","","","","","","","","","","","","",""
"","ISI","","html-keyboard-response","38","137111","0.0-1.0-48.0","0","0","49894","","null","","","null","5","NaN","","","","","","","","","","","","","","",""
"","S2","","html-keyboard-response","39","137362","0.0-1.0-49.0","0","0","49894","","null","","","null","5","","NaN","","","","","","","","","","","","","",""
"","response","","html-keyboard-response","40","137966","0.0-1.0-50.0","0","0","49894","","603","","","68","5","","","1","5","training","adjacent","BC","2","3","R.jpg","P.jpg","1","1","1","",""
"","feedback","","html-keyboard-response","41","138968","0.0-1.0-51.0-0.0","0","0","49894","","null","","","null","5","","","","","","","","","","","","","","","",""
"","ITI","","html-keyboard-response","42","139970","0.0-1.0-54.0","0","0","49894","","null","","","null","5","","","","","","","","","","","","","","","NaN",""
"","S1","","html-keyboard-response","43","140221","0.0-1.0-56.0","0","0","49894","","null","","","null","6","","","","","","","","","","","","","","","",""
"","ISI","","html-keyboard-response","44","142223","0.0-1.0-57.0","0","0","49894","","null","","","null","6","NaN","","","","","","","","","","","","","","",""
"","S2","","html-keyboard-response","45","142475","0.0-1.0-58.0","0","0","49894","","null","","","null","6","","NaN","","","","","","","","","","","","","",""
"","response","","html-keyboard-response","46","142929","0.0-1.0-59.0","0","0","49894","","453","","","75","6","","","1","6","training","adjacent","CB","3","2","P.jpg","R.jpg","0","0","1","",""
"","feedback","","html-keyboard-response","47","143931","0.0-1.0-60.0-0.0","0","0","49894","","null","","","null","6","","","","","","","","","","","","","","","",""
"","ITI","","html-keyboard-response","48","144933","0.0-1.0-63.0","0","0","49894","","null","","","null","6","","","","","","","","","","","","","","","NaN",""
"","S1","","html-keyboard-response","49","145188","0.0-1.0-65.0","0","0","49894","","null","","","null","7","","","","","","","","","","","","","","","",""
"","ISI","","html-keyboard-response","50","147191","0.0-1.0-66.0","0","0","49894","","null","","","null","7","NaN","","","","","","","","","","","","","","",""
"","S2","","html-keyboard-response","51","147443","0.0-1.0-67.0","0","0","49894","","null","","","null","7","","NaN","","","","","","","","","","","","","",""
"","response","","html-keyboard-response","52","148024","0.0-1.0-68.0","0","0","49894","","580","","","75","7","","","1","7","training","adjacent","GF","7","6","L.jpg","N.jpg","0","0","1","",""
"","feedback","","html-keyboard-response","53","149026","0.0-1.0-69.0-0.0","0","0","49894","","null","","","null","7","","","","","","","","","","","","","","","",""
"","ITI","","html-keyboard-response","54","150030","0.0-1.0-72.0","0","0","49894","","null","","","null","7","","","","","","","","","","","","","","","NaN",""
"","S1","","html-keyboard-response","55","150283","0.0-1.0-74.0","0","0","49894","","null","","","null","8","","","","","","","","","","","","","","","",""
"","ISI","","html-keyboard-response","56","152285","0.0-1.0-75.0","0","0","49894","","null","","","null","8","NaN","","","","","","","","","","","","","","",""
"","S2","","html-keyboard-response","57","152539","0.0-1.0-76.0","0","0","49894","","null","","","null","8","","NaN","","","","","","","","","","","","","",""
"","response","","html-keyboard-response","58","153135","0.0-1.0-77.0","0","0","49894","","594","","","75","8","","","1","8","training","adjacent","CD","3","4","P.jpg","O.jpg","0","1","0","",""
"","feedback","","html-keyboard-response","59","154137","0.0-1.0-78.0-0.0","0","0","49894","","null","","","null","8","","","","","","","","","","","","","","","",""
"","time_out","","html-keyboard-response","60","156139","0.0-1.0-80.0-0.0","0","0","49894","","null","","","null","8","","","","","","","","","","","","","","","",""
"","ITI","","html-keyboard-response","61","157141","0.0-1.0-81.0","0","0","49894","","null","","","null","8","","","","","","","","","","","","","","","NaN",""
"","S1","","html-keyboard-response","62","157392","0.0-1.0-83.0","0","0","49894","","null","","","null","9","","","","","","","","","","","","","","","",""
"","ISI","","html-keyboard-response","63","159395","0.0-1.0-84.0","0","0","49894","","null","","","null","9","NaN","","","","","","","","","","","","","","",""
"","S2","","html-keyboard-response","64","159647","0.0-1.0-85.0","0","0","49894","","null","","","null","9","","NaN","","","","","","","","","","","","","",""
"","response","","html-keyboard-response","65","160195","0.0-1.0-86.0","0","0","49894","","547","","","75","9","","","1","9","training","adjacent","GF","7","6","L.jpg","N.jpg","0","0","1","",""
"","feedback","","html-keyboard-response","66","161197","0.0-1.0-87.0-0.0","0","0","49894","","null","","","null","9","","","","","","","","","","","","","","","",""
"","ITI","","html-keyboard-response","67","162200","0.0-1.0-90.0","0","0","49894","","null","","","null","9","","","","","","","","","","","","","","","NaN",""
"","S1","","html-keyboard-response","68","162452","0.0-1.0-92.0","0","0","49894","","null","","","null","10","","","","","","","","","","","","","","","",""
"","ISI","","html-keyboard-response","69","164454","0.0-1.0-93.0","0","0","49894","","null","","","null","10","NaN","","","","","","","","","","","","","","",""
"","S2","","html-keyboard-response","70","164706","0.0-1.0-94.0","0","0","49894","","null","","","null","10","","NaN","","","","","","","","","","","","","",""
"","response","","html-keyboard-response","71","165276","0.0-1.0-95.0","0","0","49894","","569","","","68","10","","","1","10","training","adjacent","DC","4","3","O.jpg","P.jpg","1","0","0","",""
"","feedback","","html-keyboard-response","72","166279","0.0-1.0-96.0-0.0","0","0","49894","","null","","","null","10","","","","","","","","","","","","","","","",""
"","time_out","","html-keyboard-response","73","168280","0.0-1.0-98.0-0.0","0","0","49894","","null","","","null","10","","","","","","","","","","","","","","","",""
"","ITI","","html-keyboard-response","74","169283","0.0-1.0-99.0","0","0","49894","","null","","","null","10","","","","","","","","","","","","","","","NaN",""
"","S1","","html-keyboard-response","75","169542","0.0-1.0-101.0","0","0","49894","","null","","","null","11","","","","","","","","","","","","","","","",""
"","ISI","","html-keyboard-response","76","171544","0.0-1.0-102.0","0","0","49894","","null","","","null","11","NaN","","","","","","","","","","","","","","",""
"","S2","","html-keyboard-response","77","171801","0.0-1.0-103.0","0","0","49894","","null","","","null","11","","NaN","","","","","","","","","","","","","",""
"","response","","html-keyboard-response","78","172351","0.0-1.0-104.0","0","0","49894","","549","","","68","11","","","1","11","training","adjacent","BA","2","1","R.jpg","Q.jpg","1","0","0","",""
"","feedback","","html-keyboard-response","79","173354","0.0-1.0-105.0-0.0","0","0","49894","","null","","","null","11","","","","","","","","","","","","","","","",""
"","time_out","","html-keyboard-response","80","175356","0.0-1.0-107.0-0.0","0","0","49894","","null","","","null","11","","","","","","","","","","","","","","","",""
"","ITI","","html-keyboard-response","81","176358","0.0-1.0-108.0","0","0","49894","","null","","","null","11","","","","","","","","","","","","","","","NaN",""
"","S1","","html-keyboard-response","82","176610","0.0-1.0-110.0","0","0","49894","","null","","","null","12","","","","","","","","","","","","","","","",""
"","ISI","","html-keyboard-response","83","178612","0.0-1.0-111.0","0","0","49894","","null","","","null","12","NaN","","","","","","","","","","","","","","",""
"","S2","","html-keyboard-response","84","178863","0.0-1.0-112.0","0","0","49894","","null","","","null","12","","NaN","","","","","","","","","","","","","",""
"","response","","html-keyboard-response","85","179326","0.0-1.0-113.0","0","0","49894","","462","","","75","12","","","1","12","training","adjacent","CB","3","2","P.jpg","R.jpg","0","0","1","",""
"","feedback","","html-keyboard-response","86","180328","0.0-1.0-114.0-0.0","0","0","49894","","null","","","null","12","","","","","","","","","","","","","","","",""
"","ITI","","html-keyboard-response","87","181330","0.0-1.0-117.0","0","0","49894","","null","","","null","12","","","","","","","","","","","","","","","NaN",""
"","S1","","html-keyboard-response","88","181582","0.0-1.0-119.0","0","0","49894","","null","","","null","13","","","","","","","","","","","","","","","",""
"","ISI","","html-keyboard-response","89","183584","0.0-1.0-120.0","0","0","49894","","null","","","null","13","NaN","","","","","","","","","","","","","","",""
"","S2","","html-keyboard-response","90","183837","0.0-1.0-121.0","0","0","49894","","null","","","null","13","","NaN","","","","","","","","","","","","","",""
"","response","","html-keyboard-response","91","184451","0.0-1.0-122.0","0","0","49894","","613","","","75","13","","","1","13","training","adjacent","FE","6","5","N.jpg","M.jpg","0","0","1","",""
"","feedback","","html-keyboard-response","92","185453","0.0-1.0-123.0-0.0","0","0","49894","","null","","","null","13","","","","","","","","","","","","","","","",""
"","ITI","","html-keyboard-response","93","186456","0.0-1.0-126.0","0","0","49894","","null","","","null","13","","","","","","","","","","","","","","","NaN",""
"","S1","","html-keyboard-response","94","186708","0.0-1.0-128.0","0","0","49894","","null","","","null","14","","","","","","","","","","","","","","","",""
"","ISI","","html-keyboard-response","95","188710","0.0-1.0-129.0","0","0","49894","","null","","","null","14","NaN","","","","","","","","","","","","","","",""
"","S2","","html-keyboard-response","96","188963","0.0-1.0-130.0","0","0","49894","","null","","","null","14","","NaN","","","","","","","","","","","","","",""
"","response","","html-keyboard-response","97","189568","0.0-1.0-131.0","0","0","49894","","605","","","68","14","","","1","14","training","adjacent","DE","4","5","O.jpg","M.jpg","1","1","1","",""
"","feedback","","html-keyboard-response","98","190571","0.0-1.0-132.0-0.0","0","0","49894","","null","","","null","14","","","","","","","","","","","","","","","",""
"","ITI","","html-keyboard-response","99","191573","0.0-1.0-135.0","0","0","49894","","null","","","null","14","","","","","","","","","","","","","","","NaN",""
"","S1","","html-keyboard-response","100","191826","0.0-1.0-137.0","0","0","49894","","null","","","null","15","","","","","","","","","","","","","","","",""
"","ISI","","html-keyboard-response","101","193828","0.0-1.0-138.0","0","0","49894","","null","","","null","15","NaN","","","","","","","","","","","","","","",""
"","S2","","html-keyboard-response","102","194080","0.0-1.0-139.0","0","0","49894","","null","","","null","15","","NaN","","","","","","","","","","","","","",""
"","response","","html-keyboard-response","103","194618","0.0-1.0-140.0","0","0","49894","","536","","","68","15","","","1","15","training","adjacent","CD","3","4","P.jpg","O.jpg","1","1","1","",""
"","feedback","","html-keyboard-response","104","195620","0.0-1.0-141.0-0.0","0","0","49894","","null","","","null","15","","","","","","","","","","","","","","","",""
"","ITI","","html-keyboard-response","105","196621","0.0-1.0-144.0","0","0","49894","","null","","","null","15","","","","","","","","","","","","","","","NaN",""
"","S1","","html-keyboard-response","106","196873","0.0-1.0-146.0","0","0","49894","","null","","","null","16","","","","","","","","","","","","","","","",""
"","ISI","","html-keyboard-response","107","198875","0.0-1.0-147.0","0","0","49894","","null","","","null","16","NaN","","","","","","","","","","","","","","",""
"","S2","","html-keyboard-response","108","199128","0.0-1.0-148.0","0","0","49894","","null","","","null","16","","NaN","","","","","","","","","","","","","",""
"","response","","html-keyboard-response","109","199741","0.0-1.0-149.0","0","0","49894","","612","","","75","16","","","1","16","training","adjacent","BA","2","1","R.jpg","Q.jpg","0","0","1","",""
"","feedback","","html-keyboard-response","110","200743","0.0-1.0-150.0-0.0","0","0","49894","","null","","","null","16","","","","","","","","","","","","","","","",""
"","ITI","","html-keyboard-response","111","201745","0.0-1.0-153.0","0","0","49894","","null","","","null","16","","","","","","","","","","","","","","","NaN",""
"","S1","","html-keyboard-response","112","201997","0.0-1.0-155.0","0","0","49894","","null","","","null","17","","","","","","","","","","","","","","","",""
"","ISI","","html-keyboard-response","113","203999","0.0-1.0-156.0","0","0","49894","","null","","","null","17","NaN","","","","","","","","","","","","","","",""
"","S2","","html-keyboard-response","114","204251","0.0-1.0-157.0","0","0","49894","","null","","","null","17","","NaN","","","","","","","","","","","","","",""
"","response","","html-keyboard-response","115","204808","0.0-1.0-158.0","0","0","49894","","556","","","68","17","","","1","17","training","adjacent","FE","6","5","N.jpg","M.jpg","1","0","0","",""
"","feedback","","html-keyboard-response","116","205810","0.0-1.0-159.0-0.0","0","0","49894","","null","","","null","17","","","","","","","","","","","","","","","",""
"","time_out","","html-keyboard-response","117","207811","0.0-1.0-161.0-0.0","0","0","49894","","null","","","null","17","","","","","","","","","","","","","","","",""
"","ITI","","html-keyboard-response","118","208813","0.0-1.0-162.0","0","0","49894","","null","","","null","17","","","","","","","","","","","","","","","NaN",""
"","S1","","html-keyboard-response","119","209065","0.0-1.0-164.0","0","0","49894","","null","","","null","18","","","","","","","","","","","","","","","",""
"","ISI","","html-keyboard-response","120","211068","0.0-1.0-165.0","0","0","49894","","null","","","null","18","NaN","","","","","","","","","","","","","","",""
"","S2","","html-keyboard-response","121","211320","0.0-1.0-166.0","0","0","49894","","null","","","null","18","","NaN","","","","","","","","","","","","","",""
"","response","","html-keyboard-response","122","211772","0.0-1.0-167.0","0","0","49894","","452","","","75","18","","","1","18","training","adjacent","DE","4","5","O.jpg","M.jpg","0","1","0","",""
"","feedback","","html-keyboard-response","123","212774","0.0-1.0-168.0-0.0","0","0","49894","","null","","","null","18","","","","","","","","","","","","","","","",""
"","time_out","","html-keyboard-response","124","214776","0.0-1.0-170.0-0.0","0","0","49894","","null","","","null","18","","","","","","","","","","","","","","","",""
"","ITI","","html-keyboard-response","125","215779","0.0-1.0-171.0","0","0","49894","","null","","","null","18","","","","","","","","","","","","","","","NaN",""
"","S1","","html-keyboard-response","126","216031","0.0-1.0-173.0","0","0","49894","","null","","","null","19","","","","","","","","","","","","","","","",""
"","ISI","","html-keyboard-response","127","218033","0.0-1.0-174.0","0","0","49894","","null","","","null","19","NaN","","","","","","","","","","","","","","",""
"","S2","","html-keyboard-response","128","218284","0.0-1.0-175.0","0","0","49894","","null","","","null","19","","NaN","","","","","","","","","","","","","",""
"","response","","html-keyboard-response","129","218820","0.0-1.0-176.0","0","0","49894","","534","","","75","19","","","1","19","training","adjacent","BA","2","1","R.jpg","Q.jpg","0","0","1","",""
"","feedback","","html-keyboard-response","130","219822","0.0-1.0-177.0-0.0","0","0","49894","","null","","","null","19","","","","","","","","","","","","","","","",""
"","ITI","","html-keyboard-response","131","220823","0.0-1.0-180.0","0","0","49894","","null","","","null","19","","","","","","","","","","","","","","","NaN",""
"","S1","","html-keyboard-response","132","221076","0.0-1.0-182.0","0","0","49894","","null","","","null","20","","","","","","","","","","","","","","","",""
"","ISI","","html-keyboard-response","133","223077","0.0-1.0-183.0","0","0","49894","","null","","","null","20","NaN","","","","","","","","","","","","","","",""
"","S2","","html-keyboard-response","134","223329","0.0-1.0-184.0","0","0","49894","","null","","","null","20","","NaN","","","","","","","","","","","","","",""
"","response","","html-keyboard-response","135","223880","0.0-1.0-185.0","0","0","49894","","549","","","68","20","","","1","20","training","adjacent","EF","5","6","M.jpg","N.jpg","1","1","1","",""
"","feedback","","html-keyboard-response","136","224882","0.0-1.0-186.0-0.0","0","0","49894","","null","","","null","20","","","","","","","","","","","","","","","",""
"","ITI","","html-keyboard-response","137","225884","0.0-1.0-189.0","0","0","49894","","null","","","null","20","","","","","","","","","","","","","","","NaN",""
"","S1","","html-keyboard-response","138","226136","0.0-1.0-191.0","0","0","49894","","null","","","null","21","","","","","","","","","","","","","","","",""
"","ISI","","html-keyboard-response","139","228137","0.0-1.0-192.0","0","0","49894","","null","","","null","21","NaN","","","","","","","","","","","","","","",""
"","S2","","html-keyboard-response","140","228389","0.0-1.0-193.0","0","0","49894","","null","","","null","21","","NaN","","","","","","","","","","","","","",""
"","response","","html-keyboard-response","141","228860","0.0-1.0-194.0","0","0","49894","","470","","","75","21","","","1","21","training","adjacent","EF","5","6","M.jpg","N.jpg","0","1","0","",""
"","feedback","","html-keyboard-response","142","229862","0.0-1.0-195.0-0.0","0","0","49894","","null","","","null","21","","","","","","","","","","","","","","","",""
"","time_out","","html-keyboard-response","143","231864","0.0-1.0-197.0-0.0","0","0","49894","","null","","","null","21","","","","","","","","","","","","","","","",""
"","ITI","","html-keyboard-response","144","232866","0.0-1.0-198.0","0","0","49894","","null","","","null","21","","","","","","","","","","","","","","","NaN",""
"","S1","","html-keyboard-response","145","233118","0.0-1.0-200.0","0","0","49894","","null","","","null","22","","","","","","","","","","","","","","","",""
"","ISI","","html-keyboard-response","146","235120","0.0-1.0-201.0","0","0","49894","","null","","","null","22","NaN","","","","","","","","","","","","","","",""
"","S2","","html-keyboard-response","147","235372","0.0-1.0-202.0","0","0","49894","","null","","","null","22","","NaN","","","","","","","","","","","","","",""
"","response","","html-keyboard-response","148","235879","0.0-1.0-203.0","0","0","49894","","506","","","75","22","","","1","22","training","adjacent","CD","3","4","P.jpg","O.jpg","0","1","0","",""
"","feedback","","html-keyboard-response","149","236881","0.0-1.0-204.0-0.0","0","0","49894","","null","","","null","22","","","","","","","","","","","","","","","",""
"","time_out","","html-keyboard-response","150","238884","0.0-1.0-206.0-0.0","0","0","49894","","null","","","null","22","","","","","","","","","","","","","","","",""
"","ITI","","html-keyboard-response","151","239886","0.0-1.0-207.0","0","0","49894","","null","","","null","22","","","","","","","","","","","","","","","NaN",""
"","S1","","html-keyboard-response","152","240138","0.0-1.0-209.0","0","0","49894","","null","","","null","23","","","","","","","","","","","","","","","",""
"","ISI","","html-keyboard-response","153","242140","0.0-1.0-210.0","0","0","49894","","null","","","null","23","NaN","","","","","","","","","","","","","","",""
"","S2","","html-keyboard-response","154","242392","0.0-1.0-211.0","0","0","49894","","null","","","null","23","","NaN","","","","","","","","","","","","","",""
"","response","","html-keyboard-response","155","242825","0.0-1.0-212.0","0","0","49894","","431","","","68","23","","","1","23","training","adjacent","AB","1","2","Q.jpg","R.jpg","1","1","1","",""
"","feedback","","html-keyboard-response","156","243828","0.0-1.0-213.0-0.0","0","0","49894","","null","","","null","23","","","","","","","","","","","","","","","",""
"","ITI","","html-keyboard-response","157","244831","0.0-1.0-216.0","0","0","49894","","null","","","null","23","","","","","","","","","","","","","","","NaN",""
"","S1","","html-keyboard-response","158","245083","0.0-1.0-218.0","0","0","49894","","null","","","null","24","","","","","","","","","","","","","","","",""
"","ISI","","html-keyboard-response","159","247084","0.0-1.0-219.0","0","0","49894","","null","","","null","24","NaN","","","","","","","","","","","","","","",""
"","S2","","html-keyboard-response","160","247337","0.0-1.0-220.0","0","0","49894","","null","","","null","24","","NaN","","","","","","","","","","","","","",""
"","response","","html-keyboard-response","161","247847","0.0-1.0-221.0","0","0","49894","","509","","","75","24","","","1","24","training","adjacent","EF","5","6","M.jpg","N.jpg","0","1","0","",""
"","feedback","","html-keyboard-response","162","248848","0.0-1.0-222.0-0.0","0","0","49894","","null","","","null","24","","","","","","","","","","","","","","","",""
"","time_out","","html-keyboard-response","163","250851","0.0-1.0-224.0-0.0","0","0","49894","","null","","","null","24","","","","","","","","","","","","","","","",""
"","ITI","","html-keyboard-response","164","251853","0.0-1.0-225.0","0","0","49894","","null","","","null","24","","","","","","","","","","","","","","","NaN",""
"","S1","","html-keyboard-response","165","252105","0.0-1.0-227.0","0","0","49894","","null","","","null","25","","","","","","","","","","","","","","","",""
"","ISI","","html-keyboard-response","166","254107","0.0-1.0-228.0","0","0","49894","","null","","","null","25","NaN","","","","","","","","","","","","","","",""
"","S2","","html-keyboard-response","167","254359","0.0-1.0-229.0","0","0","49894","","null","","","null","25","","NaN","","","","","","","","","","","","","",""
"","response","","html-keyboard-response","168","254925","0.0-1.0-230.0","0","0","49894","","564","","","68","25","","","1","25","training","adjacent","DE","4","5","O.jpg","M.jpg","1","1","1","",""
"","feedback","","html-keyboard-response","169","255927","0.0-1.0-231.0-0.0","0","0","49894","","null","","","null","25","","","","","","","","","","","","","","","",""
"","ITI","","html-keyboard-response","170","256930","0.0-1.0-234.0","0","0","49894","","null","","","null","25","","","","","","","","","","","","","","","NaN",""
"","S1","","html-keyboard-response","171","257182","0.0-1.0-236.0","0","0","49894","","null","","","null","26","","","","","","","","","","","","","","","",""
"","ISI","","html-keyboard-response","172","259184","0.0-1.0-237.0","0","0","49894","","null","","","null","26","NaN","","","","","","","","","","","","","","",""
"","S2","","html-keyboard-response","173","259436","0.0-1.0-238.0","0","0","49894","","null","","","null","26","","NaN","","","","","","","","","","","","","",""
"","response","","html-keyboard-response","174","259897","0.0-1.0-239.0","0","0","49894","","459","","","68","26","","","1","26","training","adjacent","AB","1","2","Q.jpg","R.jpg","1","1","1","",""
"","feedback","","html-keyboard-response","175","260899","0.0-1.0-240.0-0.0","0","0","49894","","null","","","null","26","","","","","","","","","","","","","","","",""
"","ITI","","html-keyboard-response","176","261901","0.0-1.0-243.0","0","0","49894","","null","","","null","26","","","","","","","","","","","","","","","NaN",""
"","S1","","html-keyboard-response","177","262153","0.0-1.0-245.0","0","0","49894","","null","","","null","27","","","","","","","","","","","","","","","",""
"","ISI","","html-keyboard-response","178","264155","0.0-1.0-246.0","0","0","49894","","null","","","null","27","NaN","","","","","","","","","","","","","","",""
"","S2","","html-keyboard-response","179","264407","0.0-1.0-247.0","0","0","49894","","null","","","null","27","","NaN","","","","","","","","","","","","","",""
"","response","","html-keyboard-response","180","265250","0.0-1.0-248.0","0","0","49894","","842","","","75","27","","","1","27","training","adjacent","FG","6","7","N.jpg","L.jpg","0","1","0","",""
"","feedback","","html-keyboard-response","181","266251","0.0-1.0-249.0-0.0","0","0","49894","","null","","","null","27","","","","","","","","","","","","","","","",""
"","time_out","","html-keyboard-response","182","268253","0.0-1.0-251.0-0.0","0","0","49894","","null","","","null","27","","","","","","","","","","","","","","","",""
"","ITI","","html-keyboard-response","183","269255","0.0-1.0-252.0","0","0","49894","","null","","","null","27","","","","","","","","","","","","","","","NaN",""
"","S1","","html-keyboard-response","184","269507","0.0-1.0-254.0","0","0","49894","","null","","","null","28","","","","","","","","","","","","","","","",""
"","ISI","","html-keyboard-response","185","271508","0.0-1.0-255.0","0","0","49894","","null","","","null","28","NaN","","","","","","","","","","","","","","",""
"","S2","","html-keyboard-response","186","271760","0.0-1.0-256.0","0","0","49894","","null","","","null","28","","NaN","","","","","","","","","","","","","",""
"","response","","html-keyboard-response","187","272864","0.0-1.0-257.0","0","0","49894","","1104","","","68","28","","","1","28","training","adjacent","ED","5","4","M.jpg","O.jpg","1","0","0","",""
"","feedback","","html-keyboard-response","188","273867","0.0-1.0-258.0-0.0","0","0","49894","","null","","","null","28","","","","","","","","","","","","","","","",""
"","time_out","","html-keyboard-response","189","275869","0.0-1.0-260.0-0.0","0","0","49894","","null","","","null","28","","","","","","","","","","","","","","","",""
"","ITI","","html-keyboard-response","190","276871","0.0-1.0-261.0","0","0","49894","","null","","","null","28","","","","","","","","","","","","","","","NaN",""
"","S1","","html-keyboard-response","191","277123","0.0-1.0-263.0","0","0","49894","","null","","","null","29","","","","","","","","","","","","","","","",""
"","ISI","","html-keyboard-response","192","279126","0.0-1.0-264.0","0","0","49894","","null","","","null","29","NaN","","","","","","","","","","","","","","",""
"","S2","","html-keyboard-response","193","279378","0.0-1.0-265.0","0","0","49894","","null","","","null","29","","NaN","","","","","","","","","","","","","",""
"","response","","html-keyboard-response","194","279938","0.0-1.0-266.0","0","0","49894","","558","","","75","29","","","1","29","training","adjacent","ED","5","4","M.jpg","O.jpg","0","0","1","",""
"","feedback","","html-keyboard-response","195","280940","0.0-1.0-267.0-0.0","0","0","49894","","null","","","null","29","","","","","","","","","","","","","","","",""
"","ITI","","html-keyboard-response","196","281943","0.0-1.0-270.0","0","0","49894","","null","","","null","29","","","","","","","","","","","","","","","NaN",""
"","S1","","html-keyboard-response","197","282195","0.0-1.0-272.0","0","0","49894","","null","","","null","30","","","","","","","","","","","","","","","",""
"","ISI","","html-keyboard-response","198","284197","0.0-1.0-273.0","0","0","49894","","null","","","null","30","NaN","","","","","","","","","","","","","","",""
"","S2","","html-keyboard-response","199","284449","0.0-1.0-274.0","0","0","49894","","null","","","null","30","","NaN","","","","","","","","","","","","","",""
"","response","","html-keyboard-response","200","285010","0.0-1.0-275.0","0","0","49894","","559","","","68","30","","","1","30","training","adjacent","DC","4","3","O.jpg","P.jpg","1","0","0","",""
"","feedback","","html-keyboard-response","201","286012","0.0-1.0-276.0-0.0","0","0","49894","","null","","","null","30","","","","","","","","","","","","","","","",""
"","time_out","","html-keyboard-response","202","288013","0.0-1.0-278.0-0.0","0","0","49894","","null","","","null","30","","","","","","","","","","","","","","","",""
"","ITI","","html-keyboard-response","203","289017","0.0-1.0-279.0","0","0","49894","","null","","","null","30","","","","","","","","","","","","","","","NaN",""
"","S1","","html-keyboard-response","204","289270","0.0-1.0-281.0","0","0","49894","","null","","","null","31","","","","","","","","","","","","","","","",""
"","ISI","","html-keyboard-response","205","291272","0.0-1.0-282.0","0","0","49894","","null","","","null","31","NaN","","","","","","","","","","","","","","",""
"","S2","","html-keyboard-response","206","291524","0.0-1.0-283.0","0","0","49894","","null","","","null","31","","NaN","","","","","","","","","","","","","",""
"","response","","html-keyboard-response","207","292391","0.0-1.0-284.0","0","0","49894","","867","","","75","31","","","1","31","training","adjacent","ED","5","4","M.jpg","O.jpg","0","0","1","",""
"","feedback","","html-keyboard-response","208","293394","0.0-1.0-285.0-0.0","0","0","49894","","null","","","null","31","","","","","","","","","","","","","","","",""
"","ITI","","html-keyboard-response","209","294397","0.0-1.0-288.0","0","0","49894","","null","","","null","31","","","","","","","","","","","","","","","NaN",""
"","S1","","html-keyboard-response","210","294649","0.0-1.0-290.0","0","0","49894","","null","","","null","32","","","","","","","","","","","","","","","",""
"","ISI","","html-keyboard-response","211","296651","0.0-1.0-291.0","0","0","49894","","null","","","null","32","NaN","","","","","","","","","","","","","","",""
"","S2","","html-keyboard-response","212","296903","0.0-1.0-292.0","0","0","49894","","null","","","null","32","","NaN","","","","","","","","","","","","","",""
"","response","","html-keyboard-response","213","297436","0.0-1.0-293.0","0","0","49894","","531","","","68","32","","","1","32","training","adjacent","FE","6","5","N.jpg","M.jpg","1","0","0","",""
"","feedback","","html-keyboard-response","214","298438","0.0-1.0-294.0-0.0","0","0","49894","","null","","","null","32","","","","","","","","","","","","","","","",""
"","time_out","","html-keyboard-response","215","300440","0.0-1.0-296.0-0.0","0","0","49894","","null","","","null","32","","","","","","","","","","","","","","","",""
"","ITI","","html-keyboard-response","216","301442","0.0-1.0-297.0","0","0","49894","","null","","","null","32","","","","","","","","","","","","","","","NaN",""
"","S1","","html-keyboard-response","217","301694","0.0-1.0-299.0","0","0","49894","","null","","","null","33","","","","","","","","","","","","","","","",""
"","ISI","","html-keyboard-response","218","303696","0.0-1.0-300.0","0","0","49894","","null","","","null","33","NaN","","","","","","","","","","","","","","",""
"","S2","","html-keyboard-response","219","303949","0.0-1.0-301.0","0","0","49894","","null","","","null","33","","NaN","","","","","","","","","","","","","",""
"","response","","html-keyboard-response","220","304413","0.0-1.0-302.0","0","0","49894","","463","","","68","33","","","1","33","training","adjacent","BC","2","3","R.jpg","P.jpg","1","1","1","",""
"","feedback","","html-keyboard-response","221","305415","0.0-1.0-303.0-0.0","0","0","49894","","null","","","null","33","","","","","","","","","","","","","","","",""
"","ITI","","html-keyboard-response","222","306417","0.0-1.0-306.0","0","0","49894","","null","","","null","33","","","","","","","","","","","","","","","NaN",""
"","S1","","html-keyboard-response","223","306669","0.0-1.0-308.0","0","0","49894","","null","","","null","34","","","","","","","","","","","","","","","",""
"","ISI","","html-keyboard-response","224","308671","0.0-1.0-309.0","0","0","49894","","null","","","null","34","NaN","","","","","","","","","","","","","","",""
"","S2","","html-keyboard-response","225","308923","0.0-1.0-310.0","0","0","49894","","null","","","null","34","","NaN","","","","","","","","","","","","","",""
"","response","","html-keyboard-response","226","309898","0.0-1.0-311.0","0","0","49894","","973","","","75","34","","","1","34","training","adjacent","DC","4","3","O.jpg","P.jpg","0","0","1","",""
"","feedback","","html-keyboard-response","227","310901","0.0-1.0-312.0-0.0","0","0","49894","","null","","","null","34","","","","","","","","","","","","","","","",""
"","ITI","","html-keyboard-response","228","311903","0.0-1.0-315.0","0","0","49894","","null","","","null","34","","","","","","","","","","","","","","","NaN",""
"","S1","","html-keyboard-response","229","312155","0.0-1.0-317.0","0","0","49894","","null","","","null","35","","","","","","","","","","","","","","","",""
"","ISI","","html-keyboard-response","230","314158","0.0-1.0-318.0","0","0","49894","","null","","","null","35","NaN","","","","","","","","","","","","","","",""
"","S2","","html-keyboard-response","231","314409","0.0-1.0-319.0","0","0","49894","","null","","","null","35","","NaN","","","","","","","","","","","","","",""
"","response","","html-keyboard-response","232","315088","0.0-1.0-320.0","0","0","49894","","677","","","75","35","","","1","35","training","adjacent","CD","3","4","P.jpg","O.jpg","0","1","0","",""
"","feedback","","html-keyboard-response","233","316089","0.0-1.0-321.0-0.0","0","0","49894","","null","","","null","35","","","","","","","","","","","","","","","",""
"","time_out","","html-keyboard-response","234","318091","0.0-1.0-323.0-0.0","0","0","49894","","null","","","null","35","","","","","","","","","","","","","","","",""
"","ITI","","html-keyboard-response","235","319093","0.0-1.0-324.0","0","0","49894","","null","","","null","35","","","","","","","","","","","","","","","NaN",""
"","S1","","html-keyboard-response","236","319346","0.0-1.0-326.0","0","0","49894","","null","","","null","36","","","","","","","","","","","","","","","",""
"","ISI","","html-keyboard-response","237","321348","0.0-1.0-327.0","0","0","49894","","null","","","null","36","NaN","","","","","","","","","","","","","","",""
"","S2","","html-keyboard-response","238","321601","0.0-1.0-328.0","0","0","49894","","null","","","null","36","","NaN","","","","","","","","","","","","","",""
"","response","","html-keyboard-response","239","322108","0.0-1.0-329.0","0","0","49894","","507","","","68","36","","","1","36","training","adjacent","AB","1","2","Q.jpg","R.jpg","1","1","1","",""
"","feedback","","html-keyboard-response","240","323111","0.0-1.0-330.0-0.0","0","0","49894","","null","","","null","36","","","","","","","","","","","","","","","",""
"","ITI","","html-keyboard-response","241","324114","0.0-1.0-333.0","0","0","49894","","null","","","null","36","","","","","","","","","","","","","","","NaN",""
"","S1","","html-keyboard-response","242","324365","0.0-1.0-335.0","0","0","49894","","null","","","null","37","","","","","","","","","","","","","","","",""
"","ISI","","html-keyboard-response","243","326368","0.0-1.0-336.0","0","0","49894","","null","","","null","37","NaN","","","","","","","","","","","","","","",""
"","S2","","html-keyboard-response","244","326619","0.0-1.0-337.0","0","0","49894","","null","","","null","37","","NaN","","","","","","","","","","","","","",""
"","response","","html-keyboard-response","245","327208","0.0-1.0-338.0","0","0","49894","","588","","","68","37","","","1","37","training","adjacent","DE","4","5","O.jpg","M.jpg","1","1","1","",""
"","feedback","","html-keyboard-response","246","328211","0.0-1.0-339.0-0.0","0","0","49894","","null","","","null","37","","","","","","","","","","","","","","","",""
"","ITI","","html-keyboard-response","247","329213","0.0-1.0-342.0","0","0","49894","","null","","","null","37","","","","","","","","","","","","","","","NaN",""
"","S1","","html-keyboard-response","248","329464","0.0-1.0-344.0","0","0","49894","","null","","","null","38","","","","","","","","","","","","","","","",""
"","ISI","","html-keyboard-response","249","331466","0.0-1.0-345.0","0","0","49894","","null","","","null","38","NaN","","","","","","","","","","","","","","",""
"","S2","","html-keyboard-response","250","331718","0.0-1.0-346.0","0","0","49894","","null","","","null","38","","NaN","","","","","","","","","","","","","",""
"","response","","html-keyboard-response","251","332380","0.0-1.0-347.0","0","0","49894","","661","","","68","38","","","1","38","training","adjacent","EF","5","6","M.jpg","N.jpg","1","1","1","",""
"","feedback","","html-keyboard-response","252","333382","0.0-1.0-348.0-0.0","0","0","49894","","null","","","null","38","","","","","","","","","","","","","","","",""
"","ITI","","html-keyboard-response","253","334384","0.0-1.0-351.0","0","0","49894","","null","","","null","38","","","","","","","","","","","","","","","NaN",""
"","S1","","html-keyboard-response","254","334636","0.0-1.0-353.0","0","0","49894","","null","","","null","39","","","","","","","","","","","","","","","",""
"","ISI","","html-keyboard-response","255","336638","0.0-1.0-354.0","0","0","49894","","null","","","null","39","NaN","","","","","","","","","","","","","","",""
"","S2","","html-keyboard-response","256","336890","0.0-1.0-355.0","0","0","49894","","null","","","null","39","","NaN","","","","","","","","","","","","","",""
"","response","","html-keyboard-response","257","337726","0.0-1.0-356.0","0","0","49894","","835","","","68","39","","","1","39","training","adjacent","CB","3","2","P.jpg","R.jpg","1","0","0","",""
"","feedback","","html-keyboard-response","258","338728","0.0-1.0-357.0-0.0","0","0","49894","","null","","","null","39","","","","","","","","","","","","","","","",""
"","time_out","","html-keyboard-response","259","340730","0.0-1.0-359.0-0.0","0","0","49894","","null","","","null","39","","","","","","","","","","","","","","","",""
"","ITI","","html-keyboard-response","260","341732","0.0-1.0-360.0","0","0","49894","","null","","","null","39","","","","","","","","","","","","","","","NaN",""
"","S1","","html-keyboard-response","261","341984","0.0-1.0-362.0","0","0","49894","","null","","","null","40","","","","","","","","","","","","","","","",""
"","ISI","","html-keyboard-response","262","343987","0.0-1.0-363.0","0","0","49894","","null","","","null","40","NaN","","","","","","","","","","","","","","",""
"","S2","","html-keyboard-response","263","344239","0.0-1.0-364.0","0","0","49894","","null","","","null","40","","NaN","","","","","","","","","","","","","",""
"","response","","html-keyboard-response","264","344654","0.0-1.0-365.0","0","0","49894","","414","","","75","40","","","1","40","training","adjacent","BC","2","3","R.jpg","P.jpg","0","1","0","",""
"","feedback","","html-keyboard-response","265","345656","0.0-1.0-366.0-0.0","0","0","49894","","null","","","null","40","","","","","","","","","","","","","","","",""
"","time_out","","html-keyboard-response","266","347658","0.0-1.0-368.0-0.0","0","0","49894","","null","","","null","40","","","","","","","","","","","","","","","",""
"","ITI","","html-keyboard-response","267","348660","0.0-1.0-369.0","0","0","49894","","null","","","null","40","","","","","","","","","","","","","","","NaN",""
"","S1","","html-keyboard-response","268","348913","0.0-1.0-371.0","0","0","49894","","null","","","null","41","","","","","","","","","","","","","","","",""
"","ISI","","html-keyboard-response","269","350915","0.0-1.0-372.0","0","0","49894","","null","","","null","41","NaN","","","","","","","","","","","","","","",""
"","S2","","html-keyboard-response","270","351167","0.0-1.0-373.0","0","0","49894","","null","","","null","41","","NaN","","","","","","","","","","","","","",""
"","response","","html-keyboard-response","271","351790","0.0-1.0-374.0","0","0","49894","","623","","","75","41","","","1","41","training","adjacent","FG","6","7","N.jpg","L.jpg","0","1","0","",""
"","feedback","","html-keyboard-response","272","352793","0.0-1.0-375.0-0.0","0","0","49894","","null","","","null","41","","","","","","","","","","","","","","","",""
"","time_out","","html-keyboard-response","273","354795","0.0-1.0-377.0-0.0","0","0","49894","","null","","","null","41","","","","","","","","","","","","","","","",""
"","ITI","","html-keyboard-response","274","355797","0.0-1.0-378.0","0","0","49894","","null","","","null","41","","","","","","","","","","","","","","","NaN",""
"","S1","","html-keyboard-response","275","356049","0.0-1.0-380.0","0","0","49894","","null","","","null","42","","","","","","","","","","","","","","","",""
"","ISI","","html-keyboard-response","276","358051","0.0-1.0-381.0","0","0","49894","","null","","","null","42","NaN","","","","","","","","","","","","","","",""
"","S2","","html-keyboard-response","277","358303","0.0-1.0-382.0","0","0","49894","","null","","","null","42","","NaN","","","","","","","","","","","","","",""
"","response","","html-keyboard-response","278","358675","0.0-1.0-383.0","0","0","49894","","371","","","68","42","","","1","42","training","adjacent","AB","1","2","Q.jpg","R.jpg","1","1","1","",""
"","feedback","","html-keyboard-response","279","359677","0.0-1.0-384.0-0.0","0","0","49894","","null","","","null","42","","","","","","","","","","","","","","","",""
"","ITI","","html-keyboard-response","280","360679","0.0-1.0-387.0","0","0","49894","","null","","","null","42","","","","","","","","","","","","","","","NaN",""
"","S1","","html-keyboard-response","281","360932","0.0-1.0-389.0","0","0","49894","","null","","","null","43","","","","","","","","","","","","","","","",""
"","ISI","","html-keyboard-response","282","362934","0.0-1.0-390.0","0","0","49894","","null","","","null","43","NaN","","","","","","","","","","","","","","",""
"","S2","","html-keyboard-response","283","363187","0.0-1.0-391.0","0","0","49894","","null","","","null","43","","NaN","","","","","","","","","","","","","",""
"","response","","html-keyboard-response","284","363935","0.0-1.0-392.0","0","0","49894","","747","","","75","43","","","1","43","training","adjacent","BA","2","1","R.jpg","Q.jpg","0","0","1","",""
"","feedback","","html-keyboard-response","285","364939","0.0-1.0-393.0-0.0","0","0","49894","","null","","","null","43","","","","","","","","","","","","","","","",""
"","ITI","","html-keyboard-response","286","365941","0.0-1.0-396.0","0","0","49894","","null","","","null","43","","","","","","","","","","","","","","","NaN",""
"","S1","","html-keyboard-response","287","366194","0.0-1.0-398.0","0","0","49894","","null","","","null","44","","","","","","","","","","","","","","","",""
"","ISI","","html-keyboard-response","288","368197","0.0-1.0-399.0","0","0","49894","","null","","","null","44","NaN","","","","","","","","","","","","","","",""
"","S2","","html-keyboard-response","289","368450","0.0-1.0-400.0","0","0","49894","","null","","","null","44","","NaN","","","","","","","","","","","","","",""
"","response","","html-keyboard-response","290","369325","0.0-1.0-401.0","0","0","49894","","874","","","75","44","","","1","44","training","adjacent","ED","5","4","M.jpg","O.jpg","0","0","1","",""
"","feedback","","html-keyboard-response","291","370328","0.0-1.0-402.0-0.0","0","0","49894","","null","","","null","44","","","","","","","","","","","","","","","",""
"","ITI","","html-keyboard-response","292","371329","0.0-1.0-405.0","0","0","49894","","null","","","null","44","","","","","","","","","","","","","","","NaN",""
"","S1","","html-keyboard-response","293","371582","0.0-1.0-407.0","0","0","49894","","null","","","null","45","","","","","","","","","","","","","","","",""
"","ISI","","html-keyboard-response","294","373583","0.0-1.0-408.0","0","0","49894","","null","","","null","45","NaN","","","","","","","","","","","","","","",""
"","S2","","html-keyboard-response","295","373843","0.0-1.0-409.0","0","0","49894","","null","","","null","45","","NaN","","","","","","","","","","","","","",""
"","response","","html-keyboard-response","296","375111","0.0-1.0-410.0","0","0","49894","","1267","","","68","45","","","1","45","training","adjacent","FG","6","7","N.jpg","L.jpg","1","1","1","",""
"","feedback","","html-keyboard-response","297","376113","0.0-1.0-411.0-0.0","0","0","49894","","null","","","null","45","","","","","","","","","","","","","","","",""
"","ITI","","html-keyboard-response","298","377115","0.0-1.0-414.0","0","0","49894","","null","","","null","45","","","","","","","","","","","","","","","NaN",""
"","S1","","html-keyboard-response","299","377367","0.0-1.0-416.0","0","0","49894","","null","","","null","46","","","","","","","","","","","","","","","",""
"","ISI","","html-keyboard-response","300","379369","0.0-1.0-417.0","0","0","49894","","null","","","null","46","NaN","","","","","","","","","","","","","","",""
"","S2","","html-keyboard-response","301","379621","0.0-1.0-418.0","0","0","49894","","null","","","null","46","","NaN","","","","","","","","","","","","","",""
"","response","","html-keyboard-response","302","380212","0.0-1.0-419.0","0","0","49894","","589","","","68","46","","","1","46","training","adjacent","FG","6","7","N.jpg","L.jpg","1","1","1","",""
"","feedback","","html-keyboard-response","303","381214","0.0-1.0-420.0-0.0","0","0","49894","","null","","","null","46","","","","","","","","","","","","","","","",""
"","ITI","","html-keyboard-response","304","382216","0.0-1.0-423.0","0","0","49894","","null","","","null","46","","","","","","","","","","","","","","","NaN",""
"","S1","","html-keyboard-response","305","382468","0.0-1.0-425.0","0","0","49894","","null","","","null","47","","","","","","","","","","","","","","","",""
"","ISI","","html-keyboard-response","306","384470","0.0-1.0-426.0","0","0","49894","","null","","","null","47","NaN","","","","","","","","","","","","","","",""
"","S2","","html-keyboard-response","307","384724","0.0-1.0-427.0","0","0","49894","","null","","","null","47","","NaN","","","","","","","","","","","","","",""
"","response","","html-keyboard-response","308","385248","0.0-1.0-428.0","0","0","49894","","524","","","75","47","","","1","47","training","adjacent","GF","7","6","L.jpg","N.jpg","0","0","1","",""
"","feedback","","html-keyboard-response","309","386250","0.0-1.0-429.0-0.0","0","0","49894","","null","","","null","47","","","","","","","","","","","","","","","",""
"","ITI","","html-keyboard-response","310","387252","0.0-1.0-432.0","0","0","49894","","null","","","null","47","","","","","","","","","","","","","","","NaN",""
"","block_over","","html-keyboard-response","311","397458","0.0-1.0-433.0-0.0","0","0","49894","","10205","","","32","47","","","","","","","","","","","","","","","",""
"","S1","","html-keyboard-response","312","397710","0.0-1.0-434.0","0","0","49894","","null","","","null","48","","","","","","","","","","","","","","","",""
"","ISI","","html-keyboard-response","313","399712","0.0-1.0-435.0","0","0","49894","","null","","","null","48","NaN","","","","","","","","","","","","","","",""
"","S2","","html-keyboard-response","314","399965","0.0-1.0-436.0","0","0","49894","","null","","","null","48","","NaN","","","","","","","","","","","","","",""
"","response","","html-keyboard-response","315","400618","0.0-1.0-437.0","0","0","49894","","652","","","75","48","","","2","48","training","adjacent","DC","4","3","O.jpg","P.jpg","0","0","1","",""
"","feedback","","html-keyboard-response","316","401620","0.0-1.0-438.0-0.0","0","0","49894","","null","","","null","48","","","","","","","","","","","","","","","",""
"","ITI","","html-keyboard-response","317","402622","0.0-1.0-441.0","0","0","49894","","null","","","null","48","","","","","","","","","","","","","","","NaN",""
"","S1","","html-keyboard-response","318","402874","0.0-1.0-443.0","0","0","49894","","null","","","null","49","","","","","","","","","","","","","","","",""
"","ISI","","html-keyboard-response","319","404877","0.0-1.0-444.0","0","0","49894","","null","","","null","49","NaN","","","","","","","","","","","","","","",""
"","S2","","html-keyboard-response","320","405129","0.0-1.0-445.0","0","0","49894","","null","","","null","49","","NaN","","","","","","","","","","","","","",""
"","response","","html-keyboard-response","321","405814","0.0-1.0-446.0","0","0","49894","","684","","","75","49","","","2","49","training","adjacent","ED","5","4","M.jpg","O.jpg","0","0","1","",""
"","feedback","","html-keyboard-response","322","406816","0.0-1.0-447.0-0.0","0","0","49894","","null","","","null","49","","","","","","","","","","","","","","","",""
"","ITI","","html-keyboard-response","323","407818","0.0-1.0-450.0","0","0","49894","","null","","","null","49","","","","","","","","","","","","","","","NaN",""
"","S1","","html-keyboard-response","324","408070","0.0-1.0-452.0","0","0","49894","","null","","","null","50","","","","","","","","","","","","","","","",""
"","ISI","","html-keyboard-response","325","410072","0.0-1.0-453.0","0","0","49894","","null","","","null","50","NaN","","","","","","","","","","","","","","",""
"","S2","","html-keyboard-response","326","410324","0.0-1.0-454.0","0","0","49894","","null","","","null","50","","NaN","","","","","","","","","","","","","",""
"","response","","html-keyboard-response","327","410826","0.0-1.0-455.0","0","0","49894","","502","","","68","50","","","2","50","training","adjacent","FE","6","5","N.jpg","M.jpg","1","0","0","",""
"","feedback","","html-keyboard-response","328","411828","0.0-1.0-456.0-0.0","0","0","49894","","null","","","null","50","","","","","","","","","","","","","","","",""
"","time_out","","html-keyboard-response","329","413831","0.0-1.0-458.0-0.0","0","0","49894","","null","","","null","50","","","","","","","","","","","","","","","",""
"","ITI","","html-keyboard-response","330","414833","0.0-1.0-459.0","0","0","49894","","null","","","null","50","","","","","","","","","","","","","","","NaN",""
"","S1","","html-keyboard-response","331","415085","0.0-1.0-461.0","0","0","49894","","null","","","null","51","","","","","","","","","","","","","","","",""
"","ISI","","html-keyboard-response","332","417087","0.0-1.0-462.0","0","0","49894","","null","","","null","51","NaN","","","","","","","","","","","","","","",""
"","S2","","html-keyboard-response","333","417339","0.0-1.0-463.0","0","0","49894","","null","","","null","51","","NaN","","","","","","","","","","","","","",""
"","response","","html-keyboard-response","334","418283","0.0-1.0-464.0","0","0","49894","","944","","","68","51","","","2","51","training","adjacent","DE","4","5","O.jpg","M.jpg","1","1","1","",""
"","feedback","","html-keyboard-response","335","419286","0.0-1.0-465.0-0.0","0","0","49894","","null","","","null","51","","","","","","","","","","","","","","","",""
"","ITI","","html-keyboard-response","336","420288","0.0-1.0-468.0","0","0","49894","","null","","","null","51","","","","","","","","","","","","","","","NaN",""
"","S1","","html-keyboard-response","337","420541","0.0-1.0-470.0","0","0","49894","","null","","","null","52","","","","","","","","","","","","","","","",""
"","ISI","","html-keyboard-response","338","422544","0.0-1.0-471.0","0","0","49894","","null","","","null","52","NaN","","","","","","","","","","","","","","",""
"","S2","","html-keyboard-response","339","422802","0.0-1.0-472.0","0","0","49894","","null","","","null","52","","NaN","","","","","","","","","","","","","",""
"","response","","html-keyboard-response","340","423272","0.0-1.0-473.0","0","0","49894","","469","","","75","52","","","2","52","training","adjacent","GF","7","6","L.jpg","N.jpg","0","0","1","",""
"","feedback","","html-keyboard-response","341","424275","0.0-1.0-474.0-0.0","0","0","49894","","null","","","null","52","","","","","","","","","","","","","","","",""
"","ITI","","html-keyboard-response","342","425277","0.0-1.0-477.0","0","0","49894","","null","","","null","52","","","","","","","","","","","","","","","NaN",""
"","S1","","html-keyboard-response","343","425529","0.0-1.0-479.0","0","0","49894","","null","","","null","53","","","","","","","","","","","","","","","",""
"","ISI","","html-keyboard-response","344","427531","0.0-1.0-480.0","0","0","49894","","null","","","null","53","NaN","","","","","","","","","","","","","","",""
"","S2","","html-keyboard-response","345","427784","0.0-1.0-481.0","0","0","49894","","null","","","null","53","","NaN","","","","","","","","","","","","","",""
"","response","","html-keyboard-response","346","428429","0.0-1.0-482.0","0","0","49894","","645","","","75","53","","","2","53","training","adjacent","EF","5","6","M.jpg","N.jpg","0","1","0","",""
"","feedback","","html-keyboard-response","347","429432","0.0-1.0-483.0-0.0","0","0","49894","","null","","","null","53","","","","","","","","","","","","","","","",""
"","time_out","","html-keyboard-response","348","431433","0.0-1.0-485.0-0.0","0","0","49894","","null","","","null","53","","","","","","","","","","","","","","","",""
"","ITI","","html-keyboard-response","349","432436","0.0-1.0-486.0","0","0","49894","","null","","","null","53","","","","","","","","","","","","","","","NaN",""
"","S1","","html-keyboard-response","350","432688","0.0-1.0-488.0","0","0","49894","","null","","","null","54","","","","","","","","","","","","","","","",""
"","ISI","","html-keyboard-response","351","434690","0.0-1.0-489.0","0","0","49894","","null","","","null","54","NaN","","","","","","","","","","","","","","",""
"","S2","","html-keyboard-response","352","434942","0.0-1.0-490.0","0","0","49894","","null","","","null","54","","NaN","","","","","","","","","","","","","",""
"","response","","html-keyboard-response","353","435371","0.0-1.0-491.0","0","0","49894","","428","","","68","54","","","2","54","training","adjacent","AB","1","2","Q.jpg","R.jpg","1","1","1","",""
"","feedback","","html-keyboard-response","354","436373","0.0-1.0-492.0-0.0","0","0","49894","","null","","","null","54","","","","","","","","","","","","","","","",""
"","ITI","","html-keyboard-response","355","437377","0.0-1.0-495.0","0","0","49894","","null","","","null","54","","","","","","","","","","","","","","","NaN",""
"","S1","","html-keyboard-response","356","437630","0.0-1.0-497.0","0","0","49894","","null","","","null","55","","","","","","","","","","","","","","","",""
"","ISI","","html-keyboard-response","357","439632","0.0-1.0-498.0","0","0","49894","","null","","","null","55","NaN","","","","","","","","","","","","","","",""
"","S2","","html-keyboard-response","358","439885","0.0-1.0-499.0","0","0","49894","","null","","","null","55","","NaN","","","","","","","","","","","","","",""
"","response","","html-keyboard-response","359","440702","0.0-1.0-500.0","0","0","49894","","817","","","75","55","","","2","55","training","adjacent","DE","4","5","O.jpg","M.jpg","0","1","0","",""
"","feedback","","html-keyboard-response","360","441704","0.0-1.0-501.0-0.0","0","0","49894","","null","","","null","55","","","","","","","","","","","","","","","",""
"","time_out","","html-keyboard-response","361","443707","0.0-1.0-503.0-0.0","0","0","49894","","null","","","null","55","","","","","","","","","","","","","","","",""
"","ITI","","html-keyboard-response","362","444710","0.0-1.0-504.0","0","0","49894","","null","","","null","55","","","","","","","","","","","","","","","NaN",""
"","S1","","html-keyboard-response","363","444962","0.0-1.0-506.0","0","0","49894","","null","","","null","56","","","","","","","","","","","","","","","",""
"","ISI","","html-keyboard-response","364","446963","0.0-1.0-507.0","0","0","49894","","null","","","null","56","NaN","","","","","","","","","","","","","","",""
"","S2","","html-keyboard-response","365","447215","0.0-1.0-508.0","0","0","49894","","null","","","null","56","","NaN","","","","","","","","","","","","","",""
"","response","","html-keyboard-response","366","447852","0.0-1.0-509.0","0","0","49894","","636","","","75","56","","","2","56","training","adjacent","FE","6","5","N.jpg","M.jpg","0","0","1","",""
"","feedback","","html-keyboard-response","367","448854","0.0-1.0-510.0-0.0","0","0","49894","","null","","","null","56","","","","","","","","","","","","","","","",""
"","ITI","","html-keyboard-response","368","449856","0.0-1.0-513.0","0","0","49894","","null","","","null","56","","","","","","","","","","","","","","","NaN",""
"","S1","","html-keyboard-response","369","450109","0.0-1.0-515.0","0","0","49894","","null","","","null","57","","","","","","","","","","","","","","","",""
"","ISI","","html-keyboard-response","370","452111","0.0-1.0-516.0","0","0","49894","","null","","","null","57","NaN","","","","","","","","","","","","","","",""
"","S2","","html-keyboard-response","371","452363","0.0-1.0-517.0","0","0","49894","","null","","","null","57","","NaN","","","","","","","","","","","","","",""
"","response","","html-keyboard-response","372","452973","0.0-1.0-518.0","0","0","49894","","610","","","75","57","","","2","57","training","adjacent","AB","1","2","Q.jpg","R.jpg","0","1","0","",""
"","feedback","","html-keyboard-response","373","453975","0.0-1.0-519.0-0.0","0","0","49894","","null","","","null","57","","","","","","","","","","","","","","","",""
"","time_out","","html-keyboard-response","374","455978","0.0-1.0-521.0-0.0","0","0","49894","","null","","","null","57","","","","","","","","","","","","","","","",""
"","ITI","","html-keyboard-response","375","456980","0.0-1.0-522.0","0","0","49894","","null","","","null","57","","","","","","","","","","","","","","","NaN",""
"","S1","","html-keyboard-response","376","457233","0.0-1.0-524.0","0","0","49894","","null","","","null","58","","","","","","","","","","","","","","","",""
"","ISI","","html-keyboard-response","377","459235","0.0-1.0-525.0","0","0","49894","","null","","","null","58","NaN","","","","","","","","","","","","","","",""
"","S2","","html-keyboard-response","378","459487","0.0-1.0-526.0","0","0","49894","","null","","","null","58","","NaN","","","","","","","","","","","","","",""
"","response","","html-keyboard-response","379","459929","0.0-1.0-527.0","0","0","49894","","442","","","75","58","","","2","58","training","adjacent","BA","2","1","R.jpg","Q.jpg","0","0","1","",""
"","feedback","","html-keyboard-response","380","460931","0.0-1.0-528.0-0.0","0","0","49894","","null","","","null","58","","","","","","","","","","","","","","","",""
"","ITI","","html-keyboard-response","381","461934","0.0-1.0-531.0","0","0","49894","","null","","","null","58","","","","","","","","","","","","","","","NaN",""
"","S1","","html-keyboard-response","382","462191","0.0-1.0-533.0","0","0","49894","","null","","","null","59","","","","","","","","","","","","","","","",""
"","ISI","","html-keyboard-response","383","464193","0.0-1.0-534.0","0","0","49894","","null","","","null","59","NaN","","","","","","","","","","","","","","",""
"","S2","","html-keyboard-response","384","464454","0.0-1.0-535.0","0","0","49894","","null","","","null","59","","NaN","","","","","","","","","","","","","",""
"","response","","html-keyboard-response","385","464974","0.0-1.0-536.0","0","0","49894","","519","","","68","59","","","2","59","training","adjacent","DE","4","5","O.jpg","M.jpg","1","1","1","",""
"","feedback","","html-keyboard-response","386","465976","0.0-1.0-537.0-0.0","0","0","49894","","null","","","null","59","","","","","","","","","","","","","","","",""
"","ITI","","html-keyboard-response","387","466979","0.0-1.0-540.0","0","0","49894","","null","","","null","59","","","","","","","","","","","","","","","NaN",""
"","S1","","html-keyboard-response","388","467230","0.0-1.0-542.0","0","0","49894","","null","","","null","60","","","","","","","","","","","","","","","",""
"","ISI","","html-keyboard-response","389","469232","0.0-1.0-543.0","0","0","49894","","null","","","null","60","NaN","","","","","","","","","","","","","","",""
"","S2","","html-keyboard-response","390","469484","0.0-1.0-544.0","0","0","49894","","null","","","null","60","","NaN","","","","","","","","","","","","","",""
"","response","","html-keyboard-response","391","470410","0.0-1.0-545.0","0","0","49894","","925","","","75","60","","","2","60","training","adjacent","BC","2","3","R.jpg","P.jpg","0","1","0","",""
"","feedback","","html-keyboard-response","392","471411","0.0-1.0-546.0-0.0","0","0","49894","","null","","","null","60","","","","","","","","","","","","","","","",""
"","time_out","","html-keyboard-response","393","473414","0.0-1.0-548.0-0.0","0","0","49894","","null","","","null","60","","","","","","","","","","","","","","","",""
"","ITI","","html-keyboard-response","394","474416","0.0-1.0-549.0","0","0","49894","","null","","","null","60","","","","","","","","","","","","","","","NaN",""
"","S1","","html-keyboard-response","395","474668","0.0-1.0-551.0","0","0","49894","","null","","","null","61","","","","","","","","","","","","","","","",""
"","ISI","","html-keyboard-response","396","476670","0.0-1.0-552.0","0","0","49894","","null","","","null","61","NaN","","","","","","","","","","","","","","",""
"","S2","","html-keyboard-response","397","476922","0.0-1.0-553.0","0","0","49894","","null","","","null","61","","NaN","","","","","","","","","","","","","",""
"","response","","html-keyboard-response","398","477529","0.0-1.0-554.0","0","0","49894","","606","","","75","61","","","2","61","training","adjacent","AB","1","2","Q.jpg","R.jpg","0","1","0","",""
"","feedback","","html-keyboard-response","399","478531","0.0-1.0-555.0-0.0","0","0","49894","","null","","","null","61","","","","","","","","","","","","","","","",""
"","time_out","","html-keyboard-response","400","480532","0.0-1.0-557.0-0.0","0","0","49894","","null","","","null","61","","","","","","","","","","","","","","","",""
"","ITI","","html-keyboard-response","401","481534","0.0-1.0-558.0","0","0","49894","","null","","","null","61","","","","","","","","","","","","","","","NaN",""
"","S1","","html-keyboard-response","402","481787","0.0-1.0-560.0","0","0","49894","","null","","","null","62","","","","","","","","","","","","","","","",""
"","ISI","","html-keyboard-response","403","483789","0.0-1.0-561.0","0","0","49894","","null","","","null","62","NaN","","","","","","","","","","","","","","",""
"","S2","","html-keyboard-response","404","484041","0.0-1.0-562.0","0","0","49894","","null","","","null","62","","NaN","","","","","","","","","","","","","",""
"","response","","html-keyboard-response","405","484814","0.0-1.0-563.0","0","0","49894","","773","","","75","62","","","2","62","training","adjacent","BC","2","3","R.jpg","P.jpg","0","1","0","",""
"","feedback","","html-keyboard-response","406","485817","0.0-1.0-564.0-0.0","0","0","49894","","null","","","null","62","","","","","","","","","","","","","","","",""
"","time_out","","html-keyboard-response","407","487819","0.0-1.0-566.0-0.0","0","0","49894","","null","","","null","62","","","","","","","","","","","","","","","",""
"","ITI","","html-keyboard-response","408","488821","0.0-1.0-567.0","0","0","49894","","null","","","null","62","","","","","","","","","","","","","","","NaN",""
"","S1","","html-keyboard-response","409","489073","0.0-1.0-569.0","0","0","49894","","null","","","null","63","","","","","","","","","","","","","","","",""
"","ISI","","html-keyboard-response","410","491075","0.0-1.0-570.0","0","0","49894","","null","","","null","63","NaN","","","","","","","","","","","","","","",""
"","S2","","html-keyboard-response","411","491327","0.0-1.0-571.0","0","0","49894","","null","","","null","63","","NaN","","","","","","","","","","","","","",""
"","response","","html-keyboard-response","412","491856","0.0-1.0-572.0","0","0","49894","","527","","","75","63","","","2","63","training","adjacent","ED","5","4","M.jpg","O.jpg","0","0","1","",""
"","feedback","","html-keyboard-response","413","492858","0.0-1.0-573.0-0.0","0","0","49894","","null","","","null","63","","","","","","","","","","","","","","","",""
"","ITI","","html-keyboard-response","414","493860","0.0-1.0-576.0","0","0","49894","","null","","","null","63","","","","","","","","","","","","","","","NaN",""
"","S1","","html-keyboard-response","415","494113","0.0-1.0-578.0","0","0","49894","","null","","","null","64","","","","","","","","","","","","","","","",""
"","ISI","","html-keyboard-response","416","496116","0.0-1.0-579.0","0","0","49894","","null","","","null","64","NaN","","","","","","","","","","","","","","",""
"","S2","","html-keyboard-response","417","496368","0.0-1.0-580.0","0","0","49894","","null","","","null","64","","NaN","","","","","","","","","","","","","",""
"","response","","html-keyboard-response","418","496773","0.0-1.0-581.0","0","0","49894","","404","","","68","64","","","2","64","training","adjacent","BA","2","1","R.jpg","Q.jpg","1","0","0","",""
"","feedback","","html-keyboard-response","419","497775","0.0-1.0-582.0-0.0","0","0","49894","","null","","","null","64","","","","","","","","","","","","","","","",""
"","time_out","","html-keyboard-response","420","499776","0.0-1.0-584.0-0.0","0","0","49894","","null","","","null","64","","","","","","","","","","","","","","","",""
"","ITI","","html-keyboard-response","421","500778","0.0-1.0-585.0","0","0","49894","","null","","","null","64","","","","","","","","","","","","","","","NaN",""
"","S1","","html-keyboard-response","422","501030","0.0-1.0-587.0","0","0","49894","","null","","","null","65","","","","","","","","","","","","","","","",""
"","ISI","","html-keyboard-response","423","503032","0.0-1.0-588.0","0","0","49894","","null","","","null","65","NaN","","","","","","","","","","","","","","",""
"","S2","","html-keyboard-response","424","503285","0.0-1.0-589.0","0","0","49894","","null","","","null","65","","NaN","","","","","","","","","","","","","",""
"","response","","html-keyboard-response","425","503816","0.0-1.0-590.0","0","0","49894","","530","","","68","65","","","2","65","training","adjacent","CD","3","4","P.jpg","O.jpg","1","1","1","",""
"","feedback","","html-keyboard-response","426","504818","0.0-1.0-591.0-0.0","0","0","49894","","null","","","null","65","","","","","","","","","","","","","","","",""
"","ITI","","html-keyboard-response","427","505820","0.0-1.0-594.0","0","0","49894","","null","","","null","65","","","","","","","","","","","","","","","NaN",""
"","S1","","html-keyboard-response","428","506073","0.0-1.0-596.0","0","0","49894","","null","","","null","66","","","","","","","","","","","","","","","",""
"","ISI","","html-keyboard-response","429","508076","0.0-1.0-597.0","0","0","49894","","null","","","null","66","NaN","","","","","","","","","","","","","","",""
"","S2","","html-keyboard-response","430","508328","0.0-1.0-598.0","0","0","49894","","null","","","null","66","","NaN","","","","","","","","","","","","","",""
"","response","","html-keyboard-response","431","508680","0.0-1.0-599.0","0","0","49894","","351","","","75","66","","","2","66","training","adjacent","BA","2","1","R.jpg","Q.jpg","0","0","1","",""
"","feedback","","html-keyboard-response","432","509682","0.0-1.0-600.0-0.0","0","0","49894","","null","","","null","66","","","","","","","","","","","","","","","",""
"","ITI","","html-keyboard-response","433","510685","0.0-1.0-603.0","0","0","49894","","null","","","null","66","","","","","","","","","","","","","","","NaN",""
"","S1","","html-keyboard-response","434","510938","0.0-1.0-605.0","0","0","49894","","null","","","null","67","","","","","","","","","","","","","","","",""
"","ISI","","html-keyboard-response","435","512940","0.0-1.0-606.0","0","0","49894","","null","","","null","67","NaN","","","","","","","","","","","","","","",""
"","S2","","html-keyboard-response","436","513192","0.0-1.0-607.0","0","0","49894","","null","","","null","67","","NaN","","","","","","","","","","","","","",""
"","response","","html-keyboard-response","437","513875","0.0-1.0-608.0","0","0","49894","","682","","","75","67","","","2","67","training","adjacent","DC","4","3","O.jpg","P.jpg","0","0","1","",""
"","feedback","","html-keyboard-response","438","514877","0.0-1.0-609.0-0.0","0","0","49894","","null","","","null","67","","","","","","","","","","","","","","","",""
"","ITI","","html-keyboard-response","439","515879","0.0-1.0-612.0","0","0","49894","","null","","","null","67","","","","","","","","","","","","","","","NaN",""
"","S1","","html-keyboard-response","440","516131","0.0-1.0-614.0","0","0","49894","","null","","","null","68","","","","","","","","","","","","","","","",""
"","ISI","","html-keyboard-response","441","518133","0.0-1.0-615.0","0","0","49894","","null","","","null","68","NaN","","","","","","","","","","","","","","",""
"","S2","","html-keyboard-response","442","518390","0.0-1.0-616.0","0","0","49894","","null","","","null","68","","NaN","","","","","","","","","","","","","",""
"","response","","html-keyboard-response","443","519102","0.0-1.0-617.0","0","0","49894","","711","","","68","68","","","2","68","training","adjacent","EF","5","6","M.jpg","N.jpg","1","1","1","",""
"","feedback","","html-keyboard-response","444","520104","0.0-1.0-618.0-0.0","0","0","49894","","null","","","null","68","","","","","","","","","","","","","","","",""
"","ITI","","html-keyboard-response","445","521106","0.0-1.0-621.0","0","0","49894","","null","","","null","68","","","","","","","","","","","","","","","NaN",""
"","S1","","html-keyboard-response","446","521359","0.0-1.0-623.0","0","0","49894","","null","","","null","69","","","","","","","","","","","","","","","",""
"","ISI","","html-keyboard-response","447","523361","0.0-1.0-624.0","0","0","49894","","null","","","null","69","NaN","","","","","","","","","","","","","","",""
"","S2","","html-keyboard-response","448","523613","0.0-1.0-625.0","0","0","49894","","null","","","null","69","","NaN","","","","","","","","","","","","","",""
"","response","","html-keyboard-response","449","524186","0.0-1.0-626.0","0","0","49894","","572","","","75","69","","","2","69","training","adjacent","DC","4","3","O.jpg","P.jpg","0","0","1","",""
"","feedback","","html-keyboard-response","450","525188","0.0-1.0-627.0-0.0","0","0","49894","","null","","","null","69","","","","","","","","","","","","","","","",""
"","ITI","","html-keyboard-response","451","526190","0.0-1.0-630.0","0","0","49894","","null","","","null","69","","","","","","","","","","","","","","","NaN",""
"","S1","","html-keyboard-response","452","526442","0.0-1.0-632.0","0","0","49894","","null","","","null","70","","","","","","","","","","","","","","","",""
"","ISI","","html-keyboard-response","453","528444","0.0-1.0-633.0","0","0","49894","","null","","","null","70","NaN","","","","","","","","","","","","","","",""
"","S2","","html-keyboard-response","454","528699","0.0-1.0-634.0","0","0","49894","","null","","","null","70","","NaN","","","","","","","","","","","","","",""
"","response","","html-keyboard-response","455","529372","0.0-1.0-635.0","0","0","49894","","673","","","68","70","","","2","70","training","adjacent","EF","5","6","M.jpg","N.jpg","1","1","1","",""
"","feedback","","html-keyboard-response","456","530374","0.0-1.0-636.0-0.0","0","0","49894","","null","","","null","70","","","","","","","","","","","","","","","",""
"","ITI","","html-keyboard-response","457","531377","0.0-1.0-639.0","0","0","49894","","null","","","null","70","","","","","","","","","","","","","","","NaN",""
"","S1","","html-keyboard-response","458","531630","0.0-1.0-641.0","0","0","49894","","null","","","null","71","","","","","","","","","","","","","","","",""
"","ISI","","html-keyboard-response","459","533631","0.0-1.0-642.0","0","0","49894","","null","","","null","71","NaN","","","","","","","","","","","","","","",""
"","S2","","html-keyboard-response","460","533883","0.0-1.0-643.0","0","0","49894","","null","","","null","71","","NaN","","","","","","","","","","","","","",""
"","response","","html-keyboard-response","461","534835","0.0-1.0-644.0","0","0","49894","","950","","","68","71","","","2","71","training","adjacent","FG","6","7","N.jpg","L.jpg","1","1","1","",""
"","feedback","","html-keyboard-response","462","535837","0.0-1.0-645.0-0.0","0","0","49894","","null","","","null","71","","","","","","","","","","","","","","","",""
"","ITI","","html-keyboard-response","463","536851","0.0-1.0-648.0","0","0","49894","","null","","","null","71","","","","","","","","","","","","","","","NaN",""
"","S1","","html-keyboard-response","464","537104","0.0-1.0-650.0","0","0","49894","","null","","","null","72","","","","","","","","","","","","","","","",""
"","ISI","","html-keyboard-response","465","539106","0.0-1.0-651.0","0","0","49894","","null","","","null","72","NaN","","","","","","","","","","","","","","",""
"","S2","","html-keyboard-response","466","539358","0.0-1.0-652.0","0","0","49894","","null","","","null","72","","NaN","","","","","","","","","","","","","",""
"","response","","html-keyboard-response","467","539693","0.0-1.0-653.0","0","0","49894","","334","","","75","72","","","2","72","training","adjacent","GF","7","6","L.jpg","N.jpg","0","0","1","",""
"","feedback","","html-keyboard-response","468","540696","0.0-1.0-654.0-0.0","0","0","49894","","null","","","null","72","","","","","","","","","","","","","","","",""
"","ITI","","html-keyboard-response","469","541698","0.0-1.0-657.0","0","0","49894","","null","","","null","72","","","","","","","","","","","","","","","NaN",""
"","S1","","html-keyboard-response","470","541950","0.0-1.0-659.0","0","0","49894","","null","","","null","73","","","","","","","","","","","","","","","",""
"","ISI","","html-keyboard-response","471","543951","0.0-1.0-660.0","0","0","49894","","null","","","null","73","NaN","","","","","","","","","","","","","","",""
"","S2","","html-keyboard-response","472","544204","0.0-1.0-661.0","0","0","49894","","null","","","null","73","","NaN","","","","","","","","","","","","","",""
"","response","","html-keyboard-response","473","544670","0.0-1.0-662.0","0","0","49894","","465","","","68","73","","","2","73","training","adjacent","AB","1","2","Q.jpg","R.jpg","1","1","1","",""
"","feedback","","html-keyboard-response","474","545673","0.0-1.0-663.0-0.0","0","0","49894","","null","","","null","73","","","","","","","","","","","","","","","",""
"","ITI","","html-keyboard-response","475","546675","0.0-1.0-666.0","0","0","49894","","null","","","null","73","","","","","","","","","","","","","","","NaN",""
"","S1","","html-keyboard-response","476","546927","0.0-1.0-668.0","0","0","49894","","null","","","null","74","","","","","","","","","","","","","","","",""
"","ISI","","html-keyboard-response","477","548930","0.0-1.0-669.0","0","0","49894","","null","","","null","74","NaN","","","","","","","","","","","","","","",""
"","S2","","html-keyboard-response","478","549182","0.0-1.0-670.0","0","0","49894","","null","","","null","74","","NaN","","","","","","","","","","","","","",""
"","response","","html-keyboard-response","479","549624","0.0-1.0-671.0","0","0","49894","","440","","","75","74","","","2","74","training","adjacent","DC","4","3","O.jpg","P.jpg","0","0","1","",""
"","feedback","","html-keyboard-response","480","550630","0.0-1.0-672.0-0.0","0","0","49894","","null","","","null","74","","","","","","","","","","","","","","","",""
"","ITI","","html-keyboard-response","481","551632","0.0-1.0-675.0","0","0","49894","","null","","","null","74","","","","","","","","","","","","","","","NaN",""
"","S1","","html-keyboard-response","482","551884","0.0-1.0-677.0","0","0","49894","","null","","","null","75","","","","","","","","","","","","","","","",""
"","ISI","","html-keyboard-response","483","553886","0.0-1.0-678.0","0","0","49894","","null","","","null","75","NaN","","","","","","","","","","","","","","",""
"","S2","","html-keyboard-response","484","554138","0.0-1.0-679.0","0","0","49894","","null","","","null","75","","NaN","","","","","","","","","","","","","",""
"","response","","html-keyboard-response","485","555118","0.0-1.0-680.0","0","0","49894","","980","","","68","75","","","2","75","training","adjacent","FG","6","7","N.jpg","L.jpg","1","1","1","",""
"","feedback","","html-keyboard-response","486","556120","0.0-1.0-681.0-0.0","0","0","49894","","null","","","null","75","","","","","","","","","","","","","","","",""
"","ITI","","html-keyboard-response","487","557122","0.0-1.0-684.0","0","0","49894","","null","","","null","75","","","","","","","","","","","","","","","NaN",""
"","S1","","html-keyboard-response","488","557376","0.0-1.0-686.0","0","0","49894","","null","","","null","76","","","","","","","","","","","","","","","",""
"","ISI","","html-keyboard-response","489","559377","0.0-1.0-687.0","0","0","49894","","null","","","null","76","NaN","","","","","","","","","","","","","","",""
"","S2","","html-keyboard-response","490","559629","0.0-1.0-688.0","0","0","49894","","null","","","null","76","","NaN","","","","","","","","","","","","","",""
"","response","","html-keyboard-response","491","560550","0.0-1.0-689.0","0","0","49894","","920","","","68","76","","","2","76","training","adjacent","CD","3","4","P.jpg","O.jpg","1","1","1","",""
"","feedback","","html-keyboard-response","492","561552","0.0-1.0-690.0-0.0","0","0","49894","","null","","","null","76","","","","","","","","","","","","","","","",""
"","ITI","","html-keyboard-response","493","562555","0.0-1.0-693.0","0","0","49894","","null","","","null","76","","","","","","","","","","","","","","","NaN",""
"","S1","","html-keyboard-response","494","562807","0.0-1.0-695.0","0","0","49894","","null","","","null","77","","","","","","","","","","","","","","","",""
"","ISI","","html-keyboard-response","495","564809","0.0-1.0-696.0","0","0","49894","","null","","","null","77","NaN","","","","","","","","","","","","","","",""
"","S2","","html-keyboard-response","496","565061","0.0-1.0-697.0","0","0","49894","","null","","","null","77","","NaN","","","","","","","","","","","","","",""
"","response","","html-keyboard-response","497","565847","0.0-1.0-698.0","0","0","49894","","786","","","68","77","","","2","77","training","adjacent","BC","2","3","R.jpg","P.jpg","1","1","1","",""
"","feedback","","html-keyboard-response","498","566849","0.0-1.0-699.0-0.0","0","0","49894","","null","","","null","77","","","","","","","","","","","","","","","",""
"","ITI","","html-keyboard-response","499","567859","0.0-1.0-702.0","0","0","49894","","null","","","null","77","","","","","","","","","","","","","","","NaN",""
"","S1","","html-keyboard-response","500","568111","0.0-1.0-704.0","0","0","49894","","null","","","null","78","","","","","","","","","","","","","","","",""
"","ISI","","html-keyboard-response","501","570113","0.0-1.0-705.0","0","0","49894","","null","","","null","78","NaN","","","","","","","","","","","","","","",""
"","S2","","html-keyboard-response","502","570366","0.0-1.0-706.0","0","0","49894","","null","","","null","78","","NaN","","","","","","","","","","","","","",""
"","response","","html-keyboard-response","503","571743","0.0-1.0-707.0","0","0","49894","","1377","","","75","78","","","2","78","training","adjacent","CB","3","2","P.jpg","R.jpg","0","0","1","",""
"","feedback","","html-keyboard-response","504","572746","0.0-1.0-708.0-0.0","0","0","49894","","null","","","null","78","","","","","","","","","","","","","","","",""
"","ITI","","html-keyboard-response","505","573748","0.0-1.0-711.0","0","0","49894","","null","","","null","78","","","","","","","","","","","","","","","NaN",""
"","S1","","html-keyboard-response","506","573999","0.0-1.0-713.0","0","0","49894","","null","","","null","79","","","","","","","","","","","","","","","",""
"","ISI","","html-keyboard-response","507","576001","0.0-1.0-714.0","0","0","49894","","null","","","null","79","NaN","","","","","","","","","","","","","","",""
"","S2","","html-keyboard-response","508","576254","0.0-1.0-715.0","0","0","49894","","null","","","null","79","","NaN","","","","","","","","","","","","","",""
"","response","","html-keyboard-response","509","577061","0.0-1.0-716.0","0","0","49894","","806","","","68","79","","","2","79","training","adjacent","CD","3","4","P.jpg","O.jpg","1","1","1","",""
"","feedback","","html-keyboard-response","510","578063","0.0-1.0-717.0-0.0","0","0","49894","","null","","","null","79","","","","","","","","","","","","","","","",""
"","ITI","","html-keyboard-response","511","579065","0.0-1.0-720.0","0","0","49894","","null","","","null","79","","","","","","","","","","","","","","","NaN",""
"","S1","","html-keyboard-response","512","579318","0.0-1.0-722.0","0","0","49894","","null","","","null","80","","","","","","","","","","","","","","","",""
"","ISI","","html-keyboard-response","513","581319","0.0-1.0-723.0","0","0","49894","","null","","","null","80","NaN","","","","","","","","","","","","","","",""
"","S2","","html-keyboard-response","514","581577","0.0-1.0-724.0","0","0","49894","","null","","","null","80","","NaN","","","","","","","","","","","","","",""
"","response","","html-keyboard-response","515","582051","0.0-1.0-725.0","0","0","49894","","472","","","75","80","","","2","80","training","adjacent","CB","3","2","P.jpg","R.jpg","0","0","1","",""
"","feedback","","html-keyboard-response","516","583054","0.0-1.0-726.0-0.0","0","0","49894","","null","","","null","80","","","","","","","","","","","","","","","",""
"","ITI","","html-keyboard-response","517","584056","0.0-1.0-729.0","0","0","49894","","null","","","null","80","","","","","","","","","","","","","","","NaN",""
"","S1","","html-keyboard-response","518","584308","0.0-1.0-731.0","0","0","49894","","null","","","null","81","","","","","","","","","","","","","","","",""
"","ISI","","html-keyboard-response","519","586309","0.0-1.0-732.0","0","0","49894","","null","","","null","81","NaN","","","","","","","","","","","","","","",""
"","S2","","html-keyboard-response","520","586562","0.0-1.0-733.0","0","0","49894","","null","","","null","81","","NaN","","","","","","","","","","","","","",""
"","response","","html-keyboard-response","521","587202","0.0-1.0-734.0","0","0","49894","","639","","","75","81","","","2","81","training","adjacent","ED","5","4","M.jpg","O.jpg","0","0","1","",""
"","feedback","","html-keyboard-response","522","588205","0.0-1.0-735.0-0.0","0","0","49894","","null","","","null","81","","","","","","","","","","","","","","","",""
"","ITI","","html-keyboard-response","523","589207","0.0-1.0-738.0","0","0","49894","","null","","","null","81","","","","","","","","","","","","","","","NaN",""
"","S1","","html-keyboard-response","524","589459","0.0-1.0-740.0","0","0","49894","","null","","","null","82","","","","","","","","","","","","","","","",""
"","ISI","","html-keyboard-response","525","591474","0.0-1.0-741.0","0","0","49894","","null","","","null","82","NaN","","","","","","","","","","","","","","",""
"","S2","","html-keyboard-response","526","591726","0.0-1.0-742.0","0","0","49894","","null","","","null","82","","NaN","","","","","","","","","","","","","",""
"","response","","html-keyboard-response","527","592643","0.0-1.0-743.0","0","0","49894","","917","","","75","82","","","2","82","training","adjacent","ED","5","4","M.jpg","O.jpg","0","0","1","",""
"","feedback","","html-keyboard-response","528","593646","0.0-1.0-744.0-0.0","0","0","49894","","null","","","null","82","","","","","","","","","","","","","","","",""
"","ITI","","html-keyboard-response","529","594663","0.0-1.0-747.0","0","0","49894","","null","","","null","82","","","","","","","","","","","","","","","NaN",""
"","S1","","html-keyboard-response","530","594927","0.0-1.0-749.0","0","0","49894","","null","","","null","83","","","","","","","","","","","","","","","",""
"","ISI","","html-keyboard-response","531","596930","0.0-1.0-750.0","0","0","49894","","null","","","null","83","NaN","","","","","","","","","","","","","","",""
"","S2","","html-keyboard-response","532","597182","0.0-1.0-751.0","0","0","49894","","null","","","null","83","","NaN","","","","","","","","","","","","","",""
"","response","","html-keyboard-response","533","597473","0.0-1.0-752.0","0","0","49894","","290","","","75","83","","","2","83","training","adjacent","GF","7","6","L.jpg","N.jpg","0","0","1","",""
"","feedback","","html-keyboard-response","534","598475","0.0-1.0-753.0-0.0","0","0","49894","","null","","","null","83","","","","","","","","","","","","","","","",""
"","ITI","","html-keyboard-response","535","599478","0.0-1.0-756.0","0","0","49894","","null","","","null","83","","","","","","","","","","","","","","","NaN",""
"","S1","","html-keyboard-response","536","599729","0.0-1.0-758.0","0","0","49894","","null","","","null","84","","","","","","","","","","","","","","","",""
"","ISI","","html-keyboard-response","537","601732","0.0-1.0-759.0","0","0","49894","","null","","","null","84","NaN","","","","","","","","","","","","","","",""
"","S2","","html-keyboard-response","538","601984","0.0-1.0-760.0","0","0","49894","","null","","","null","84","","NaN","","","","","","","","","","","","","",""
"","response","","html-keyboard-response","539","602422","0.0-1.0-761.0","0","0","49894","","436","","","68","84","","","2","84","training","adjacent","FG","6","7","N.jpg","L.jpg","1","1","1","",""
"","feedback","","html-keyboard-response","540","603424","0.0-1.0-762.0-0.0","0","0","49894","","null","","","null","84","","","","","","","","","","","","","","","",""
"","ITI","","html-keyboard-response","541","604426","0.0-1.0-765.0","0","0","49894","","null","","","null","84","","","","","","","","","","","","","","","NaN",""
"","S1","","html-keyboard-response","542","604678","0.0-1.0-767.0","0","0","49894","","null","","","null","85","","","","","","","","","","","","","","","",""
"","ISI","","html-keyboard-response","543","606680","0.0-1.0-768.0","0","0","49894","","null","","","null","85","NaN","","","","","","","","","","","","","","",""
"","S2","","html-keyboard-response","544","606932","0.0-1.0-769.0","0","0","49894","","null","","","null","85","","NaN","","","","","","","","","","","","","",""
"","response","","html-keyboard-response","545","607089","0.0-1.0-770.0","0","0","49894","","157","","","75","85","","","2","85","training","adjacent","GF","7","6","L.jpg","N.jpg","0","0","1","",""
"","feedback","","html-keyboard-response","546","608092","0.0-1.0-771.0-0.0","0","0","49894","","null","","","null","85","","","","","","","","","","","","","","","",""
"","ITI","","html-keyboard-response","547","609094","0.0-1.0-774.0","0","0","49894","","null","","","null","85","","","","","","","","","","","","","","","NaN",""
"","S1","","html-keyboard-response","548","609347","0.0-1.0-776.0","0","0","49894","","null","","","null","86","","","","","","","","","","","","","","","",""
"","ISI","","html-keyboard-response","549","611349","0.0-1.0-777.0","0","0","49894","","null","","","null","86","NaN","","","","","","","","","","","","","","",""
"","S2","","html-keyboard-response","550","611601","0.0-1.0-778.0","0","0","49894","","null","","","null","86","","NaN","","","","","","","","","","","","","",""
"","response","","html-keyboard-response","551","612064","0.0-1.0-779.0","0","0","49894","","462","","","68","86","","","2","86","training","adjacent","CD","3","4","P.jpg","O.jpg","1","1","1","",""
"","feedback","","html-keyboard-response","552","613066","0.0-1.0-780.0-0.0","0","0","49894","","null","","","null","86","","","","","","","","","","","","","","","",""
"","ITI","","html-keyboard-response","553","614068","0.0-1.0-783.0","0","0","49894","","null","","","null","86","","","","","","","","","","","","","","","NaN",""
"","S1","","html-keyboard-response","554","614320","0.0-1.0-785.0","0","0","49894","","null","","","null","87","","","","","","","","","","","","","","","",""
"","ISI","","html-keyboard-response","555","616322","0.0-1.0-786.0","0","0","49894","","null","","","null","87","NaN","","","","","","","","","","","","","","",""
"","S2","","html-keyboard-response","556","616575","0.0-1.0-787.0","0","0","49894","","null","","","null","87","","NaN","","","","","","","","","","","","","",""
"","response","","html-keyboard-response","557","617191","0.0-1.0-788.0","0","0","49894","","615","","","75","87","","","2","87","training","adjacent","BC","2","3","R.jpg","P.jpg","0","1","0","",""
"","feedback","","html-keyboard-response","558","618193","0.0-1.0-789.0-0.0","0","0","49894","","null","","","null","87","","","","","","","","","","","","","","","",""
"","time_out","","html-keyboard-response","559","620195","0.0-1.0-791.0-0.0","0","0","49894","","null","","","null","87","","","","","","","","","","","","","","","",""
"","ITI","","html-keyboard-response","560","621199","0.0-1.0-792.0","0","0","49894","","null","","","null","87","","","","","","","","","","","","","","","NaN",""
"","S1","","html-keyboard-response","561","621450","0.0-1.0-794.0","0","0","49894","","null","","","null","88","","","","","","","","","","","","","","","",""
"","ISI","","html-keyboard-response","562","623452","0.0-1.0-795.0","0","0","49894","","null","","","null","88","NaN","","","","","","","","","","","","","","",""
"","S2","","html-keyboard-response","563","623704","0.0-1.0-796.0","0","0","49894","","null","","","null","88","","NaN","","","","","","","","","","","","","",""
"","response","","html-keyboard-response","564","624999","0.0-1.0-797.0","0","0","49894","","1294","","","75","88","","","2","88","training","adjacent","EF","5","6","M.jpg","N.jpg","0","1","0","",""
"","feedback","","html-keyboard-response","565","626001","0.0-1.0-798.0-0.0","0","0","49894","","null","","","null","88","","","","","","","","","","","","","","","",""
"","time_out","","html-keyboard-response","566","628003","0.0-1.0-800.0-0.0","0","0","49894","","null","","","null","88","","","","","","","","","","","","","","","",""
"","ITI","","html-keyboard-response","567","629006","0.0-1.0-801.0","0","0","49894","","null","","","null","88","","","","","","","","","","","","","","","NaN",""
"","S1","","html-keyboard-response","568","629258","0.0-1.0-803.0","0","0","49894","","null","","","null","89","","","","","","","","","","","","","","","",""
"","ISI","","html-keyboard-response","569","631260","0.0-1.0-804.0","0","0","49894","","null","","","null","89","NaN","","","","","","","","","","","","","","",""
"","S2","","html-keyboard-response","570","631512","0.0-1.0-805.0","0","0","49894","","null","","","null","89","","NaN","","","","","","","","","","","","","",""
"","response","","html-keyboard-response","571","632492","0.0-1.0-806.0","0","0","49894","","979","","","68","89","","","2","89","training","adjacent","FG","6","7","N.jpg","L.jpg","1","1","1","",""
"","feedback","","html-keyboard-response","572","633494","0.0-1.0-807.0-0.0","0","0","49894","","null","","","null","89","","","","","","","","","","","","","","","",""
"","ITI","","html-keyboard-response","573","634497","0.0-1.0-810.0","0","0","49894","","null","","","null","89","","","","","","","","","","","","","","","NaN",""
"","S1","","html-keyboard-response","574","634749","0.0-1.0-812.0","0","0","49894","","null","","","null","90","","","","","","","","","","","","","","","",""
"","ISI","","html-keyboard-response","575","636752","0.0-1.0-813.0","0","0","49894","","null","","","null","90","NaN","","","","","","","","","","","","","","",""
"","S2","","html-keyboard-response","576","637004","0.0-1.0-814.0","0","0","49894","","null","","","null","90","","NaN","","","","","","","","","","","","","",""
"","response","","html-keyboard-response","577","637853","0.0-1.0-815.0","0","0","49894","","848","","","68","90","","","2","90","training","adjacent","FE","6","5","N.jpg","M.jpg","1","0","0","",""
"","feedback","","html-keyboard-response","578","638855","0.0-1.0-816.0-0.0","0","0","49894","","null","","","null","90","","","","","","","","","","","","","","","",""
"","time_out","","html-keyboard-response","579","640863","0.0-1.0-818.0-0.0","0","0","49894","","null","","","null","90","","","","","","","","","","","","","","","",""
"","ITI","","html-keyboard-response","580","641865","0.0-1.0-819.0","0","0","49894","","null","","","null","90","","","","","","","","","","","","","","","NaN",""
"","S1","","html-keyboard-response","581","642117","0.0-1.0-821.0","0","0","49894","","null","","","null","91","","","","","","","","","","","","","","","",""
"","ISI","","html-keyboard-response","582","644119","0.0-1.0-822.0","0","0","49894","","null","","","null","91","NaN","","","","","","","","","","","","","","",""
"","S2","","html-keyboard-response","583","644372","0.0-1.0-823.0","0","0","49894","","null","","","null","91","","NaN","","","","","","","","","","","","","",""
"","response","","html-keyboard-response","584","645180","0.0-1.0-824.0","0","0","49894","","807","","","68","91","","","2","91","training","adjacent","DE","4","5","O.jpg","M.jpg","1","1","1","",""
