"success","ttype","start_time","trial_type","trial_index","time_elapsed","internal_node_id","warning","missed_checkup","PID","view_history","rt","responses","repeat_instructions","key_press","index","keypress_isi","keypress_S2","block","trial_num","phase","group_type","pair_type","S1_stim","S2_stim","S1_img","S2_img","S1_chosen","S1_higher","accuracy","keypress_iti","total_bonus_tally"
"true","full_screen","d04142023hr1244","fullscreen","0","7819","0.0-0.0","0","0","79608","","","","","","","","","","","","","","","","","","","","","",""
"","instructions","","instructions","1","46020","0.0-1.0-0.0-0.0","0","0","79608","[{""page_index"":0,""viewing_time"":10016},{""page_index"":1,""viewing_time"":21026},{""page_index"":2,""viewing_time"":5600},{""page_index"":3,""viewing_time"":1558}]","38200","","","","","","","","","","","","","","","","","","","",""
"","comprehension_check","","survey-multi-choice","2","68992","0.0-1.0-0.0-1.0","0","0","79608","","22968","{""Q0"":""True"",""Q1"":""D"",""Q2"":""Only when the screen 'MAKE A CHOICE' is shown"",""Q3"":""Green mark"",""Q4"":""either D or K""}","1","","","","","","","","","","","","","","","","","",""
"","missed_instruction_checkup","","html-keyboard-response","3","72432","0.0-1.0-0.0-2.0-0.0","0","1","79608","","3437","","","32","","","","","","","","","","","","","","","","",""
"","instructions","","instructions","4","95954","0.0-1.0-0.1-0.1","0","0","79608","[{""page_index"":0,""viewing_time"":6518},{""page_index"":1,""viewing_time"":10230},{""page_index"":2,""viewing_time"":3596},{""page_index"":3,""viewing_time"":3176}]","23520","","","","","","","","","","","","","","","","","","","",""
"","comprehension_check","","survey-multi-choice","5","108924","0.0-1.0-0.1-1.1","0","0","79608","","12967","{""Q0"":""True"",""Q1"":""D"",""Q2"":""Once the second image appears and while the screen 'MAKE A CHOICE' is shown"",""Q3"":""Green mark"",""Q4"":""either D or K""}","0","","","","","","","","","","","","","","","","","",""
"","start_exp","","html-keyboard-response","6","110836","0.0-1.0-1.0","0","0","79608","","1909","","","32","","","","","","","","","","","","","","","","",""
"","S1","","html-keyboard-response","7","111091","0.0-1.0-2.0","0","0","79608","","null","","","null","0","","","","","","","","","","","","","","","",""
"","ISI","","html-keyboard-response","8","112093","0.0-1.0-3.0","0","0","79608","","null","","","null","0","NaN","","","","","","","","","","","","","","",""
"","S2","","html-keyboard-response","9","112346","0.0-1.0-4.0","0","0","79608","","null","","","null","0","","NaN","","","","","","","","","","","","","",""
"","response","","html-keyboard-response","10","114044","0.0-1.0-5.0-0.0","0","0","79608","","1695","","","68","0","","","1","0","training","adjacent","CB","3","2","R.jpg","N.jpg","1","0","0","",""
"","feedback","","html-keyboard-response","11","115046","0.0-1.0-6.0-0.0","0","0","79608","","null","","","null","0","","","","","","","","","","","","","","","",""
"","time_out","","html-keyboard-response","12","117049","0.0-1.0-8.0-0.0","0","0","79608","","null","","","null","0","","","","","","","","","","","","","","","",""
"","ITI","","html-keyboard-response","13","118051","0.0-1.0-9.0","0","0","79608","","null","","","null","0","","","","","","","","","","","","","","","NaN",""
"","S1","","html-keyboard-response","14","118305","0.0-1.0-11.0","0","0","79608","","null","","","null","1","","","","","","","","","","","","","","","",""
"","ISI","","html-keyboard-response","15","119307","0.0-1.0-12.0","0","0","79608","","null","","","null","1","NaN","","","","","","","","","","","","","","",""
"","S2","","html-keyboard-response","16","119560","0.0-1.0-13.0","0","0","79608","","null","","","null","1","","NaN","","","","","","","","","","","","","",""
"","response","","html-keyboard-response","17","120068","0.0-1.0-14.0-0.0","0","0","79608","","506","","","68","1","","","1","1","training","adjacent","FE","6","5","M.jpg","Q.jpg","1","0","0","",""
"","feedback","","html-keyboard-response","18","121072","0.0-1.0-15.0-0.0","0","0","79608","","null","","","null","1","","","","","","","","","","","","","","","",""
"","time_out","","html-keyboard-response","19","123074","0.0-1.0-17.0-0.0","0","0","79608","","null","","","null","1","","","","","","","","","","","","","","","",""
"","ITI","","html-keyboard-response","20","124077","0.0-1.0-18.0","0","0","79608","","null","","","null","1","","","","","","","","","","","","","","","NaN",""
"","S1","","html-keyboard-response","21","124330","0.0-1.0-20.0","0","0","79608","","null","","","null","2","","","","","","","","","","","","","","","",""
"","ISI","","html-keyboard-response","22","125333","0.0-1.0-21.0","0","0","79608","","null","","","null","2","NaN","","","","","","","","","","","","","","",""
"","S2","","html-keyboard-response","23","125585","0.0-1.0-22.0","0","0","79608","","null","","","null","2","","NaN","","","","","","","","","","","","","",""
"","response","","html-keyboard-response","24","126039","0.0-1.0-23.0-0.0","0","0","79608","","452","","","75","2","","","1","2","training","adjacent","CD","3","4","R.jpg","P.jpg","0","1","0","",""
"","feedback","","html-keyboard-response","25","127043","0.0-1.0-24.0-0.0","0","0","79608","","null","","","null","2","","","","","","","","","","","","","","","",""
"","time_out","","html-keyboard-response","26","129045","0.0-1.0-26.0-0.0","0","0","79608","","null","","","null","2","","","","","","","","","","","","","","","",""
"","ITI","","html-keyboard-response","27","130047","0.0-1.0-27.0","0","0","79608","","null","","","null","2","","","","","","","","","","","","","","","NaN",""
"","S1","","html-keyboard-response","28","130301","0.0-1.0-29.0","0","0","79608","","null","","","null","3","","","","","","","","","","","","","","","",""
"","ISI","","html-keyboard-response","29","131304","0.0-1.0-30.0","0","0","79608","","null","","","null","3","NaN","","","","","","","","","","","","","","",""
"","S2","","html-keyboard-response","30","131560","0.0-1.0-31.0","0","0","79608","","null","","","null","3","","NaN","","","","","","","","","","","","","",""
"","response","","html-keyboard-response","31","131890","0.0-1.0-32.0-0.0","0","0","79608","","328","","","68","3","","","1","3","training","adjacent","CB","3","2","R.jpg","N.jpg","1","0","0","",""
"","feedback","","html-keyboard-response","32","132893","0.0-1.0-33.0-0.0","0","0","79608","","null","","","null","3","","","","","","","","","","","","","","","",""
"","time_out","","html-keyboard-response","33","134894","0.0-1.0-35.0-0.0","0","0","79608","","null","","","null","3","","","","","","","","","","","","","","","",""
"","ITI","","html-keyboard-response","34","135897","0.0-1.0-36.0","0","0","79608","","null","","","null","3","","","","","","","","","","","","","","","NaN",""
"","S1","","html-keyboard-response","35","136151","0.0-1.0-38.0","0","0","79608","","null","","","null","4","","","","","","","","","","","","","","","",""
"","ISI","","html-keyboard-response","36","137153","0.0-1.0-39.0","0","0","79608","","null","","","null","4","NaN","","","","","","","","","","","","","","",""
"","S2","","html-keyboard-response","37","137406","0.0-1.0-40.0","0","0","79608","","null","","","null","4","","NaN","","","","","","","","","","","","","",""
"","response","","html-keyboard-response","38","137970","0.0-1.0-41.0-0.0","0","0","79608","","562","","","68","4","","","1","4","training","adjacent","BC","2","3","N.jpg","R.jpg","1","1","1","",""
"","feedback","","html-keyboard-response","39","138972","0.0-1.0-42.0-0.0","0","0","79608","","null","","","null","4","","","","","","","","","","","","","","","",""
"","ITI","","html-keyboard-response","40","139974","0.0-1.0-45.0","0","0","79608","","null","","","null","4","","","","","","","","","","","","","","","NaN",""
"","S1","","html-keyboard-response","41","140227","0.0-1.0-47.0","0","0","79608","","null","","","null","5","","","","","","","","","","","","","","","",""
"","ISI","","html-keyboard-response","42","141229","0.0-1.0-48.0","0","0","79608","","null","","","null","5","NaN","","","","","","","","","","","","","","",""
"","S2","","html-keyboard-response","43","141481","0.0-1.0-49.0","0","0","79608","","null","","","null","5","","NaN","","","","","","","","","","","","","",""
"","response","","html-keyboard-response","44","141889","0.0-1.0-50.0-0.0","0","0","79608","","406","","","68","5","","","1","5","training","adjacent","FG","6","7","M.jpg","L.jpg","1","1","1","",""
"","feedback","","html-keyboard-response","45","142892","0.0-1.0-51.0-0.0","0","0","79608","","null","","","null","5","","","","","","","","","","","","","","","",""
"","ITI","","html-keyboard-response","46","143894","0.0-1.0-54.0","0","0","79608","","null","","","null","5","","","","","","","","","","","","","","","NaN",""
"","S1","","html-keyboard-response","47","144147","0.0-1.0-56.0","0","0","79608","","null","","","null","6","","","","","","","","","","","","","","","",""
"","ISI","","html-keyboard-response","48","145149","0.0-1.0-57.0","0","0","79608","","null","","","null","6","NaN","","","","","","","","","","","","","","",""
"","S2","","html-keyboard-response","49","145401","0.0-1.0-58.0","0","0","79608","","null","","","null","6","","NaN","","","","","","","","","","","","","",""
"","response","","html-keyboard-response","50","145808","0.0-1.0-59.0-0.0","0","0","79608","","405","","","68","6","","","1","6","training","adjacent","FE","6","5","M.jpg","Q.jpg","1","0","0","",""
"","feedback","","html-keyboard-response","51","146810","0.0-1.0-60.0-0.0","0","0","79608","","null","","","null","6","","","","","","","","","","","","","","","",""
"","time_out","","html-keyboard-response","52","148814","0.0-1.0-62.0-0.0","0","0","79608","","null","","","null","6","","","","","","","","","","","","","","","",""
"","ITI","","html-keyboard-response","53","149816","0.0-1.0-63.0","0","0","79608","","null","","","null","6","","","","","","","","","","","","","","","NaN",""
"","S1","","html-keyboard-response","54","150068","0.0-1.0-65.0","0","0","79608","","null","","","null","7","","","","","","","","","","","","","","","",""
"","ISI","","html-keyboard-response","55","151070","0.0-1.0-66.0","0","0","79608","","null","","","null","7","NaN","","","","","","","","","","","","","","",""
"","S2","","html-keyboard-response","56","151324","0.0-1.0-67.0","0","0","79608","","null","","","null","7","","NaN","","","","","","","","","","","","","",""
"","response","","html-keyboard-response","57","151642","0.0-1.0-68.0-0.0","0","0","79608","","317","","","75","7","","","1","7","training","adjacent","ED","5","4","Q.jpg","P.jpg","0","0","1","",""
"","feedback","","html-keyboard-response","58","152644","0.0-1.0-69.0-0.0","0","0","79608","","null","","","null","7","","","","","","","","","","","","","","","",""
"","ITI","","html-keyboard-response","59","153647","0.0-1.0-72.0","0","0","79608","","null","","","null","7","","","","","","","","","","","","","","","NaN",""
"","S1","","html-keyboard-response","60","153900","0.0-1.0-74.0","0","0","79608","","null","","","null","8","","","","","","","","","","","","","","","",""
"","ISI","","html-keyboard-response","61","154902","0.0-1.0-75.0","0","0","79608","","null","","","null","8","NaN","","","","","","","","","","","","","","",""
"","S2","","html-keyboard-response","62","155155","0.0-1.0-76.0","0","0","79608","","null","","","null","8","","NaN","","","","","","","","","","","","","",""
"","response","","html-keyboard-response","63","155533","0.0-1.0-77.0-0.0","0","0","79608","","376","","","68","8","","","1","8","training","adjacent","DE","4","5","P.jpg","Q.jpg","1","1","1","",""
"","feedback","","html-keyboard-response","64","156536","0.0-1.0-78.0-0.0","0","0","79608","","null","","","null","8","","","","","","","","","","","","","","","",""
"","ITI","","html-keyboard-response","65","157538","0.0-1.0-81.0","0","0","79608","","null","","","null","8","","","","","","","","","","","","","","","NaN",""
"","S1","","html-keyboard-response","66","157790","0.0-1.0-83.0","0","0","79608","","null","","","null","9","","","","","","","","","","","","","","","",""
"","ISI","","html-keyboard-response","67","158792","0.0-1.0-84.0","0","0","79608","","null","","","null","9","NaN","","","","","","","","","","","","","","",""
"","S2","","html-keyboard-response","68","159045","0.0-1.0-85.0","0","0","79608","","null","","","null","9","","NaN","","","","","","","","","","","","","",""
"","response","","html-keyboard-response","69","159517","0.0-1.0-86.0-0.0","0","0","79608","","470","","","75","9","","","1","9","training","adjacent","AB","1","2","O.jpg","N.jpg","0","1","0","",""
"","feedback","","html-keyboard-response","70","160519","0.0-1.0-87.0-0.0","0","0","79608","","null","","","null","9","","","","","","","","","","","","","","","",""
"","time_out","","html-keyboard-response","71","162523","0.0-1.0-89.0-0.0","0","0","79608","","null","","","null","9","","","","","","","","","","","","","","","",""
"","ITI","","html-keyboard-response","72","163525","0.0-1.0-90.0","0","0","79608","","null","","","null","9","","","","","","","","","","","","","","","NaN",""
"","S1","","html-keyboard-response","73","163777","0.0-1.0-92.0","0","0","79608","","null","","","null","10","","","","","","","","","","","","","","","",""
"","ISI","","html-keyboard-response","74","164780","0.0-1.0-93.0","0","0","79608","","null","","","null","10","NaN","","","","","","","","","","","","","","",""
"","S2","","html-keyboard-response","75","165033","0.0-1.0-94.0","0","0","79608","","null","","","null","10","","NaN","","","","","","","","","","","","","",""
"","response","","html-keyboard-response","76","165334","0.0-1.0-95.0-0.0","0","0","79608","","299","","","75","10","","","1","10","training","adjacent","BA","2","1","N.jpg","O.jpg","0","0","1","",""
"","feedback","","html-keyboard-response","77","166336","0.0-1.0-96.0-0.0","0","0","79608","","null","","","null","10","","","","","","","","","","","","","","","",""
"","ITI","","html-keyboard-response","78","167338","0.0-1.0-99.0","0","0","79608","","null","","","null","10","","","","","","","","","","","","","","","NaN",""
"","S1","","html-keyboard-response","79","167591","0.0-1.0-101.0","0","0","79608","","null","","","null","11","","","","","","","","","","","","","","","",""
"","ISI","","html-keyboard-response","80","168593","0.0-1.0-102.0","0","0","79608","","null","","","null","11","NaN","","","","","","","","","","","","","","",""
"","S2","","html-keyboard-response","81","168846","0.0-1.0-103.0","0","0","79608","","null","","","null","11","","NaN","","","","","","","","","","","","","",""
"","response","","html-keyboard-response","82","169009","0.0-1.0-104.0-0.0","0","0","79608","","162","","","75","11","","","1","11","training","adjacent","EF","5","6","Q.jpg","M.jpg","0","1","0","",""
"","feedback","","html-keyboard-response","83","170012","0.0-1.0-105.0-0.0","0","0","79608","","null","","","null","11","","","","","","","","","","","","","","","",""
"","time_out","","html-keyboard-response","84","172014","0.0-1.0-107.0-0.0","0","0","79608","","null","","","null","11","","","","","","","","","","","","","","","",""
"","ITI","","html-keyboard-response","85","173016","0.0-1.0-108.0","0","0","79608","","null","","","null","11","","","","","","","","","","","","","","","NaN",""
"","S1","","html-keyboard-response","86","173269","0.0-1.0-110.0","0","0","79608","","null","","","null","12","","","","","","","","","","","","","","","",""
"","ISI","","html-keyboard-response","87","174271","0.0-1.0-111.0","0","0","79608","","null","","","null","12","NaN","","","","","","","","","","","","","","",""
"","S2","","html-keyboard-response","88","174524","0.0-1.0-112.0","0","0","79608","","null","","","null","12","","NaN","","","","","","","","","","","","","",""
"","response","","html-keyboard-response","89","174839","0.0-1.0-113.0-0.0","0","0","79608","","313","","","68","12","","","1","12","training","adjacent","DE","4","5","P.jpg","Q.jpg","1","1","1","",""
"","feedback","","html-keyboard-response","90","175841","0.0-1.0-114.0-0.0","0","0","79608","","null","","","null","12","","","","","","","","","","","","","","","",""
"","ITI","","html-keyboard-response","91","176843","0.0-1.0-117.0","0","0","79608","","null","","","null","12","","","","","","","","","","","","","","","NaN",""
"","S1","","html-keyboard-response","92","177095","0.0-1.0-119.0","0","0","79608","","null","","","null","13","","","","","","","","","","","","","","","",""
"","ISI","","html-keyboard-response","93","178098","0.0-1.0-120.0","0","0","79608","","null","","","null","13","NaN","","","","","","","","","","","","","","",""
"","S2","","html-keyboard-response","94","178351","0.0-1.0-121.0","0","0","79608","","null","","","null","13","","NaN","","","","","","","","","","","","","",""
"","response","","html-keyboard-response","95","179008","0.0-1.0-122.0-0.0","0","0","79608","","656","","","75","13","","","1","13","training","adjacent","FG","6","7","M.jpg","L.jpg","0","1","0","",""
"","feedback","","html-keyboard-response","96","180011","0.0-1.0-123.0-0.0","0","0","79608","","null","","","null","13","","","","","","","","","","","","","","","",""
"","time_out","","html-keyboard-response","97","182014","0.0-1.0-125.0-0.0","0","0","79608","","null","","","null","13","","","","","","","","","","","","","","","",""
"","ITI","","html-keyboard-response","98","183017","0.0-1.0-126.0","0","0","79608","","null","","","null","13","","","","","","","","","","","","","","","NaN",""
"","S1","","html-keyboard-response","99","183270","0.0-1.0-128.0","0","0","79608","","null","","","null","14","","","","","","","","","","","","","","","",""
"","ISI","","html-keyboard-response","100","184272","0.0-1.0-129.0","0","0","79608","","null","","","null","14","NaN","","","","","","","","","","","","","","",""
"","S2","","html-keyboard-response","101","184524","0.0-1.0-130.0","0","0","79608","","null","","","null","14","","NaN","","","","","","","","","","","","","",""
"","response","","html-keyboard-response","102","184763","0.0-1.0-131.0-0.0","0","0","79608","","237","","","75","14","","","1","14","training","adjacent","BC","2","3","N.jpg","R.jpg","0","1","0","",""
"","feedback","","html-keyboard-response","103","185766","0.0-1.0-132.0-0.0","0","0","79608","","null","","","null","14","","","","","","","","","","","","","","","",""
"","time_out","","html-keyboard-response","104","187768","0.0-1.0-134.0-0.0","0","0","79608","","null","","","null","14","","","","","","","","","","","","","","","",""
"","ITI","","html-keyboard-response","105","188771","0.0-1.0-135.0","0","0","79608","","null","","","null","14","","","","","","","","","","","","","","","NaN",""
"","S1","","html-keyboard-response","106","189023","0.0-1.0-137.0","0","0","79608","","null","","","null","15","","","","","","","","","","","","","","","",""
"","ISI","","html-keyboard-response","107","190026","0.0-1.0-138.0","0","0","79608","","null","","","null","15","NaN","","","","","","","","","","","","","","",""
"","S2","","html-keyboard-response","108","190279","0.0-1.0-139.0","0","0","79608","","null","","","null","15","","NaN","","","","","","","","","","","","","",""
"","response","","html-keyboard-response","109","190633","0.0-1.0-140.0-0.0","0","0","79608","","353","","","75","15","","","1","15","training","adjacent","BA","2","1","N.jpg","O.jpg","0","0","1","",""
"","feedback","","html-keyboard-response","110","191636","0.0-1.0-141.0-0.0","0","0","79608","","null","","","null","15","","","","","","","","","","","","","","","",""
"","ITI","","html-keyboard-response","111","192639","0.0-1.0-144.0","0","0","79608","","null","","","null","15","","","","","","","","","","","","","","","NaN",""
"","S1","","html-keyboard-response","112","192896","0.0-1.0-146.0","0","0","79608","","null","","","null","16","","","","","","","","","","","","","","","",""
"","ISI","","html-keyboard-response","113","193898","0.0-1.0-147.0","0","0","79608","","null","","","null","16","NaN","","","","","","","","","","","","","","",""
"","S2","","html-keyboard-response","114","194152","0.0-1.0-148.0","0","0","79608","","null","","","null","16","","NaN","","","","","","","","","","","","","",""
"","response","","html-keyboard-response","115","194603","0.0-1.0-149.0-0.0","0","0","79608","","450","","","68","16","","","1","16","training","adjacent","AB","1","2","O.jpg","N.jpg","1","1","1","",""
"","feedback","","html-keyboard-response","116","195606","0.0-1.0-150.0-0.0","0","0","79608","","null","","","null","16","","","","","","","","","","","","","","","",""
"","ITI","","html-keyboard-response","117","196608","0.0-1.0-153.0","0","0","79608","","null","","","null","16","","","","","","","","","","","","","","","NaN",""
"","S1","","html-keyboard-response","118","196860","0.0-1.0-155.0","0","0","79608","","null","","","null","17","","","","","","","","","","","","","","","",""
"","ISI","","html-keyboard-response","119","197862","0.0-1.0-156.0","0","0","79608","","null","","","null","17","NaN","","","","","","","","","","","","","","",""
"","S2","","html-keyboard-response","120","198115","0.0-1.0-157.0","0","0","79608","","null","","","null","17","","NaN","","","","","","","","","","","","","",""
"","response","","html-keyboard-response","121","198786","0.0-1.0-158.0-0.0","0","0","79608","","669","","","75","17","","","1","17","training","adjacent","BC","2","3","N.jpg","R.jpg","0","1","0","",""
"","feedback","","html-keyboard-response","122","199788","0.0-1.0-159.0-0.0","0","0","79608","","null","","","null","17","","","","","","","","","","","","","","","",""
"","time_out","","html-keyboard-response","123","201791","0.0-1.0-161.0-0.0","0","0","79608","","null","","","null","17","","","","","","","","","","","","","","","",""
"","ITI","","html-keyboard-response","124","202793","0.0-1.0-162.0","0","0","79608","","null","","","null","17","","","","","","","","","","","","","","","NaN",""
"","S1","","html-keyboard-response","125","203046","0.0-1.0-164.0","0","0","79608","","null","","","null","18","","","","","","","","","","","","","","","",""
"","ISI","","html-keyboard-response","126","204048","0.0-1.0-165.0","0","0","79608","","null","","","null","18","NaN","","","","","","","","","","","","","","",""
"","S2","","html-keyboard-response","127","204301","0.0-1.0-166.0","0","0","79608","","null","","","null","18","","NaN","","","","","","","","","","","","","",""
"","response","","html-keyboard-response","128","204931","0.0-1.0-167.0-0.0","0","0","79608","","629","","","68","18","","","1","18","training","adjacent","GF","7","6","L.jpg","M.jpg","1","0","0","",""
"","feedback","","html-keyboard-response","129","205949","0.0-1.0-168.0-0.0","0","0","79608","","null","","","null","18","","","","","","","","","","","","","","","",""
"","time_out","","html-keyboard-response","130","207951","0.0-1.0-170.0-0.0","0","0","79608","","null","","","null","18","","","","","","","","","","","","","","","",""
"","ITI","","html-keyboard-response","131","208954","0.0-1.0-171.0","0","0","79608","","null","","","null","18","","","","","","","","","","","","","","","NaN",""
"","S1","","html-keyboard-response","132","209206","0.0-1.0-173.0","0","0","79608","","null","","","null","19","","","","","","","","","","","","","","","",""
"","ISI","","html-keyboard-response","133","210210","0.0-1.0-174.0","0","0","79608","","null","","","null","19","NaN","","","","","","","","","","","","","","",""
"","S2","","html-keyboard-response","134","210463","0.0-1.0-175.0","0","0","79608","","null","","","null","19","","NaN","","","","","","","","","","","","","",""
"","response","","html-keyboard-response","135","211108","0.0-1.0-176.0-0.0","0","0","79608","","644","","","68","19","","","1","19","training","adjacent","CB","3","2","R.jpg","N.jpg","1","0","0","",""
"","feedback","","html-keyboard-response","136","212111","0.0-1.0-177.0-0.0","0","0","79608","","null","","","null","19","","","","","","","","","","","","","","","",""
"","time_out","","html-keyboard-response","137","214113","0.0-1.0-179.0-0.0","0","0","79608","","null","","","null","19","","","","","","","","","","","","","","","",""
"","ITI","","html-keyboard-response","138","215116","0.0-1.0-180.0","0","0","79608","","null","","","null","19","","","","","","","","","","","","","","","NaN",""
"","S1","","html-keyboard-response","139","215368","0.0-1.0-182.0","0","0","79608","","null","","","null","20","","","","","","","","","","","","","","","",""
"","ISI","","html-keyboard-response","140","216370","0.0-1.0-183.0","0","0","79608","","null","","","null","20","NaN","","","","","","","","","","","","","","",""
"","S2","","html-keyboard-response","141","216623","0.0-1.0-184.0","0","0","79608","","null","","","null","20","","NaN","","","","","","","","","","","","","",""
"","response","","html-keyboard-response","142","217317","0.0-1.0-185.0-0.0","0","0","79608","","692","","","75","20","","","1","20","training","adjacent","FG","6","7","M.jpg","L.jpg","0","1","0","",""
"","feedback","","html-keyboard-response","143","218320","0.0-1.0-186.0-0.0","0","0","79608","","null","","","null","20","","","","","","","","","","","","","","","",""
"","time_out","","html-keyboard-response","144","220322","0.0-1.0-188.0-0.0","0","0","79608","","null","","","null","20","","","","","","","","","","","","","","","",""
"","ITI","","html-keyboard-response","145","221324","0.0-1.0-189.0","0","0","79608","","null","","","null","20","","","","","","","","","","","","","","","NaN",""
"","S1","","html-keyboard-response","146","221577","0.0-1.0-191.0","0","0","79608","","null","","","null","21","","","","","","","","","","","","","","","",""
"","ISI","","html-keyboard-response","147","222580","0.0-1.0-192.0","0","0","79608","","null","","","null","21","NaN","","","","","","","","","","","","","","",""
"","S2","","html-keyboard-response","148","222834","0.0-1.0-193.0","0","0","79608","","null","","","null","21","","NaN","","","","","","","","","","","","","",""
"","response","","html-keyboard-response","149","223779","0.0-1.0-194.0-0.0","0","0","79608","","943","","","68","21","","","1","21","training","adjacent","DC","4","3","P.jpg","R.jpg","1","0","0","",""
"","feedback","","html-keyboard-response","150","224781","0.0-1.0-195.0-0.0","0","0","79608","","null","","","null","21","","","","","","","","","","","","","","","",""
"","time_out","","html-keyboard-response","151","226783","0.0-1.0-197.0-0.0","0","0","79608","","null","","","null","21","","","","","","","","","","","","","","","",""
"","ITI","","html-keyboard-response","152","227786","0.0-1.0-198.0","0","0","79608","","null","","","null","21","","","","","","","","","","","","","","","NaN",""
"","S1","","html-keyboard-response","153","228039","0.0-1.0-200.0","0","0","79608","","null","","","null","22","","","","","","","","","","","","","","","",""
"","ISI","","html-keyboard-response","154","229041","0.0-1.0-201.0","0","0","79608","","null","","","null","22","NaN","","","","","","","","","","","","","","",""
"","S2","","html-keyboard-response","155","229294","0.0-1.0-202.0","0","0","79608","","null","","","null","22","","NaN","","","","","","","","","","","","","",""
"","response","","html-keyboard-response","156","230046","0.0-1.0-203.0-0.0","0","0","79608","","751","","","75","22","","","1","22","training","adjacent","CB","3","2","R.jpg","N.jpg","0","0","1","",""
"","feedback","","html-keyboard-response","157","231048","0.0-1.0-204.0-0.0","0","0","79608","","null","","","null","22","","","","","","","","","","","","","","","",""
"","ITI","","html-keyboard-response","158","232051","0.0-1.0-207.0","0","0","79608","","null","","","null","22","","","","","","","","","","","","","","","NaN",""
"","S1","","html-keyboard-response","159","232304","0.0-1.0-209.0","0","0","79608","","null","","","null","23","","","","","","","","","","","","","","","",""
"","ISI","","html-keyboard-response","160","233306","0.0-1.0-210.0","0","0","79608","","null","","","null","23","NaN","","","","","","","","","","","","","","",""
"","S2","","html-keyboard-response","161","233559","0.0-1.0-211.0","0","0","79608","","null","","","null","23","","NaN","","","","","","","","","","","","","",""
"","response","","html-keyboard-response","162","234014","0.0-1.0-212.0-0.0","0","0","79608","","453","","","75","23","","","1","23","training","adjacent","BA","2","1","N.jpg","O.jpg","0","0","1","",""
"","feedback","","html-keyboard-response","163","235016","0.0-1.0-213.0-0.0","0","0","79608","","null","","","null","23","","","","","","","","","","","","","","","",""
"","ITI","","html-keyboard-response","164","236018","0.0-1.0-216.0","0","0","79608","","null","","","null","23","","","","","","","","","","","","","","","NaN",""
"","S1","","html-keyboard-response","165","236271","0.0-1.0-218.0","0","0","79608","","null","","","null","24","","","","","","","","","","","","","","","",""
"","ISI","","html-keyboard-response","166","237273","0.0-1.0-219.0","0","0","79608","","null","","","null","24","NaN","","","","","","","","","","","","","","",""
"","S2","","html-keyboard-response","167","237526","0.0-1.0-220.0","0","0","79608","","null","","","null","24","","NaN","","","","","","","","","","","","","",""
"","response","","html-keyboard-response","168","238038","0.0-1.0-221.0-0.0","0","0","79608","","510","","","68","24","","","1","24","training","adjacent","AB","1","2","O.jpg","N.jpg","1","1","1","",""
"","feedback","","html-keyboard-response","169","239040","0.0-1.0-222.0-0.0","0","0","79608","","null","","","null","24","","","","","","","","","","","","","","","",""
"","ITI","","html-keyboard-response","170","240043","0.0-1.0-225.0","0","0","79608","","null","","","null","24","","","","","","","","","","","","","","","NaN",""
"","S1","","html-keyboard-response","171","240297","0.0-1.0-227.0","0","0","79608","","null","","","null","25","","","","","","","","","","","","","","","",""
"","ISI","","html-keyboard-response","172","241300","0.0-1.0-228.0","0","0","79608","","null","","","null","25","NaN","","","","","","","","","","","","","","",""
"","S2","","html-keyboard-response","173","241553","0.0-1.0-229.0","0","0","79608","","null","","","null","25","","NaN","","","","","","","","","","","","","",""
"","response","","html-keyboard-response","174","242249","0.0-1.0-230.0-0.0","0","0","79608","","695","","","75","25","","","1","25","training","adjacent","CD","3","4","R.jpg","P.jpg","0","1","0","",""
"","feedback","","html-keyboard-response","175","243252","0.0-1.0-231.0-0.0","0","0","79608","","null","","","null","25","","","","","","","","","","","","","","","",""
"","time_out","","html-keyboard-response","176","245254","0.0-1.0-233.0-0.0","0","0","79608","","null","","","null","25","","","","","","","","","","","","","","","",""
"","ITI","","html-keyboard-response","177","246257","0.0-1.0-234.0","0","0","79608","","null","","","null","25","","","","","","","","","","","","","","","NaN",""
"","S1","","html-keyboard-response","178","246509","0.0-1.0-236.0","0","0","79608","","null","","","null","26","","","","","","","","","","","","","","","",""
"","ISI","","html-keyboard-response","179","247511","0.0-1.0-237.0","0","0","79608","","null","","","null","26","NaN","","","","","","","","","","","","","","",""
"","S2","","html-keyboard-response","180","247764","0.0-1.0-238.0","0","0","79608","","null","","","null","26","","NaN","","","","","","","","","","","","","",""
"","response","","html-keyboard-response","181","248134","0.0-1.0-239.0-0.0","0","0","79608","","368","","","68","26","","","1","26","training","adjacent","FE","6","5","M.jpg","Q.jpg","1","0","0","",""
"","feedback","","html-keyboard-response","182","249137","0.0-1.0-240.0-0.0","0","0","79608","","null","","","null","26","","","","","","","","","","","","","","","",""
"","time_out","","html-keyboard-response","183","251140","0.0-1.0-242.0-0.0","0","0","79608","","null","","","null","26","","","","","","","","","","","","","","","",""
"","ITI","","html-keyboard-response","184","252143","0.0-1.0-243.0","0","0","79608","","null","","","null","26","","","","","","","","","","","","","","","NaN",""
"","S1","","html-keyboard-response","185","252395","0.0-1.0-245.0","0","0","79608","","null","","","null","27","","","","","","","","","","","","","","","",""
"","ISI","","html-keyboard-response","186","253398","0.0-1.0-246.0","0","0","79608","","null","","","null","27","NaN","","","","","","","","","","","","","","",""
"","S2","","html-keyboard-response","187","253651","0.0-1.0-247.0","0","0","79608","","null","","","null","27","","NaN","","","","","","","","","","","","","",""
"","response","","html-keyboard-response","188","253973","0.0-1.0-248.0-0.0","0","0","79608","","321","","","75","27","","","1","27","training","adjacent","BA","2","1","N.jpg","O.jpg","0","0","1","",""
"","feedback","","html-keyboard-response","189","254976","0.0-1.0-249.0-0.0","0","0","79608","","null","","","null","27","","","","","","","","","","","","","","","",""
"","ITI","","html-keyboard-response","190","255980","0.0-1.0-252.0","0","0","79608","","null","","","null","27","","","","","","","","","","","","","","","NaN",""
"","S1","","html-keyboard-response","191","256233","0.0-1.0-254.0","0","0","79608","","null","","","null","28","","","","","","","","","","","","","","","",""
"","ISI","","html-keyboard-response","192","257234","0.0-1.0-255.0","0","0","79608","","null","","","null","28","NaN","","","","","","","","","","","","","","",""
"","S2","","html-keyboard-response","193","257486","0.0-1.0-256.0","0","0","79608","","null","","","null","28","","NaN","","","","","","","","","","","","","",""
"","response","","html-keyboard-response","194","258125","0.0-1.0-257.0-0.0","0","0","79608","","637","","","68","28","","","1","28","training","adjacent","DE","4","5","P.jpg","Q.jpg","1","1","1","",""
"","feedback","","html-keyboard-response","195","259127","0.0-1.0-258.0-0.0","0","0","79608","","null","","","null","28","","","","","","","","","","","","","","","",""
"","ITI","","html-keyboard-response","196","260131","0.0-1.0-261.0","0","0","79608","","null","","","null","28","","","","","","","","","","","","","","","NaN",""
"","S1","","html-keyboard-response","197","260383","0.0-1.0-263.0","0","0","79608","","null","","","null","29","","","","","","","","","","","","","","","",""
"","ISI","","html-keyboard-response","198","261385","0.0-1.0-264.0","0","0","79608","","null","","","null","29","NaN","","","","","","","","","","","","","","",""
"","S2","","html-keyboard-response","199","261638","0.0-1.0-265.0","0","0","79608","","null","","","null","29","","NaN","","","","","","","","","","","","","",""
"","response","","html-keyboard-response","200","262113","0.0-1.0-266.0-0.0","0","0","79608","","474","","","68","29","","","1","29","training","adjacent","GF","7","6","L.jpg","M.jpg","1","0","0","",""
"","feedback","","html-keyboard-response","201","263116","0.0-1.0-267.0-0.0","0","0","79608","","null","","","null","29","","","","","","","","","","","","","","","",""
"","time_out","","html-keyboard-response","202","265118","0.0-1.0-269.0-0.0","0","0","79608","","null","","","null","29","","","","","","","","","","","","","","","",""
"","ITI","","html-keyboard-response","203","266122","0.0-1.0-270.0","0","0","79608","","null","","","null","29","","","","","","","","","","","","","","","NaN",""
"","S1","","html-keyboard-response","204","266375","0.0-1.0-272.0","0","0","79608","","null","","","null","30","","","","","","","","","","","","","","","",""
"","ISI","","html-keyboard-response","205","267377","0.0-1.0-273.0","0","0","79608","","null","","","null","30","NaN","","","","","","","","","","","","","","",""
"","S2","","html-keyboard-response","206","267630","0.0-1.0-274.0","0","0","79608","","null","","","null","30","","NaN","","","","","","","","","","","","","",""
"","response","","html-keyboard-response","207","268095","0.0-1.0-275.0-0.0","0","0","79608","","462","","","68","30","","","1","30","training","adjacent","FE","6","5","M.jpg","Q.jpg","1","0","0","",""
"","feedback","","html-keyboard-response","208","269097","0.0-1.0-276.0-0.0","0","0","79608","","null","","","null","30","","","","","","","","","","","","","","","",""
"","time_out","","html-keyboard-response","209","271100","0.0-1.0-278.0-0.0","0","0","79608","","null","","","null","30","","","","","","","","","","","","","","","",""
"","ITI","","html-keyboard-response","210","272103","0.0-1.0-279.0","0","0","79608","","null","","","null","30","","","","","","","","","","","","","","","NaN",""
"","S1","","html-keyboard-response","211","272356","0.0-1.0-281.0","0","0","79608","","null","","","null","31","","","","","","","","","","","","","","","",""
"","ISI","","html-keyboard-response","212","273359","0.0-1.0-282.0","0","0","79608","","null","","","null","31","NaN","","","","","","","","","","","","","","",""
"","S2","","html-keyboard-response","213","273612","0.0-1.0-283.0","0","0","79608","","null","","","null","31","","NaN","","","","","","","","","","","","","",""
"","response","","html-keyboard-response","214","274053","0.0-1.0-284.0-0.0","0","0","79608","","439","","","75","31","","","1","31","training","adjacent","ED","5","4","Q.jpg","P.jpg","0","0","1","",""
"","feedback","","html-keyboard-response","215","275056","0.0-1.0-285.0-0.0","0","0","79608","","null","","","null","31","","","","","","","","","","","","","","","",""
"","ITI","","html-keyboard-response","216","276059","0.0-1.0-288.0","0","0","79608","","null","","","null","31","","","","","","","","","","","","","","","NaN",""
"","S1","","html-keyboard-response","217","276312","0.0-1.0-290.0","0","0","79608","","null","","","null","32","","","","","","","","","","","","","","","",""
"","ISI","","html-keyboard-response","218","277314","0.0-1.0-291.0","0","0","79608","","null","","","null","32","NaN","","","","","","","","","","","","","","",""
"","S2","","html-keyboard-response","219","277567","0.0-1.0-292.0","0","0","79608","","null","","","null","32","","NaN","","","","","","","","","","","","","",""
"","response","","html-keyboard-response","220","277931","0.0-1.0-293.0-0.0","0","0","79608","","362","","","75","32","","","1","32","training","adjacent","ED","5","4","Q.jpg","P.jpg","0","0","1","",""
"","feedback","","html-keyboard-response","221","278934","0.0-1.0-294.0-0.0","0","0","79608","","null","","","null","32","","","","","","","","","","","","","","","",""
"","ITI","","html-keyboard-response","222","279937","0.0-1.0-297.0","0","0","79608","","null","","","null","32","","","","","","","","","","","","","","","NaN",""
"","S1","","html-keyboard-response","223","280190","0.0-1.0-299.0","0","0","79608","","null","","","null","33","","","","","","","","","","","","","","","",""
"","ISI","","html-keyboard-response","224","281193","0.0-1.0-300.0","0","0","79608","","null","","","null","33","NaN","","","","","","","","","","","","","","",""
"","S2","","html-keyboard-response","225","281445","0.0-1.0-301.0","0","0","79608","","null","","","null","33","","NaN","","","","","","","","","","","","","",""
"","response","","html-keyboard-response","226","281770","0.0-1.0-302.0-0.0","0","0","79608","","323","","","75","33","","","1","33","training","adjacent","GF","7","6","L.jpg","M.jpg","0","0","1","",""
"","feedback","","html-keyboard-response","227","282772","0.0-1.0-303.0-0.0","0","0","79608","","null","","","null","33","","","","","","","","","","","","","","","",""
"","ITI","","html-keyboard-response","228","283775","0.0-1.0-306.0","0","0","79608","","null","","","null","33","","","","","","","","","","","","","","","NaN",""
"","S1","","html-keyboard-response","229","284028","0.0-1.0-308.0","0","0","79608","","null","","","null","34","","","","","","","","","","","","","","","",""
"","ISI","","html-keyboard-response","230","285030","0.0-1.0-309.0","0","0","79608","","null","","","null","34","NaN","","","","","","","","","","","","","","",""
"","S2","","html-keyboard-response","231","285283","0.0-1.0-310.0","0","0","79608","","null","","","null","34","","NaN","","","","","","","","","","","","","",""
"","response","","html-keyboard-response","232","285563","0.0-1.0-311.0-0.0","0","0","79608","","278","","","75","34","","","1","34","training","adjacent","ED","5","4","Q.jpg","P.jpg","0","0","1","",""
"","feedback","","html-keyboard-response","233","286565","0.0-1.0-312.0-0.0","0","0","79608","","null","","","null","34","","","","","","","","","","","","","","","",""
"","ITI","","html-keyboard-response","234","287568","0.0-1.0-315.0","0","0","79608","","null","","","null","34","","","","","","","","","","","","","","","NaN",""
"","S1","","html-keyboard-response","235","287820","0.0-1.0-317.0","0","0","79608","","null","","","null","35","","","","","","","","","","","","","","","",""
"","ISI","","html-keyboard-response","236","288822","0.0-1.0-318.0","0","0","79608","","null","","","null","35","NaN","","","","","","","","","","","","","","",""
"","S2","","html-keyboard-response","237","289076","0.0-1.0-319.0","0","0","79608","","null","","","null","35","","NaN","","","","","","","","","","","","","",""
"","response","","html-keyboard-response","238","289664","0.0-1.0-320.0-0.0","0","0","79608","","586","","","75","35","","","1","35","training","adjacent","DC","4","3","P.jpg","R.jpg","0","0","1","",""
"","feedback","","html-keyboard-response","239","290667","0.0-1.0-321.0-0.0","0","0","79608","","null","","","null","35","","","","","","","","","","","","","","","",""
"","ITI","","html-keyboard-response","240","291670","0.0-1.0-324.0","0","0","79608","","null","","","null","35","","","","","","","","","","","","","","","NaN",""
"","S1","","html-keyboard-response","241","291924","0.0-1.0-326.0","0","0","79608","","null","","","null","36","","","","","","","","","","","","","","","",""
"","ISI","","html-keyboard-response","242","292926","0.0-1.0-327.0","0","0","79608","","null","","","null","36","NaN","","","","","","","","","","","","","","",""
"","S2","","html-keyboard-response","243","293179","0.0-1.0-328.0","0","0","79608","","null","","","null","36","","NaN","","","","","","","","","","","","","",""
"","response","","html-keyboard-response","244","293748","0.0-1.0-329.0-0.0","0","0","79608","","567","","","75","36","","","1","36","training","adjacent","BC","2","3","N.jpg","R.jpg","0","1","0","",""
"","feedback","","html-keyboard-response","245","294751","0.0-1.0-330.0-0.0","0","0","79608","","null","","","null","36","","","","","","","","","","","","","","","",""
"","time_out","","html-keyboard-response","246","296754","0.0-1.0-332.0-0.0","0","0","79608","","null","","","null","36","","","","","","","","","","","","","","","",""
"","ITI","","html-keyboard-response","247","297756","0.0-1.0-333.0","0","0","79608","","null","","","null","36","","","","","","","","","","","","","","","NaN",""
"","S1","","html-keyboard-response","248","298009","0.0-1.0-335.0","0","0","79608","","null","","","null","37","","","","","","","","","","","","","","","",""
"","ISI","","html-keyboard-response","249","299011","0.0-1.0-336.0","0","0","79608","","null","","","null","37","NaN","","","","","","","","","","","","","","",""
"","S2","","html-keyboard-response","250","299264","0.0-1.0-337.0","0","0","79608","","null","","","null","37","","NaN","","","","","","","","","","","","","",""
"","response","","html-keyboard-response","251","299850","0.0-1.0-338.0-0.0","0","0","79608","","585","","","75","37","","","1","37","training","adjacent","DC","4","3","P.jpg","R.jpg","0","0","1","",""
"","feedback","","html-keyboard-response","252","300854","0.0-1.0-339.0-0.0","0","0","79608","","null","","","null","37","","","","","","","","","","","","","","","",""
"","ITI","","html-keyboard-response","253","301857","0.0-1.0-342.0","0","0","79608","","null","","","null","37","","","","","","","","","","","","","","","NaN",""
"","S1","","html-keyboard-response","254","302110","0.0-1.0-344.0","0","0","79608","","null","","","null","38","","","","","","","","","","","","","","","",""
"","ISI","","html-keyboard-response","255","303112","0.0-1.0-345.0","0","0","79608","","null","","","null","38","NaN","","","","","","","","","","","","","","",""
"","S2","","html-keyboard-response","256","303365","0.0-1.0-346.0","0","0","79608","","null","","","null","38","","NaN","","","","","","","","","","","","","",""
"","response","","html-keyboard-response","257","303704","0.0-1.0-347.0-0.0","0","0","79608","","337","","","75","38","","","1","38","training","adjacent","FG","6","7","M.jpg","L.jpg","0","1","0","",""
"","feedback","","html-keyboard-response","258","304708","0.0-1.0-348.0-0.0","0","0","79608","","null","","","null","38","","","","","","","","","","","","","","","",""
"","time_out","","html-keyboard-response","259","306710","0.0-1.0-350.0-0.0","0","0","79608","","null","","","null","38","","","","","","","","","","","","","","","",""
"","ITI","","html-keyboard-response","260","307714","0.0-1.0-351.0","0","0","79608","","null","","","null","38","","","","","","","","","","","","","","","NaN",""
"","S1","","html-keyboard-response","261","307966","0.0-1.0-353.0","0","0","79608","","null","","","null","39","","","","","","","","","","","","","","","",""
"","ISI","","html-keyboard-response","262","308968","0.0-1.0-354.0","0","0","79608","","null","","","null","39","NaN","","","","","","","","","","","","","","",""
"","S2","","html-keyboard-response","263","309221","0.0-1.0-355.0","0","0","79608","","null","","","null","39","","NaN","","","","","","","","","","","","","",""
"","response","","html-keyboard-response","264","309517","0.0-1.0-356.0-0.0","0","0","79608","","294","","","75","39","","","1","39","training","adjacent","EF","5","6","Q.jpg","M.jpg","0","1","0","",""
"","feedback","","html-keyboard-response","265","310521","0.0-1.0-357.0-0.0","0","0","79608","","null","","","null","39","","","","","","","","","","","","","","","",""
"","time_out","","html-keyboard-response","266","312523","0.0-1.0-359.0-0.0","0","0","79608","","null","","","null","39","","","","","","","","","","","","","","","",""
"","ITI","","html-keyboard-response","267","313525","0.0-1.0-360.0","0","0","79608","","null","","","null","39","","","","","","","","","","","","","","","NaN",""
"","S1","","html-keyboard-response","268","313778","0.0-1.0-362.0","0","0","79608","","null","","","null","40","","","","","","","","","","","","","","","",""
"","ISI","","html-keyboard-response","269","314780","0.0-1.0-363.0","0","0","79608","","null","","","null","40","NaN","","","","","","","","","","","","","","",""
"","S2","","html-keyboard-response","270","315033","0.0-1.0-364.0","0","0","79608","","null","","","null","40","","NaN","","","","","","","","","","","","","",""
"","response","","html-keyboard-response","271","315825","0.0-1.0-365.0-0.0","0","0","79608","","790","","","75","40","","","1","40","training","adjacent","EF","5","6","Q.jpg","M.jpg","0","1","0","",""
"","feedback","","html-keyboard-response","272","316829","0.0-1.0-366.0-0.0","0","0","79608","","null","","","null","40","","","","","","","","","","","","","","","",""
"","time_out","","html-keyboard-response","273","318831","0.0-1.0-368.0-0.0","0","0","79608","","null","","","null","40","","","","","","","","","","","","","","","",""
"","ITI","","html-keyboard-response","274","319835","0.0-1.0-369.0","0","0","79608","","null","","","null","40","","","","","","","","","","","","","","","NaN",""
"","S1","","html-keyboard-response","275","320088","0.0-1.0-371.0","0","0","79608","","null","","","null","41","","","","","","","","","","","","","","","",""
"","ISI","","html-keyboard-response","276","321091","0.0-1.0-372.0","0","0","79608","","null","","","null","41","NaN","","","","","","","","","","","","","","",""
"","S2","","html-keyboard-response","277","321343","0.0-1.0-373.0","0","0","79608","","null","","","null","41","","NaN","","","","","","","","","","","","","",""
"","response","","html-keyboard-response","278","321906","0.0-1.0-374.0-0.0","0","0","79608","","560","","","68","41","","","1","41","training","adjacent","CD","3","4","R.jpg","P.jpg","1","1","1","",""
"","feedback","","html-keyboard-response","279","322908","0.0-1.0-375.0-0.0","0","0","79608","","null","","","null","41","","","","","","","","","","","","","","","",""
"","ITI","","html-keyboard-response","280","323912","0.0-1.0-378.0","0","0","79608","","null","","","null","41","","","","","","","","","","","","","","","NaN",""
"","S1","","html-keyboard-response","281","324164","0.0-1.0-380.0","0","0","79608","","null","","","null","42","","","","","","","","","","","","","","","",""
"","ISI","","html-keyboard-response","282","325167","0.0-1.0-381.0","0","0","79608","","null","","","null","42","NaN","","","","","","","","","","","","","","",""
"","S2","","html-keyboard-response","283","325419","0.0-1.0-382.0","0","0","79608","","null","","","null","42","","NaN","","","","","","","","","","","","","",""
"","response","","html-keyboard-response","284","325720","0.0-1.0-383.0-0.0","0","0","79608","","299","","","68","42","","","1","42","training","adjacent","EF","5","6","Q.jpg","M.jpg","1","1","1","",""
"","feedback","","html-keyboard-response","285","326723","0.0-1.0-384.0-0.0","0","0","79608","","null","","","null","42","","","","","","","","","","","","","","","",""
"","ITI","","html-keyboard-response","286","327726","0.0-1.0-387.0","0","0","79608","","null","","","null","42","","","","","","","","","","","","","","","NaN",""
"","S1","","html-keyboard-response","287","327978","0.0-1.0-389.0","0","0","79608","","null","","","null","43","","","","","","","","","","","","","","","",""
"","ISI","","html-keyboard-response","288","328980","0.0-1.0-390.0","0","0","79608","","null","","","null","43","NaN","","","","","","","","","","","","","","",""
"","S2","","html-keyboard-response","289","329233","0.0-1.0-391.0","0","0","79608","","null","","","null","43","","NaN","","","","","","","","","","","","","",""
"","response","","html-keyboard-response","290","329748","0.0-1.0-392.0-0.0","0","0","79608","","514","","","75","43","","","1","43","training","adjacent","DC","4","3","P.jpg","R.jpg","0","0","1","",""
"","feedback","","html-keyboard-response","291","330761","0.0-1.0-393.0-0.0","0","0","79608","","null","","","null","43","","","","","","","","","","","","","","","",""
"","ITI","","html-keyboard-response","292","331764","0.0-1.0-396.0","0","0","79608","","null","","","null","43","","","","","","","","","","","","","","","NaN",""
"","S1","","html-keyboard-response","293","332016","0.0-1.0-398.0","0","0","79608","","null","","","null","44","","","","","","","","","","","","","","","",""
"","ISI","","html-keyboard-response","294","333019","0.0-1.0-399.0","0","0","79608","","null","","","null","44","NaN","","","","","","","","","","","","","","",""
"","S2","","html-keyboard-response","295","333273","0.0-1.0-400.0","0","0","79608","","null","","","null","44","","NaN","","","","","","","","","","","","","",""
"","response","","html-keyboard-response","296","334056","0.0-1.0-401.0-0.0","0","0","79608","","781","","","68","44","","","1","44","training","adjacent","DE","4","5","P.jpg","Q.jpg","1","1","1","",""
"","feedback","","html-keyboard-response","297","335060","0.0-1.0-402.0-0.0","0","0","79608","","null","","","null","44","","","","","","","","","","","","","","","",""
"","ITI","","html-keyboard-response","298","336062","0.0-1.0-405.0","0","0","79608","","null","","","null","44","","","","","","","","","","","","","","","NaN",""
"","S1","","html-keyboard-response","299","336315","0.0-1.0-407.0","0","0","79608","","null","","","null","45","","","","","","","","","","","","","","","",""
"","ISI","","html-keyboard-response","300","337318","0.0-1.0-408.0","0","0","79608","","null","","","null","45","NaN","","","","","","","","","","","","","","",""
"","S2","","html-keyboard-response","301","337570","0.0-1.0-409.0","0","0","79608","","null","","","null","45","","NaN","","","","","","","","","","","","","",""
"","response","","html-keyboard-response","302","338211","0.0-1.0-410.0-0.0","0","0","79608","","639","","","68","45","","","1","45","training","adjacent","AB","1","2","O.jpg","N.jpg","1","1","1","",""
"","feedback","","html-keyboard-response","303","339214","0.0-1.0-411.0-0.0","0","0","79608","","null","","","null","45","","","","","","","","","","","","","","","",""
"","ITI","","html-keyboard-response","304","340217","0.0-1.0-414.0","0","0","79608","","null","","","null","45","","","","","","","","","","","","","","","NaN",""
"","S1","","html-keyboard-response","305","340471","0.0-1.0-416.0","0","0","79608","","null","","","null","46","","","","","","","","","","","","","","","",""
"","ISI","","html-keyboard-response","306","341473","0.0-1.0-417.0","0","0","79608","","null","","","null","46","NaN","","","","","","","","","","","","","","",""
"","S2","","html-keyboard-response","307","341734","0.0-1.0-418.0","0","0","79608","","null","","","null","46","","NaN","","","","","","","","","","","","","",""
"","response","","html-keyboard-response","308","342163","0.0-1.0-419.0-0.0","0","0","79608","","427","","","75","46","","","1","46","training","adjacent","GF","7","6","L.jpg","M.jpg","0","0","1","",""
"","feedback","","html-keyboard-response","309","343166","0.0-1.0-420.0-0.0","0","0","79608","","null","","","null","46","","","","","","","","","","","","","","","",""
"","ITI","","html-keyboard-response","310","344168","0.0-1.0-423.0","0","0","79608","","null","","","null","46","","","","","","","","","","","","","","","NaN",""
"","S1","","html-keyboard-response","311","344421","0.0-1.0-425.0","0","0","79608","","null","","","null","47","","","","","","","","","","","","","","","",""
"","ISI","","html-keyboard-response","312","345424","0.0-1.0-426.0","0","0","79608","","null","","","null","47","NaN","","","","","","","","","","","","","","",""
"","S2","","html-keyboard-response","313","345676","0.0-1.0-427.0","0","0","79608","","null","","","null","47","","NaN","","","","","","","","","","","","","",""
"","response","","html-keyboard-response","314","346241","0.0-1.0-428.0-0.0","0","0","79608","","565","","","75","47","","","1","47","training","adjacent","CD","3","4","R.jpg","P.jpg","0","1","0","",""
"","feedback","","html-keyboard-response","315","347244","0.0-1.0-429.0-0.0","0","0","79608","","null","","","null","47","","","","","","","","","","","","","","","",""
"","time_out","","html-keyboard-response","316","349247","0.0-1.0-431.0-0.0","0","0","79608","","null","","","null","47","","","","","","","","","","","","","","","",""
"","ITI","","html-keyboard-response","317","350249","0.0-1.0-432.0","0","0","79608","","null","","","null","47","","","","","","","","","","","","","","","NaN",""
"","block_over","","html-keyboard-response","318","355889","0.0-1.0-433.0-0.0","0","0","79608","","5637","","","32","47","","","","","","","","","","","","","","","",""
"","S1","","html-keyboard-response","319","356141","0.0-1.0-434.0","0","0","79608","","null","","","null","48","","","","","","","","","","","","","","","",""
"","ISI","","html-keyboard-response","320","357144","0.0-1.0-435.0","0","0","79608","","null","","","null","48","NaN","","","","","","","","","","","","","","",""
"","S2","","html-keyboard-response","321","357397","0.0-1.0-436.0","0","0","79608","","null","","","null","48","","NaN","","","","","","","","","","","","","",""
"","response","","html-keyboard-response","322","357857","0.0-1.0-437.0-0.0","0","0","79608","","459","","","68","48","","","2","48","training","adjacent","FG","6","7","M.jpg","L.jpg","1","1","1","",""
"","feedback","","html-keyboard-response","323","358861","0.0-1.0-438.0-0.0","0","0","79608","","null","","","null","48","","","","","","","","","","","","","","","",""
"","ITI","","html-keyboard-response","324","359864","0.0-1.0-441.0","0","0","79608","","null","","","null","48","","","","","","","","","","","","","","","NaN",""
"","S1","","html-keyboard-response","325","360116","0.0-1.0-443.0","0","0","79608","","null","","","null","49","","","","","","","","","","","","","","","",""
"","ISI","","html-keyboard-response","326","361119","0.0-1.0-444.0","0","0","79608","","null","","","null","49","NaN","","","","","","","","","","","","","","",""
"","S2","","html-keyboard-response","327","361372","0.0-1.0-445.0","0","0","79608","","null","","","null","49","","NaN","","","","","","","","","","","","","",""
"","response","","html-keyboard-response","328","361747","0.0-1.0-446.0-0.0","0","0","79608","","373","","","68","49","","","2","49","training","adjacent","FG","6","7","M.jpg","L.jpg","1","1","1","",""
"","feedback","","html-keyboard-response","329","362751","0.0-1.0-447.0-0.0","0","0","79608","","null","","","null","49","","","","","","","","","","","","","","","",""
"","ITI","","html-keyboard-response","330","363753","0.0-1.0-450.0","0","0","79608","","null","","","null","49","","","","","","","","","","","","","","","NaN",""
"","S1","","html-keyboard-response","331","364005","0.0-1.0-452.0","0","0","79608","","null","","","null","50","","","","","","","","","","","","","","","",""
"","ISI","","html-keyboard-response","332","365008","0.0-1.0-453.0","0","0","79608","","null","","","null","50","NaN","","","","","","","","","","","","","","",""
"","S2","","html-keyboard-response","333","365261","0.0-1.0-454.0","0","0","79608","","null","","","null","50","","NaN","","","","","","","","","","","","","",""
"","response","","html-keyboard-response","334","365577","0.0-1.0-455.0-0.0","0","0","79608","","315","","","68","50","","","2","50","training","adjacent","EF","5","6","Q.jpg","M.jpg","1","1","1","",""
"","feedback","","html-keyboard-response","335","366582","0.0-1.0-456.0-0.0","0","0","79608","","null","","","null","50","","","","","","","","","","","","","","","",""
"","ITI","","html-keyboard-response","336","367589","0.0-1.0-459.0","0","0","79608","","null","","","null","50","","","","","","","","","","","","","","","NaN",""
"","S1","","html-keyboard-response","337","367842","0.0-1.0-461.0","0","0","79608","","null","","","null","51","","","","","","","","","","","","","","","",""
"","ISI","","html-keyboard-response","338","368852","0.0-1.0-462.0","0","0","79608","","null","","","null","51","NaN","","","","","","","","","","","","","","",""
"","S2","","html-keyboard-response","339","369105","0.0-1.0-463.0","0","0","79608","","null","","","null","51","","NaN","","","","","","","","","","","","","",""
"","response","","html-keyboard-response","340","369648","0.0-1.0-464.0-0.0","0","0","79608","","541","","","68","51","","","2","51","training","adjacent","DE","4","5","P.jpg","Q.jpg","1","1","1","",""
"","feedback","","html-keyboard-response","341","370651","0.0-1.0-465.0-0.0","0","0","79608","","null","","","null","51","","","","","","","","","","","","","","","",""
"","ITI","","html-keyboard-response","342","371655","0.0-1.0-468.0","0","0","79608","","null","","","null","51","","","","","","","","","","","","","","","NaN",""
"","S1","","html-keyboard-response","343","371907","0.0-1.0-470.0","0","0","79608","","null","","","null","52","","","","","","","","","","","","","","","",""
"","ISI","","html-keyboard-response","344","372909","0.0-1.0-471.0","0","0","79608","","null","","","null","52","NaN","","","","","","","","","","","","","","",""
"","S2","","html-keyboard-response","345","373162","0.0-1.0-472.0","0","0","79608","","null","","","null","52","","NaN","","","","","","","","","","","","","",""
"","response","","html-keyboard-response","346","373647","0.0-1.0-473.0-0.0","0","0","79608","","483","","","75","52","","","2","52","training","adjacent","DC","4","3","P.jpg","R.jpg","0","0","1","",""
"","feedback","","html-keyboard-response","347","374651","0.0-1.0-474.0-0.0","0","0","79608","","null","","","null","52","","","","","","","","","","","","","","","",""
"","ITI","","html-keyboard-response","348","375654","0.0-1.0-477.0","0","0","79608","","null","","","null","52","","","","","","","","","","","","","","","NaN",""
"","S1","","html-keyboard-response","349","375907","0.0-1.0-479.0","0","0","79608","","null","","","null","53","","","","","","","","","","","","","","","",""
"","ISI","","html-keyboard-response","350","376911","0.0-1.0-480.0","0","0","79608","","null","","","null","53","NaN","","","","","","","","","","","","","","",""
"","S2","","html-keyboard-response","351","377163","0.0-1.0-481.0","0","0","79608","","null","","","null","53","","NaN","","","","","","","","","","","","","",""
"","response","","html-keyboard-response","352","377956","0.0-1.0-482.0-0.0","0","0","79608","","791","","","75","53","","","2","53","training","adjacent","ED","5","4","Q.jpg","P.jpg","0","0","1","",""
"","feedback","","html-keyboard-response","353","378959","0.0-1.0-483.0-0.0","0","0","79608","","null","","","null","53","","","","","","","","","","","","","","","",""
"","ITI","","html-keyboard-response","354","379963","0.0-1.0-486.0","0","0","79608","","null","","","null","53","","","","","","","","","","","","","","","NaN",""
"","S1","","html-keyboard-response","355","380215","0.0-1.0-488.0","0","0","79608","","null","","","null","54","","","","","","","","","","","","","","","",""
"","ISI","","html-keyboard-response","356","381217","0.0-1.0-489.0","0","0","79608","","null","","","null","54","NaN","","","","","","","","","","","","","","",""
"","S2","","html-keyboard-response","357","381470","0.0-1.0-490.0","0","0","79608","","null","","","null","54","","NaN","","","","","","","","","","","","","",""
"","response","","html-keyboard-response","358","381844","0.0-1.0-491.0-0.0","0","0","79608","","372","","","75","54","","","2","54","training","adjacent","CB","3","2","R.jpg","N.jpg","0","0","1","",""
"","feedback","","html-keyboard-response","359","382846","0.0-1.0-492.0-0.0","0","0","79608","","null","","","null","54","","","","","","","","","","","","","","","",""
"","ITI","","html-keyboard-response","360","383849","0.0-1.0-495.0","0","0","79608","","null","","","null","54","","","","","","","","","","","","","","","NaN",""
"","S1","","html-keyboard-response","361","384101","0.0-1.0-497.0","0","0","79608","","null","","","null","55","","","","","","","","","","","","","","","",""
"","ISI","","html-keyboard-response","362","385104","0.0-1.0-498.0","0","0","79608","","null","","","null","55","NaN","","","","","","","","","","","","","","",""
"","S2","","html-keyboard-response","363","385356","0.0-1.0-499.0","0","0","79608","","null","","","null","55","","NaN","","","","","","","","","","","","","",""
"","response","","html-keyboard-response","364","385936","0.0-1.0-500.0-0.0","0","0","79608","","578","","","75","55","","","2","55","training","adjacent","CD","3","4","R.jpg","P.jpg","0","1","0","",""
"","feedback","","html-keyboard-response","365","386939","0.0-1.0-501.0-0.0","0","0","79608","","null","","","null","55","","","","","","","","","","","","","","","",""
"","time_out","","html-keyboard-response","366","388941","0.0-1.0-503.0-0.0","0","0","79608","","null","","","null","55","","","","","","","","","","","","","","","",""
"","ITI","","html-keyboard-response","367","389944","0.0-1.0-504.0","0","0","79608","","null","","","null","55","","","","","","","","","","","","","","","NaN",""
"","S1","","html-keyboard-response","368","390196","0.0-1.0-506.0","0","0","79608","","null","","","null","56","","","","","","","","","","","","","","","",""
"","ISI","","html-keyboard-response","369","391199","0.0-1.0-507.0","0","0","79608","","null","","","null","56","NaN","","","","","","","","","","","","","","",""
"","S2","","html-keyboard-response","370","391452","0.0-1.0-508.0","0","0","79608","","null","","","null","56","","NaN","","","","","","","","","","","","","",""
"","response","","html-keyboard-response","371","391738","0.0-1.0-509.0-0.0","0","0","79608","","285","","","68","56","","","2","56","training","adjacent","EF","5","6","Q.jpg","M.jpg","1","1","1","",""
"","feedback","","html-keyboard-response","372","392741","0.0-1.0-510.0-0.0","0","0","79608","","null","","","null","56","","","","","","","","","","","","","","","",""
"","ITI","","html-keyboard-response","373","393744","0.0-1.0-513.0","0","0","79608","","null","","","null","56","","","","","","","","","","","","","","","NaN",""
"","S1","","html-keyboard-response","374","393997","0.0-1.0-515.0","0","0","79608","","null","","","null","57","","","","","","","","","","","","","","","",""
"","ISI","","html-keyboard-response","375","395000","0.0-1.0-516.0","0","0","79608","","null","","","null","57","NaN","","","","","","","","","","","","","","",""
"","S2","","html-keyboard-response","376","395252","0.0-1.0-517.0","0","0","79608","","null","","","null","57","","NaN","","","","","","","","","","","","","",""
"","response","","html-keyboard-response","377","396008","0.0-1.0-518.0-0.0","0","0","79608","","753","","","75","57","","","2","57","training","adjacent","CB","3","2","R.jpg","N.jpg","0","0","1","",""
"","feedback","","html-keyboard-response","378","397022","0.0-1.0-519.0-0.0","0","0","79608","","null","","","null","57","","","","","","","","","","","","","","","",""
"","ITI","","html-keyboard-response","379","398025","0.0-1.0-522.0","0","0","79608","","null","","","null","57","","","","","","","","","","","","","","","NaN",""
"","S1","","html-keyboard-response","380","398277","0.0-1.0-524.0","0","0","79608","","null","","","null","58","","","","","","","","","","","","","","","",""
"","ISI","","html-keyboard-response","381","399280","0.0-1.0-525.0","0","0","79608","","null","","","null","58","NaN","","","","","","","","","","","","","","",""
"","S2","","html-keyboard-response","382","399533","0.0-1.0-526.0","0","0","79608","","null","","","null","58","","NaN","","","","","","","","","","","","","",""
"","response","","html-keyboard-response","383","400193","0.0-1.0-527.0-0.0","0","0","79608","","658","","","68","58","","","2","58","training","adjacent","CD","3","4","R.jpg","P.jpg","1","1","1","",""
"","feedback","","html-keyboard-response","384","401199","0.0-1.0-528.0-0.0","0","0","79608","","null","","","null","58","","","","","","","","","","","","","","","",""
"","ITI","","html-keyboard-response","385","402202","0.0-1.0-531.0","0","0","79608","","null","","","null","58","","","","","","","","","","","","","","","NaN",""
"","S1","","html-keyboard-response","386","402455","0.0-1.0-533.0","0","0","79608","","null","","","null","59","","","","","","","","","","","","","","","",""
"","ISI","","html-keyboard-response","387","403457","0.0-1.0-534.0","0","0","79608","","null","","","null","59","NaN","","","","","","","","","","","","","","",""
"","S2","","html-keyboard-response","388","403710","0.0-1.0-535.0","0","0","79608","","null","","","null","59","","NaN","","","","","","","","","","","","","",""
"","response","","html-keyboard-response","389","404189","0.0-1.0-536.0-0.0","0","0","79608","","477","","","68","59","","","2","59","training","adjacent","BA","2","1","N.jpg","O.jpg","1","0","0","",""
"","feedback","","html-keyboard-response","390","405191","0.0-1.0-537.0-0.0","0","0","79608","","null","","","null","59","","","","","","","","","","","","","","","",""
"","time_out","","html-keyboard-response","391","407193","0.0-1.0-539.0-0.0","0","0","79608","","null","","","null","59","","","","","","","","","","","","","","","",""
"","ITI","","html-keyboard-response","392","408196","0.0-1.0-540.0","0","0","79608","","null","","","null","59","","","","","","","","","","","","","","","NaN",""
"","S1","","html-keyboard-response","393","408449","0.0-1.0-542.0","0","0","79608","","null","","","null","60","","","","","","","","","","","","","","","",""
"","ISI","","html-keyboard-response","394","409451","0.0-1.0-543.0","0","0","79608","","null","","","null","60","NaN","","","","","","","","","","","","","","",""
"","S2","","html-keyboard-response","395","409703","0.0-1.0-544.0","0","0","79608","","null","","","null","60","","NaN","","","","","","","","","","","","","",""
"","response","","html-keyboard-response","396","410416","0.0-1.0-545.0-0.0","0","0","79608","","711","","","68","60","","","2","60","training","adjacent","AB","1","2","O.jpg","N.jpg","1","1","1","",""
"","feedback","","html-keyboard-response","397","411419","0.0-1.0-546.0-0.0","0","0","79608","","null","","","null","60","","","","","","","","","","","","","","","",""
"","ITI","","html-keyboard-response","398","412421","0.0-1.0-549.0","0","0","79608","","null","","","null","60","","","","","","","","","","","","","","","NaN",""
"","S1","","html-keyboard-response","399","412673","0.0-1.0-551.0","0","0","79608","","null","","","null","61","","","","","","","","","","","","","","","",""
"","ISI","","html-keyboard-response","400","413675","0.0-1.0-552.0","0","0","79608","","null","","","null","61","NaN","","","","","","","","","","","","","","",""
"","S2","","html-keyboard-response","401","413928","0.0-1.0-553.0","0","0","79608","","null","","","null","61","","NaN","","","","","","","","","","","","","",""
"","response","","html-keyboard-response","402","414306","0.0-1.0-554.0-0.0","0","0","79608","","376","","","75","61","","","2","61","training","adjacent","FE","6","5","M.jpg","Q.jpg","0","0","1","",""
"","feedback","","html-keyboard-response","403","415310","0.0-1.0-555.0-0.0","0","0","79608","","null","","","null","61","","","","","","","","","","","","","","","",""
"","ITI","","html-keyboard-response","404","416311","0.0-1.0-558.0","0","0","79608","","null","","","null","61","","","","","","","","","","","","","","","NaN",""
"","S1","","html-keyboard-response","405","416564","0.0-1.0-560.0","0","0","79608","","null","","","null","62","","","","","","","","","","","","","","","",""
"","ISI","","html-keyboard-response","406","417566","0.0-1.0-561.0","0","0","79608","","null","","","null","62","NaN","","","","","","","","","","","","","","",""
"","S2","","html-keyboard-response","407","417819","0.0-1.0-562.0","0","0","79608","","null","","","null","62","","NaN","","","","","","","","","","","","","",""
"","response","","html-keyboard-response","408","418248","0.0-1.0-563.0-0.0","0","0","79608","","428","","","68","62","","","2","62","training","adjacent","GF","7","6","L.jpg","M.jpg","1","0","0","",""
"","feedback","","html-keyboard-response","409","419251","0.0-1.0-564.0-0.0","0","0","79608","","null","","","null","62","","","","","","","","","","","","","","","",""
"","time_out","","html-keyboard-response","410","421254","0.0-1.0-566.0-0.0","0","0","79608","","null","","","null","62","","","","","","","","","","","","","","","",""
"","ITI","","html-keyboard-response","411","422256","0.0-1.0-567.0","0","0","79608","","null","","","null","62","","","","","","","","","","","","","","","NaN",""
"","S1","","html-keyboard-response","412","422508","0.0-1.0-569.0","0","0","79608","","null","","","null","63","","","","","","","","","","","","","","","",""
"","ISI","","html-keyboard-response","413","423511","0.0-1.0-570.0","0","0","79608","","null","","","null","63","NaN","","","","","","","","","","","","","","",""
"","S2","","html-keyboard-response","414","423763","0.0-1.0-571.0","0","0","79608","","null","","","null","63","","NaN","","","","","","","","","","","","","",""
"","response","","html-keyboard-response","415","424911","0.0-1.0-572.0-0.0","0","0","79608","","1146","","","75","63","","","2","63","training","adjacent","CD","3","4","R.jpg","P.jpg","0","1","0","",""
"","feedback","","html-keyboard-response","416","425914","0.0-1.0-573.0-0.0","0","0","79608","","null","","","null","63","","","","","","","","","","","","","","","",""
"","time_out","","html-keyboard-response","417","427917","0.0-1.0-575.0-0.0","0","0","79608","","null","","","null","63","","","","","","","","","","","","","","","",""
"","ITI","","html-keyboard-response","418","428920","0.0-1.0-576.0","0","0","79608","","null","","","null","63","","","","","","","","","","","","","","","NaN",""
"","S1","","html-keyboard-response","419","429173","0.0-1.0-578.0","0","0","79608","","null","","","null","64","","","","","","","","","","","","","","","",""
"","ISI","","html-keyboard-response","420","430175","0.0-1.0-579.0","0","0","79608","","null","","","null","64","NaN","","","","","","","","","","","","","","",""
"","S2","","html-keyboard-response","421","430428","0.0-1.0-580.0","0","0","79608","","null","","","null","64","","NaN","","","","","","","","","","","","","",""
"","response","","html-keyboard-response","422","431220","0.0-1.0-581.0-0.0","0","0","79608","","791","","","68","64","","","2","64","training","adjacent","GF","7","6","L.jpg","M.jpg","1","0","0","",""
"","feedback","","html-keyboard-response","423","432223","0.0-1.0-582.0-0.0","0","0","79608","","null","","","null","64","","","","","","","","","","","","","","","",""
"","time_out","","html-keyboard-response","424","434226","0.0-1.0-584.0-0.0","0","0","79608","","null","","","null","64","","","","","","","","","","","","","","","",""
"","ITI","","html-keyboard-response","425","435229","0.0-1.0-585.0","0","0","79608","","null","","","null","64","","","","","","","","","","","","","","","NaN",""
"","S1","","html-keyboard-response","426","435482","0.0-1.0-587.0","0","0","79608","","null","","","null","65","","","","","","","","","","","","","","","",""
"","ISI","","html-keyboard-response","427","436484","0.0-1.0-588.0","0","0","79608","","null","","","null","65","NaN","","","","","","","","","","","","","","",""
"","S2","","html-keyboard-response","428","436737","0.0-1.0-589.0","0","0","79608","","null","","","null","65","","NaN","","","","","","","","","","","","","",""
"","response","","html-keyboard-response","429","437218","0.0-1.0-590.0-0.0","0","0","79608","","480","","","75","65","","","2","65","training","adjacent","ED","5","4","Q.jpg","P.jpg","0","0","1","",""
"","feedback","","html-keyboard-response","430","438224","0.0-1.0-591.0-0.0","0","0","79608","","null","","","null","65","","","","","","","","","","","","","","","",""
"","ITI","","html-keyboard-response","431","439228","0.0-1.0-594.0","0","0","79608","","null","","","null","65","","","","","","","","","","","","","","","NaN",""
"","S1","","html-keyboard-response","432","439481","0.0-1.0-596.0","0","0","79608","","null","","","null","66","","","","","","","","","","","","","","","",""
"","ISI","","html-keyboard-response","433","440484","0.0-1.0-597.0","0","0","79608","","null","","","null","66","NaN","","","","","","","","","","","","","","",""
"","S2","","html-keyboard-response","434","440737","0.0-1.0-598.0","0","0","79608","","null","","","null","66","","NaN","","","","","","","","","","","","","",""
"","response","","html-keyboard-response","435","441461","0.0-1.0-599.0-0.0","0","0","79608","","723","","","75","66","","","2","66","training","adjacent","DE","4","5","P.jpg","Q.jpg","0","1","0","",""
"","feedback","","html-keyboard-response","436","442465","0.0-1.0-600.0-0.0","0","0","79608","","null","","","null","66","","","","","","","","","","","","","","","",""
"","time_out","","html-keyboard-response","437","444468","0.0-1.0-602.0-0.0","0","0","79608","","null","","","null","66","","","","","","","","","","","","","","","",""
"","ITI","","html-keyboard-response","438","445471","0.0-1.0-603.0","0","0","79608","","null","","","null","66","","","","","","","","","","","","","","","NaN",""
"","S1","","html-keyboard-response","439","445723","0.0-1.0-605.0","0","0","79608","","null","","","null","67","","","","","","","","","","","","","","","",""
"","ISI","","html-keyboard-response","440","446726","0.0-1.0-606.0","0","0","79608","","null","","","null","67","NaN","","","","","","","","","","","","","","",""
"","S2","","html-keyboard-response","441","446979","0.0-1.0-607.0","0","0","79608","","null","","","null","67","","NaN","","","","","","","","","","","","","",""
"","response","","html-keyboard-response","442","447940","0.0-1.0-608.0-0.0","0","0","79608","","959","","","75","67","","","2","67","training","adjacent","FG","6","7","M.jpg","L.jpg","0","1","0","",""
"","feedback","","html-keyboard-response","443","448943","0.0-1.0-609.0-0.0","0","0","79608","","null","","","null","67","","","","","","","","","","","","","","","",""
"","time_out","","html-keyboard-response","444","450945","0.0-1.0-611.0-0.0","0","0","79608","","null","","","null","67","","","","","","","","","","","","","","","",""
"","ITI","","html-keyboard-response","445","451948","0.0-1.0-612.0","0","0","79608","","null","","","null","67","","","","","","","","","","","","","","","NaN",""
"","S1","","html-keyboard-response","446","452201","0.0-1.0-614.0","0","0","79608","","null","","","null","68","","","","","","","","","","","","","","","",""
"","ISI","","html-keyboard-response","447","453204","0.0-1.0-615.0","0","0","79608","","null","","","null","68","NaN","","","","","","","","","","","","","","",""
"","S2","","html-keyboard-response","448","453457","0.0-1.0-616.0","0","0","79608","","null","","","null","68","","NaN","","","","","","","","","","","","","",""
"","response","","html-keyboard-response","449","453907","0.0-1.0-617.0-0.0","0","0","79608","","448","","","75","68","","","2","68","training","adjacent","ED","5","4","Q.jpg","P.jpg","0","0","1","",""
"","feedback","","html-keyboard-response","450","454910","0.0-1.0-618.0-0.0","0","0","79608","","null","","","null","68","","","","","","","","","","","","","","","",""
"","ITI","","html-keyboard-response","451","455912","0.0-1.0-621.0","0","0","79608","","null","","","null","68","","","","","","","","","","","","","","","NaN",""
"","S1","","html-keyboard-response","452","456165","0.0-1.0-623.0","0","0","79608","","null","","","null","69","","","","","","","","","","","","","","","",""
"","ISI","","html-keyboard-response","453","457167","0.0-1.0-624.0","0","0","79608","","null","","","null","69","NaN","","","","","","","","","","","","","","",""
"","S2","","html-keyboard-response","454","457421","0.0-1.0-625.0","0","0","79608","","null","","","null","69","","NaN","","","","","","","","","","","","","",""
"","response","","html-keyboard-response","455","457886","0.0-1.0-626.0-0.0","0","0","79608","","463","","","75","69","","","2","69","training","adjacent","ED","5","4","Q.jpg","P.jpg","0","0","1","",""
"","feedback","","html-keyboard-response","456","458888","0.0-1.0-627.0-0.0","0","0","79608","","null","","","null","69","","","","","","","","","","","","","","","",""
"","ITI","","html-keyboard-response","457","459891","0.0-1.0-630.0","0","0","79608","","null","","","null","69","","","","","","","","","","","","","","","NaN",""
"","S1","","html-keyboard-response","458","460144","0.0-1.0-632.0","0","0","79608","","null","","","null","70","","","","","","","","","","","","","","","",""
"","ISI","","html-keyboard-response","459","461146","0.0-1.0-633.0","0","0","79608","","null","","","null","70","NaN","","","","","","","","","","","","","","",""
"","S2","","html-keyboard-response","460","461399","0.0-1.0-634.0","0","0","79608","","null","","","null","70","","NaN","","","","","","","","","","","","","",""
"","response","","html-keyboard-response","461","461906","0.0-1.0-635.0-0.0","0","0","79608","","505","","","75","70","","","2","70","training","adjacent","CB","3","2","R.jpg","N.jpg","0","0","1","",""
"","feedback","","html-keyboard-response","462","462909","0.0-1.0-636.0-0.0","0","0","79608","","null","","","null","70","","","","","","","","","","","","","","","",""
"","ITI","","html-keyboard-response","463","463912","0.0-1.0-639.0","0","0","79608","","null","","","null","70","","","","","","","","","","","","","","","NaN",""
"","S1","","html-keyboard-response","464","464169","0.0-1.0-641.0","0","0","79608","","null","","","null","71","","","","","","","","","","","","","","","",""
"","ISI","","html-keyboard-response","465","465171","0.0-1.0-642.0","0","0","79608","","null","","","null","71","NaN","","","","","","","","","","","","","","",""
"","S2","","html-keyboard-response","466","465424","0.0-1.0-643.0","0","0","79608","","null","","","null","71","","NaN","","","","","","","","","","","","","",""
"","response","","html-keyboard-response","467","465901","0.0-1.0-644.0-0.0","0","0","79608","","476","","","68","71","","","2","71","training","adjacent","CD","3","4","R.jpg","P.jpg","1","1","1","",""
"","feedback","","html-keyboard-response","468","466904","0.0-1.0-645.0-0.0","0","0","79608","","null","","","null","71","","","","","","","","","","","","","","","",""
"","ITI","","html-keyboard-response","469","467906","0.0-1.0-648.0","0","0","79608","","null","","","null","71","","","","","","","","","","","","","","","NaN",""
"","S1","","html-keyboard-response","470","468159","0.0-1.0-650.0","0","0","79608","","null","","","null","72","","","","","","","","","","","","","","","",""
"","ISI","","html-keyboard-response","471","469162","0.0-1.0-651.0","0","0","79608","","null","","","null","72","NaN","","","","","","","","","","","","","","",""
"","S2","","html-keyboard-response","472","469415","0.0-1.0-652.0","0","0","79608","","null","","","null","72","","NaN","","","","","","","","","","","","","",""
"","response","","html-keyboard-response","473","469919","0.0-1.0-653.0-0.0","0","0","79608","","502","","","75","72","","","2","72","training","adjacent","FE","6","5","M.jpg","Q.jpg","0","0","1","",""
"","feedback","","html-keyboard-response","474","470922","0.0-1.0-654.0-0.0","0","0","79608","","null","","","null","72","","","","","","","","","","","","","","","",""
"","ITI","","html-keyboard-response","475","471925","0.0-1.0-657.0","0","0","79608","","null","","","null","72","","","","","","","","","","","","","","","NaN",""
"","S1","","html-keyboard-response","476","472177","0.0-1.0-659.0","0","0","79608","","null","","","null","73","","","","","","","","","","","","","","","",""
"","ISI","","html-keyboard-response","477","473190","0.0-1.0-660.0","0","0","79608","","null","","","null","73","NaN","","","","","","","","","","","","","","",""
"","S2","","html-keyboard-response","478","473443","0.0-1.0-661.0","0","0","79608","","null","","","null","73","","NaN","","","","","","","","","","","","","",""
"","response","","html-keyboard-response","479","473928","0.0-1.0-662.0-0.0","0","0","79608","","483","","","68","73","","","2","73","training","adjacent","BC","2","3","N.jpg","R.jpg","1","1","1","",""
"","feedback","","html-keyboard-response","480","474931","0.0-1.0-663.0-0.0","0","0","79608","","null","","","null","73","","","","","","","","","","","","","","","",""
"","ITI","","html-keyboard-response","481","475933","0.0-1.0-666.0","0","0","79608","","null","","","null","73","","","","","","","","","","","","","","","NaN",""
"","S1","","html-keyboard-response","482","476186","0.0-1.0-668.0","0","0","79608","","null","","","null","74","","","","","","","","","","","","","","","",""
"","ISI","","html-keyboard-response","483","477188","0.0-1.0-669.0","0","0","79608","","null","","","null","74","NaN","","","","","","","","","","","","","","",""
"","S2","","html-keyboard-response","484","477441","0.0-1.0-670.0","0","0","79608","","null","","","null","74","","NaN","","","","","","","","","","","","","",""
"","response","","html-keyboard-response","485","477943","0.0-1.0-671.0-0.0","0","0","79608","","499","","","68","74","","","2","74","training","adjacent","BC","2","3","N.jpg","R.jpg","1","1","1","",""
"","feedback","","html-keyboard-response","486","478946","0.0-1.0-672.0-0.0","0","0","79608","","null","","","null","74","","","","","","","","","","","","","","","",""
"","ITI","","html-keyboard-response","487","479948","0.0-1.0-675.0","0","0","79608","","null","","","null","74","","","","","","","","","","","","","","","NaN",""
"","S1","","html-keyboard-response","488","480201","0.0-1.0-677.0","0","0","79608","","null","","","null","75","","","","","","","","","","","","","","","",""
"","ISI","","html-keyboard-response","489","481203","0.0-1.0-678.0","0","0","79608","","null","","","null","75","NaN","","","","","","","","","","","","","","",""
"","S2","","html-keyboard-response","490","481456","0.0-1.0-679.0","0","0","79608","","null","","","null","75","","NaN","","","","","","","","","","","","","",""
"","response","","html-keyboard-response","491","482157","0.0-1.0-680.0-0.0","0","0","79608","","700","","","68","75","","","2","75","training","adjacent","FE","6","5","M.jpg","Q.jpg","1","0","0","",""
"","feedback","","html-keyboard-response","492","483161","0.0-1.0-681.0-0.0","0","0","79608","","null","","","null","75","","","","","","","","","","","","","","","",""
"","time_out","","html-keyboard-response","493","485164","0.0-1.0-683.0-0.0","0","0","79608","","null","","","null","75","","","","","","","","","","","","","","","",""
"","ITI","","html-keyboard-response","494","486166","0.0-1.0-684.0","0","0","79608","","null","","","null","75","","","","","","","","","","","","","","","NaN",""
"","S1","","html-keyboard-response","495","486419","0.0-1.0-686.0","0","0","79608","","null","","","null","76","","","","","","","","","","","","","","","",""
"","ISI","","html-keyboard-response","496","487422","0.0-1.0-687.0","0","0","79608","","null","","","null","76","NaN","","","","","","","","","","","","","","",""
"","S2","","html-keyboard-response","497","487675","0.0-1.0-688.0","0","0","79608","","null","","","null","76","","NaN","","","","","","","","","","","","","",""
"","response","","html-keyboard-response","498","488918","0.0-1.0-689.0-0.0","0","0","79608","","1240","","","75","76","","","2","76","training","adjacent","DC","4","3","P.jpg","R.jpg","0","0","1","",""
"","feedback","","html-keyboard-response","499","489921","0.0-1.0-690.0-0.0","0","0","79608","","null","","","null","76","","","","","","","","","","","","","","","",""
"","ITI","","html-keyboard-response","500","490924","0.0-1.0-693.0","0","0","79608","","null","","","null","76","","","","","","","","","","","","","","","NaN",""
"","S1","","html-keyboard-response","501","491177","0.0-1.0-695.0","0","0","79608","","null","","","null","77","","","","","","","","","","","","","","","",""
"","ISI","","html-keyboard-response","502","492179","0.0-1.0-696.0","0","0","79608","","null","","","null","77","NaN","","","","","","","","","","","","","","",""
"","S2","","html-keyboard-response","503","492432","0.0-1.0-697.0","0","0","79608","","null","","","null","77","","NaN","","","","","","","","","","","","","",""
"","response","","html-keyboard-response","504","493197","0.0-1.0-698.0-0.0","0","0","79608","","763","","","75","77","","","2","77","training","adjacent","BA","2","1","N.jpg","O.jpg","0","0","1","",""
"","feedback","","html-keyboard-response","505","494201","0.0-1.0-699.0-0.0","0","0","79608","","null","","","null","77","","","","","","","","","","","","","","","",""
"","ITI","","html-keyboard-response","506","495204","0.0-1.0-702.0","0","0","79608","","null","","","null","77","","","","","","","","","","","","","","","NaN",""
"","S1","","html-keyboard-response","507","495457","0.0-1.0-704.0","0","0","79608","","null","","","null","78","","","","","","","","","","","","","","","",""
"","ISI","","html-keyboard-response","508","496459","0.0-1.0-705.0","0","0","79608","","null","","","null","78","NaN","","","","","","","","","","","","","","",""
"","S2","","html-keyboard-response","509","496712","0.0-1.0-706.0","0","0","79608","","null","","","null","78","","NaN","","","","","","","","","","","","","",""
"","response","","html-keyboard-response","510","497757","0.0-1.0-707.0-0.0","0","0","79608","","1043","","","75","78","","","2","78","training","adjacent","DC","4","3","P.jpg","R.jpg","0","0","1","",""
"","feedback","","html-keyboard-response","511","498761","0.0-1.0-708.0-0.0","0","0","79608","","null","","","null","78","","","","","","","","","","","","","","","",""
"","ITI","","html-keyboard-response","512","499763","0.0-1.0-711.0","0","0","79608","","null","","","null","78","","","","","","","","","","","","","","","NaN",""
"","S1","","html-keyboard-response","513","500016","0.0-1.0-713.0","0","0","79608","","null","","","null","79","","","","","","","","","","","","","","","",""
"","ISI","","html-keyboard-response","514","501019","0.0-1.0-714.0","0","0","79608","","null","","","null","79","NaN","","","","","","","","","","","","","","",""
"","S2","","html-keyboard-response","515","501272","0.0-1.0-715.0","0","0","79608","","null","","","null","79","","NaN","","","","","","","","","","","","","",""
"","response","","html-keyboard-response","516","502086","0.0-1.0-716.0-0.0","0","0","79608","","812","","","75","79","","","2","79","training","adjacent","BA","2","1","N.jpg","O.jpg","0","0","1","",""
"","feedback","","html-keyboard-response","517","503093","0.0-1.0-717.0-0.0","0","0","79608","","null","","","null","79","","","","","","","","","","","","","","","",""
"","ITI","","html-keyboard-response","518","504106","0.0-1.0-720.0","0","0","79608","","null","","","null","79","","","","","","","","","","","","","","","NaN",""
"","S1","","html-keyboard-response","519","504358","0.0-1.0-722.0","0","0","79608","","null","","","null","80","","","","","","","","","","","","","","","",""
"","ISI","","html-keyboard-response","520","505361","0.0-1.0-723.0","0","0","79608","","null","","","null","80","NaN","","","","","","","","","","","","","","",""
"","S2","","html-keyboard-response","521","505614","0.0-1.0-724.0","0","0","79608","","null","","","null","80","","NaN","","","","","","","","","","","","","",""
"","response","","html-keyboard-response","522","506092","0.0-1.0-725.0-0.0","0","0","79608","","476","","","75","80","","","2","80","training","adjacent","DE","4","5","P.jpg","Q.jpg","0","1","0","",""
"","feedback","","html-keyboard-response","523","507096","0.0-1.0-726.0-0.0","0","0","79608","","null","","","null","80","","","","","","","","","","","","","","","",""
"","time_out","","html-keyboard-response","524","509099","0.0-1.0-728.0-0.0","0","0","79608","","null","","","null","80","","","","","","","","","","","","","","","",""
"","ITI","","html-keyboard-response","525","510101","0.0-1.0-729.0","0","0","79608","","null","","","null","80","","","","","","","","","","","","","","","NaN",""
"","S1","","html-keyboard-response","526","510354","0.0-1.0-731.0","0","0","79608","","null","","","null","81","","","","","","","","","","","","","","","",""
"","ISI","","html-keyboard-response","527","511356","0.0-1.0-732.0","0","0","79608","","null","","","null","81","NaN","","","","","","","","","","","","","","",""
"","S2","","html-keyboard-response","528","511609","0.0-1.0-733.0","0","0","79608","","null","","","null","81","","NaN","","","","","","","","","","","","","",""
"","response","","html-keyboard-response","529","512147","0.0-1.0-734.0-0.0","0","0","79608","","536","","","68","81","","","2","81","training","adjacent","BC","2","3","N.jpg","R.jpg","1","1","1","",""
"","feedback","","html-keyboard-response","530","513151","0.0-1.0-735.0-0.0","0","0","79608","","null","","","null","81","","","","","","","","","","","","","","","",""
"","ITI","","html-keyboard-response","531","514154","0.0-1.0-738.0","0","0","79608","","null","","","null","81","","","","","","","","","","","","","","","NaN",""
"","S1","","html-keyboard-response","532","514406","0.0-1.0-740.0","0","0","79608","","null","","","null","82","","","","","","","","","","","","","","","",""
"","ISI","","html-keyboard-response","533","515408","0.0-1.0-741.0","0","0","79608","","null","","","null","82","NaN","","","","","","","","","","","","","","",""
"","S2","","html-keyboard-response","534","515662","0.0-1.0-742.0","0","0","79608","","null","","","null","82","","NaN","","","","","","","","","","","","","",""
"","response","","html-keyboard-response","535","516418","0.0-1.0-743.0-0.0","0","0","79608","","754","","","68","82","","","2","82","training","adjacent","DC","4","3","P.jpg","R.jpg","1","0","0","",""
"","feedback","","html-keyboard-response","536","517421","0.0-1.0-744.0-0.0","0","0","79608","","null","","","null","82","","","","","","","","","","","","","","","",""
"","time_out","","html-keyboard-response","537","519424","0.0-1.0-746.0-0.0","0","0","79608","","null","","","null","82","","","","","","","","","","","","","","","",""
"","ITI","","html-keyboard-response","538","520426","0.0-1.0-747.0","0","0","79608","","null","","","null","82","","","","","","","","","","","","","","","NaN",""
"","S1","","html-keyboard-response","539","520678","0.0-1.0-749.0","0","0","79608","","null","","","null","83","","","","","","","","","","","","","","","",""
"","ISI","","html-keyboard-response","540","521681","0.0-1.0-750.0","0","0","79608","","null","","","null","83","NaN","","","","","","","","","","","","","","",""
"","S2","","html-keyboard-response","541","521934","0.0-1.0-751.0","0","0","79608","","null","","","null","83","","NaN","","","","","","","","","","","","","",""
"","response","","html-keyboard-response","542","522974","0.0-1.0-752.0-0.0","0","0","79608","","1039","","","75","83","","","2","83","training","adjacent","EF","5","6","Q.jpg","M.jpg","0","1","0","",""
"","feedback","","html-keyboard-response","543","523977","0.0-1.0-753.0-0.0","0","0","79608","","null","","","null","83","","","","","","","","","","","","","","","",""
"","time_out","","html-keyboard-response","544","525980","0.0-1.0-755.0-0.0","0","0","79608","","null","","","null","83","","","","","","","","","","","","","","","",""
"","ITI","","html-keyboard-response","545","526983","0.0-1.0-756.0","0","0","79608","","null","","","null","83","","","","","","","","","","","","","","","NaN",""
"","S1","","html-keyboard-response","546","527236","0.0-1.0-758.0","0","0","79608","","null","","","null","84","","","","","","","","","","","","","","","",""
"","ISI","","html-keyboard-response","547","528238","0.0-1.0-759.0","0","0","79608","","null","","","null","84","NaN","","","","","","","","","","","","","","",""
"","S2","","html-keyboard-response","548","528491","0.0-1.0-760.0","0","0","79608","","null","","","null","84","","NaN","","","","","","","","","","","","","",""
"","response","","html-keyboard-response","549","529404","0.0-1.0-761.0-0.0","0","0","79608","","911","","","75","84","","","2","84","training","adjacent","BC","2","3","N.jpg","R.jpg","0","1","0","",""
"","feedback","","html-keyboard-response","550","530407","0.0-1.0-762.0-0.0","0","0","79608","","null","","","null","84","","","","","","","","","","","","","","","",""
"","time_out","","html-keyboard-response","551","532411","0.0-1.0-764.0-0.0","0","0","79608","","null","","","null","84","","","","","","","","","","","","","","","",""
"","ITI","","html-keyboard-response","552","533413","0.0-1.0-765.0","0","0","79608","","null","","","null","84","","","","","","","","","","","","","","","NaN",""
"","S1","","html-keyboard-response","553","533666","0.0-1.0-767.0","0","0","79608","","null","","","null","85","","","","","","","","","","","","","","","",""
"","ISI","","html-keyboard-response","554","534668","0.0-1.0-768.0","0","0","79608","","null","","","null","85","NaN","","","","","","","","","","","","","","",""
"","S2","","html-keyboard-response","555","534921","0.0-1.0-769.0","0","0","79608","","null","","","null","85","","NaN","","","","","","","","","","","","","",""
"","response","","html-keyboard-response","556","535929","0.0-1.0-770.0-0.0","0","0","79608","","1006","","","68","85","","","2","85","training","adjacent","AB","1","2","O.jpg","N.jpg","1","1","1","",""
"","feedback","","html-keyboard-response","557","536932","0.0-1.0-771.0-0.0","0","0","79608","","null","","","null","85","","","","","","","","","","","","","","","",""
"","ITI","","html-keyboard-response","558","537934","0.0-1.0-774.0","0","0","79608","","null","","","null","85","","","","","","","","","","","","","","","NaN",""
"","S1","","html-keyboard-response","559","538187","0.0-1.0-776.0","0","0","79608","","null","","","null","86","","","","","","","","","","","","","","","",""
"","ISI","","html-keyboard-response","560","539189","0.0-1.0-777.0","0","0","79608","","null","","","null","86","NaN","","","","","","","","","","","","","","",""
"","S2","","html-keyboard-response","561","539441","0.0-1.0-778.0","0","0","79608","","null","","","null","86","","NaN","","","","","","","","","","","","","",""
"","response","","html-keyboard-response","562","539974","0.0-1.0-779.0-0.0","0","0","79608","","531","","","68","86","","","2","86","training","adjacent","FE","6","5","M.jpg","Q.jpg","1","0","0","",""
"","feedback","","html-keyboard-response","563","540977","0.0-1.0-780.0-0.0","0","0","79608","","null","","","null","86","","","","","","","","","","","","","","","",""
"","time_out","","html-keyboard-response","564","542979","0.0-1.0-782.0-0.0","0","0","79608","","null","","","null","86","","","","","","","","","","","","","","","",""
"","ITI","","html-keyboard-response","565","543982","0.0-1.0-783.0","0","0","79608","","null","","","null","86","","","","","","","","","","","","","","","NaN",""
"","S1","","html-keyboard-response","566","544234","0.0-1.0-785.0","0","0","79608","","null","","","null","87","","","","","","","","","","","","","","","",""
"","ISI","","html-keyboard-response","567","545236","0.0-1.0-786.0","0","0","79608","","null","","","null","87","NaN","","","","","","","","","","","","","","",""
"","S2","","html-keyboard-response","568","545489","0.0-1.0-787.0","0","0","79608","","null","","","null","87","","NaN","","","","","","","","","","","","","",""
"","response","","html-keyboard-response","569","546175","0.0-1.0-788.0-0.0","0","0","79608","","684","","","75","87","","","2","87","training","adjacent","BA","2","1","N.jpg","O.jpg","0","0","1","",""
"","feedback","","html-keyboard-response","570","547178","0.0-1.0-789.0-0.0","0","0","79608","","null","","","null","87","","","","","","","","","","","","","","","",""
"","ITI","","html-keyboard-response","571","548182","0.0-1.0-792.0","0","0","79608","","null","","","null","87","","","","","","","","","","","","","","","NaN",""
"","S1","","html-keyboard-response","572","548435","0.0-1.0-794.0","0","0","79608","","null","","","null","88","","","","","","","","","","","","","","","",""
"","ISI","","html-keyboard-response","573","549437","0.0-1.0-795.0","0","0","79608","","null","","","null","88","NaN","","","","","","","","","","","","","","",""
"","S2","","html-keyboard-response","574","549690","0.0-1.0-796.0","0","0","79608","","null","","","null","88","","NaN","","","","","","","","","","","","","",""
"","response","","html-keyboard-response","575","550332","0.0-1.0-797.0-0.0","0","0","79608","","640","","","68","88","","","2","88","training","adjacent","FG","6","7","M.jpg","L.jpg","1","1","1","",""
"","feedback","","html-keyboard-response","576","551335","0.0-1.0-798.0-0.0","0","0","79608","","null","","","null","88","","","","","","","","","","","","","","","",""
"","ITI","","html-keyboard-response","577","552337","0.0-1.0-801.0","0","0","79608","","null","","","null","88","","","","","","","","","","","","","","","NaN",""
"","S1","","html-keyboard-response","578","552590","0.0-1.0-803.0","0","0","79608","","null","","","null","89","","","","","","","","","","","","","","","",""
"","ISI","","html-keyboard-response","579","553593","0.0-1.0-804.0","0","0","79608","","null","","","null","89","NaN","","","","","","","","","","","","","","",""
"","S2","","html-keyboard-response","580","553846","0.0-1.0-805.0","0","0","79608","","null","","","null","89","","NaN","","","","","","","","","","","","","",""
