"success","ttype","start_time","trial_type","trial_index","time_elapsed","internal_node_id","warning","missed_checkup","PID","view_history","rt","responses","repeat_instructions","key_press","index","keypress_isi","keypress_S2","block","trial_num","phase","group_type","pair_type","S1_stim","S2_stim","S1_img","S2_img","S1_chosen","S1_higher","accuracy","keypress_iti","total_bonus_tally"
"true","full_screen","d04152023hr0257","fullscreen","0","11917","0.0-0.0","0","0","66339","","","","","","","","","","","","","","","","","","","","","",""
"","instructions","","instructions","1","51760","0.0-1.0-0.0-0.0","0","0","66339","[{""page_index"":0,""viewing_time"":4207},{""page_index"":1,""viewing_time"":17632},{""page_index"":2,""viewing_time"":11584},{""page_index"":3,""viewing_time"":6416}]","39840","","","","","","","","","","","","","","","","","","","",""
"","comprehension_check","","survey-multi-choice","2","94387","0.0-1.0-0.0-1.0","0","0","66339","","42619","{""Q0"":""True"",""Q1"":""K"",""Q2"":""Only when the screen 'MAKE A CHOICE' is shown"",""Q3"":""Green mark"",""Q4"":""either D or K""}","1","","","","","","","","","","","","","","","","","",""
"","missed_instruction_checkup","","html-keyboard-response","3","98044","0.0-1.0-0.0-2.0-0.0","0","1","66339","","3652","","","32","","","","","","","","","","","","","","","","",""
"","instructions","","instructions","4","317502","0.0-1.0-0.1-0.1","0","0","66339","[{""page_index"":0,""viewing_time"":4243},{""page_index"":1,""viewing_time"":9544},{""page_index"":2,""viewing_time"":204636},{""page_index"":3,""viewing_time"":1033}]","219456","","","","","","","","","","","","","","","","","","","",""
"","comprehension_check","","survey-multi-choice","5","335712","0.0-1.0-0.1-1.1","0","0","66339","","18203","{""Q0"":""True"",""Q1"":""K"",""Q2"":""Once the second image appears and while the screen 'MAKE A CHOICE' is shown"",""Q3"":""Green mark"",""Q4"":""either D or K""}","0","","","","","","","","","","","","","","","","","",""
"","start_exp","","html-keyboard-response","6","338168","0.0-1.0-1.0","0","0","66339","","2452","","","32","","","","","","","","","","","","","","","","",""
"","S1","","html-keyboard-response","7","338428","0.0-1.0-2.0","0","0","66339","","null","","","null","0","","","","","","","","","","","","","","","",""
"","ISI","","html-keyboard-response","8","339438","0.0-1.0-3.0","0","0","66339","","null","","","null","0","NaN","","","","","","","","","","","","","","",""
"","S2","","html-keyboard-response","9","339699","0.0-1.0-4.0","0","0","66339","","null","","","null","0","","NaN","","","","","","","","","","","","","",""
"","response","","html-keyboard-response","10","340896","0.0-1.0-5.0-0.0","0","0","66339","","1194","","","75","0","","","1","0","training","adjacent","DE","4","5","P.jpg","M.jpg","1","1","1","",""
"","feedback","","html-keyboard-response","11","341905","0.0-1.0-6.0-0.0","0","0","66339","","null","","","null","0","","","","","","","","","","","","","","","",""
"","ITI","","html-keyboard-response","12","342915","0.0-1.0-9.0","0","0","66339","","null","","","null","0","","","","","","","","","","","","","","","NaN",""
"","S1","","html-keyboard-response","13","343171","0.0-1.0-11.0","0","0","66339","","null","","","null","1","","","","","","","","","","","","","","","",""
"","ISI","","html-keyboard-response","14","344181","0.0-1.0-12.0","0","0","66339","","null","","","null","1","NaN","","","","","","","","","","","","","","",""
"","S2","","html-keyboard-response","15","344442","0.0-1.0-13.0","0","0","66339","","null","","","null","1","","NaN","","","","","","","","","","","","","",""
"","response","","html-keyboard-response","16","345504","0.0-1.0-14.0-0.0","0","0","66339","","1059","","","68","1","","","1","1","training","adjacent","BA","2","1","Q.jpg","O.jpg","0","0","1","",""
"","feedback","","html-keyboard-response","17","346515","0.0-1.0-15.0-0.0","0","0","66339","","null","","","null","1","","","","","","","","","","","","","","","",""
"","ITI","","html-keyboard-response","18","347525","0.0-1.0-18.0","0","0","66339","","null","","","null","1","","","","","","","","","","","","","","","NaN",""
"","S1","","html-keyboard-response","19","347780","0.0-1.0-20.0","0","0","66339","","null","","","null","2","","","","","","","","","","","","","","","",""
"","ISI","","html-keyboard-response","20","348790","0.0-1.0-21.0","0","0","66339","","null","","","null","2","NaN","","","","","","","","","","","","","","",""
"","S2","","html-keyboard-response","21","349051","0.0-1.0-22.0","0","0","66339","","null","","","null","2","","NaN","","","","","","","","","","","","","",""
"","response","","html-keyboard-response","22","349976","0.0-1.0-23.0-0.0","0","0","66339","","923","","","68","2","","","1","2","training","adjacent","BC","2","3","Q.jpg","N.jpg","0","1","0","",""
"","feedback","","html-keyboard-response","23","350991","0.0-1.0-24.0-0.0","0","0","66339","","null","","","null","2","","","","","","","","","","","","","","","",""
"","time_out","","html-keyboard-response","24","352999","0.0-1.0-26.0-0.0","0","0","66339","","null","","","null","2","","","","","","","","","","","","","","","",""
"","ITI","","html-keyboard-response","25","354003","0.0-1.0-27.0","0","0","66339","","null","","","null","2","","","","","","","","","","","","","","","NaN",""
"","S1","","html-keyboard-response","26","354259","0.0-1.0-29.0","0","0","66339","","null","","","null","3","","","","","","","","","","","","","","","",""
"","ISI","","html-keyboard-response","27","355269","0.0-1.0-30.0","0","0","66339","","null","","","null","3","NaN","","","","","","","","","","","","","","",""
"","S2","","html-keyboard-response","28","355524","0.0-1.0-31.0","0","0","66339","","null","","","null","3","","NaN","","","","","","","","","","","","","",""
"","response","","html-keyboard-response","29","356568","0.0-1.0-32.0-0.0","0","0","66339","","1042","","","75","3","","","1","3","training","adjacent","BA","2","1","Q.jpg","O.jpg","1","0","0","",""
"","feedback","","html-keyboard-response","30","357579","0.0-1.0-33.0-0.0","0","0","66339","","null","","","null","3","","","","","","","","","","","","","","","",""
"","time_out","","html-keyboard-response","31","359587","0.0-1.0-35.0-0.0","0","0","66339","","null","","","null","3","","","","","","","","","","","","","","","",""
"","ITI","","html-keyboard-response","32","360598","0.0-1.0-36.0","0","0","66339","","null","","","null","3","","","","","","","","","","","","","","","NaN",""
"","S1","","html-keyboard-response","33","360859","0.0-1.0-38.0","0","0","66339","","null","","","null","4","","","","","","","","","","","","","","","",""
"","ISI","","html-keyboard-response","34","361869","0.0-1.0-39.0","0","0","66339","","null","","","null","4","NaN","","","","","","","","","","","","","","",""
"","S2","","html-keyboard-response","35","362125","0.0-1.0-40.0","0","0","66339","","null","","","null","4","","NaN","","","","","","","","","","","","","",""
"","response","","html-keyboard-response","36","363641","0.0-1.0-41.0-0.0","0","0","66339","","1514","","","75","4","","","1","4","training","adjacent","FG","6","7","L.jpg","R.jpg","1","1","1","",""
"","feedback","","html-keyboard-response","37","364650","0.0-1.0-42.0-0.0","0","0","66339","","null","","","null","4","","","","","","","","","","","","","","","",""
"","ITI","","html-keyboard-response","38","365660","0.0-1.0-45.0","0","0","66339","","null","","","null","4","","","","","","","","","","","","","","","NaN",""
"","S1","","html-keyboard-response","39","365915","0.0-1.0-47.0","0","0","66339","","null","","","null","5","","","","","","","","","","","","","","","",""
"","ISI","","html-keyboard-response","40","366926","0.0-1.0-48.0","0","0","66339","","null","","","null","5","NaN","","","","","","","","","","","","","","",""
"","S2","","html-keyboard-response","41","367187","0.0-1.0-49.0","0","0","66339","","null","","","null","5","","NaN","","","","","","","","","","","","","",""
"","response","","html-keyboard-response","42","367817","0.0-1.0-50.0-0.0","0","0","66339","","628","","","75","5","","","1","5","training","adjacent","BA","2","1","Q.jpg","O.jpg","1","0","0","",""
"","feedback","","html-keyboard-response","43","368830","0.0-1.0-51.0-0.0","0","0","66339","","null","","","null","5","","","","","","","","","","","","","","","",""
"","time_out","","html-keyboard-response","44","370838","0.0-1.0-53.0-0.0","0","0","66339","","null","","","null","5","","","","","","","","","","","","","","","",""
"","ITI","","html-keyboard-response","45","371843","0.0-1.0-54.0","0","0","66339","","null","","","null","5","","","","","","","","","","","","","","","NaN",""
"","S1","","html-keyboard-response","46","372103","0.0-1.0-56.0","0","0","66339","","null","","","null","6","","","","","","","","","","","","","","","",""
"","ISI","","html-keyboard-response","47","373108","0.0-1.0-57.0","0","0","66339","","null","","","null","6","NaN","","","","","","","","","","","","","","",""
"","S2","","html-keyboard-response","48","373364","0.0-1.0-58.0","0","0","66339","","null","","","null","6","","NaN","","","","","","","","","","","","","",""
"","response","","html-keyboard-response","49","373913","0.0-1.0-59.0-0.0","0","0","66339","","547","","","75","6","","","1","6","training","adjacent","BC","2","3","Q.jpg","N.jpg","1","1","1","",""
"","feedback","","html-keyboard-response","50","374925","0.0-1.0-60.0-0.0","0","0","66339","","null","","","null","6","","","","","","","","","","","","","","","",""
"","ITI","","html-keyboard-response","51","375935","0.0-1.0-63.0","0","0","66339","","null","","","null","6","","","","","","","","","","","","","","","NaN",""
"","S1","","html-keyboard-response","52","376196","0.0-1.0-65.0","0","0","66339","","null","","","null","7","","","","","","","","","","","","","","","",""
"","ISI","","html-keyboard-response","53","377207","0.0-1.0-66.0","0","0","66339","","null","","","null","7","NaN","","","","","","","","","","","","","","",""
"","S2","","html-keyboard-response","54","377468","0.0-1.0-67.0","0","0","66339","","null","","","null","7","","NaN","","","","","","","","","","","","","",""
"","response","","html-keyboard-response","55","378673","0.0-1.0-68.0-0.0","0","0","66339","","1203","","","75","7","","","1","7","training","adjacent","DC","4","3","P.jpg","N.jpg","1","0","0","",""
"","feedback","","html-keyboard-response","56","379685","0.0-1.0-69.0-0.0","0","0","66339","","null","","","null","7","","","","","","","","","","","","","","","",""
"","time_out","","html-keyboard-response","57","381694","0.0-1.0-71.0-0.0","0","0","66339","","null","","","null","7","","","","","","","","","","","","","","","",""
"","ITI","","html-keyboard-response","58","382699","0.0-1.0-72.0","0","0","66339","","null","","","null","7","","","","","","","","","","","","","","","NaN",""
"","S1","","html-keyboard-response","59","382959","0.0-1.0-74.0","0","0","66339","","null","","","null","8","","","","","","","","","","","","","","","",""
"","ISI","","html-keyboard-response","60","383964","0.0-1.0-75.0","0","0","66339","","null","","","null","8","NaN","","","","","","","","","","","","","","",""
"","S2","","html-keyboard-response","61","384219","0.0-1.0-76.0","0","0","66339","","null","","","null","8","","NaN","","","","","","","","","","","","","",""
"","response","","html-keyboard-response","62","384594","0.0-1.0-77.0-0.0","0","0","66339","","372","","","75","8","","","1","8","training","adjacent","FE","6","5","L.jpg","M.jpg","1","0","0","",""
"","feedback","","html-keyboard-response","63","385607","0.0-1.0-78.0-0.0","0","0","66339","","null","","","null","8","","","","","","","","","","","","","","","",""
"","time_out","","html-keyboard-response","64","387615","0.0-1.0-80.0-0.0","0","0","66339","","null","","","null","8","","","","","","","","","","","","","","","",""
"","ITI","","html-keyboard-response","65","388620","0.0-1.0-81.0","0","0","66339","","null","","","null","8","","","","","","","","","","","","","","","NaN",""
"","S1","","html-keyboard-response","66","388875","0.0-1.0-83.0","0","0","66339","","null","","","null","9","","","","","","","","","","","","","","","",""
"","ISI","","html-keyboard-response","67","389885","0.0-1.0-84.0","0","0","66339","","null","","","null","9","NaN","","","","","","","","","","","","","","",""
"","S2","","html-keyboard-response","68","390140","0.0-1.0-85.0","0","0","66339","","null","","","null","9","","NaN","","","","","","","","","","","","","",""
"","response","","html-keyboard-response","69","391033","0.0-1.0-86.0-0.0","0","0","66339","","891","","","68","9","","","1","9","training","adjacent","CB","3","2","N.jpg","Q.jpg","0","0","1","",""
"","feedback","","html-keyboard-response","70","392045","0.0-1.0-87.0-0.0","0","0","66339","","null","","","null","9","","","","","","","","","","","","","","","",""
"","ITI","","html-keyboard-response","71","393054","0.0-1.0-90.0","0","0","66339","","null","","","null","9","","","","","","","","","","","","","","","NaN",""
"","S1","","html-keyboard-response","72","393310","0.0-1.0-92.0","0","0","66339","","null","","","null","10","","","","","","","","","","","","","","","",""
"","ISI","","html-keyboard-response","73","394320","0.0-1.0-93.0","0","0","66339","","null","","","null","10","NaN","","","","","","","","","","","","","","",""
"","S2","","html-keyboard-response","74","394581","0.0-1.0-94.0","0","0","66339","","null","","","null","10","","NaN","","","","","","","","","","","","","",""
"","response","","html-keyboard-response","75","395874","0.0-1.0-95.0-0.0","0","0","66339","","1290","","","68","10","","","1","10","training","adjacent","CD","3","4","N.jpg","P.jpg","0","1","0","",""
"","feedback","","html-keyboard-response","76","396886","0.0-1.0-96.0-0.0","0","0","66339","","null","","","null","10","","","","","","","","","","","","","","","",""
"","time_out","","html-keyboard-response","77","398895","0.0-1.0-98.0-0.0","0","0","66339","","null","","","null","10","","","","","","","","","","","","","","","",""
"","ITI","","html-keyboard-response","78","399902","0.0-1.0-99.0","0","0","66339","","null","","","null","10","","","","","","","","","","","","","","","NaN",""
"","S1","","html-keyboard-response","79","400160","0.0-1.0-101.0","0","0","66339","","null","","","null","11","","","","","","","","","","","","","","","",""
"","ISI","","html-keyboard-response","80","401164","0.0-1.0-102.0","0","0","66339","","null","","","null","11","NaN","","","","","","","","","","","","","","",""
"","S2","","html-keyboard-response","81","401420","0.0-1.0-103.0","0","0","66339","","null","","","null","11","","NaN","","","","","","","","","","","","","",""
"","response","","html-keyboard-response","82","402954","0.0-1.0-104.0-0.0","0","0","66339","","1532","","","75","11","","","1","11","training","adjacent","DE","4","5","P.jpg","M.jpg","1","1","1","",""
"","feedback","","html-keyboard-response","83","403968","0.0-1.0-105.0-0.0","0","0","66339","","null","","","null","11","","","","","","","","","","","","","","","",""
"","ITI","","html-keyboard-response","84","404973","0.0-1.0-108.0","0","0","66339","","null","","","null","11","","","","","","","","","","","","","","","NaN",""
"","S1","","html-keyboard-response","85","405228","0.0-1.0-110.0","0","0","66339","","null","","","null","12","","","","","","","","","","","","","","","",""
"","ISI","","html-keyboard-response","86","406238","0.0-1.0-111.0","0","0","66339","","null","","","null","12","NaN","","","","","","","","","","","","","","",""
"","S2","","html-keyboard-response","87","406494","0.0-1.0-112.0","0","0","66339","","null","","","null","12","","NaN","","","","","","","","","","","","","",""
"","response","","html-keyboard-response","88","407554","0.0-1.0-113.0-0.0","0","0","66339","","1058","","","68","12","","","1","12","training","adjacent","EF","5","6","M.jpg","L.jpg","0","1","0","",""
"","feedback","","html-keyboard-response","89","408566","0.0-1.0-114.0-0.0","0","0","66339","","null","","","null","12","","","","","","","","","","","","","","","",""
"","time_out","","html-keyboard-response","90","410575","0.0-1.0-116.0-0.0","0","0","66339","","null","","","null","12","","","","","","","","","","","","","","","",""
"","ITI","","html-keyboard-response","91","411582","0.0-1.0-117.0","0","0","66339","","null","","","null","12","","","","","","","","","","","","","","","NaN",""
"","S1","","html-keyboard-response","92","411840","0.0-1.0-119.0","0","0","66339","","null","","","null","13","","","","","","","","","","","","","","","",""
"","ISI","","html-keyboard-response","93","412844","0.0-1.0-120.0","0","0","66339","","null","","","null","13","NaN","","","","","","","","","","","","","","",""
"","S2","","html-keyboard-response","94","413100","0.0-1.0-121.0","0","0","66339","","null","","","null","13","","NaN","","","","","","","","","","","","","",""
"","response","","html-keyboard-response","95","413785","0.0-1.0-122.0-0.0","0","0","66339","","684","","","75","13","","","1","13","training","adjacent","FG","6","7","L.jpg","R.jpg","1","1","1","",""
"","feedback","","html-keyboard-response","96","414801","0.0-1.0-123.0-0.0","0","0","66339","","null","","","null","13","","","","","","","","","","","","","","","",""
"","ITI","","html-keyboard-response","97","415805","0.0-1.0-126.0","0","0","66339","","null","","","null","13","","","","","","","","","","","","","","","NaN",""
"","S1","","html-keyboard-response","98","416061","0.0-1.0-128.0","0","0","66339","","null","","","null","14","","","","","","","","","","","","","","","",""
"","ISI","","html-keyboard-response","99","417071","0.0-1.0-129.0","0","0","66339","","null","","","null","14","NaN","","","","","","","","","","","","","","",""
"","S2","","html-keyboard-response","100","417325","0.0-1.0-130.0","0","0","66339","","null","","","null","14","","NaN","","","","","","","","","","","","","",""
"","response","","html-keyboard-response","101","418763","0.0-1.0-131.0-0.0","0","0","66339","","1435","","","68","14","","","1","14","training","adjacent","EF","5","6","M.jpg","L.jpg","0","1","0","",""
"","feedback","","html-keyboard-response","102","419776","0.0-1.0-132.0-0.0","0","0","66339","","null","","","null","14","","","","","","","","","","","","","","","",""
"","time_out","","html-keyboard-response","103","421784","0.0-1.0-134.0-0.0","0","0","66339","","null","","","null","14","","","","","","","","","","","","","","","",""
"","ITI","","html-keyboard-response","104","422789","0.0-1.0-135.0","0","0","66339","","null","","","null","14","","","","","","","","","","","","","","","NaN",""
"","S1","","html-keyboard-response","105","423044","0.0-1.0-137.0","0","0","66339","","null","","","null","15","","","","","","","","","","","","","","","",""
"","ISI","","html-keyboard-response","106","424054","0.0-1.0-138.0","0","0","66339","","null","","","null","15","NaN","","","","","","","","","","","","","","",""
"","S2","","html-keyboard-response","107","424310","0.0-1.0-139.0","0","0","66339","","null","","","null","15","","NaN","","","","","","","","","","","","","",""
"","response","","html-keyboard-response","108","425659","0.0-1.0-140.0-0.0","0","0","66339","","1347","","","68","15","","","1","15","training","adjacent","CB","3","2","N.jpg","Q.jpg","0","0","1","",""
"","feedback","","html-keyboard-response","109","426672","0.0-1.0-141.0-0.0","0","0","66339","","null","","","null","15","","","","","","","","","","","","","","","",""
"","ITI","","html-keyboard-response","110","427677","0.0-1.0-144.0","0","0","66339","","null","","","null","15","","","","","","","","","","","","","","","NaN",""
"","S1","","html-keyboard-response","111","427932","0.0-1.0-146.0","0","0","66339","","null","","","null","16","","","","","","","","","","","","","","","",""
"","ISI","","html-keyboard-response","112","428942","0.0-1.0-147.0","0","0","66339","","null","","","null","16","NaN","","","","","","","","","","","","","","",""
"","S2","","html-keyboard-response","113","429198","0.0-1.0-148.0","0","0","66339","","null","","","null","16","","NaN","","","","","","","","","","","","","",""
"","response","","html-keyboard-response","114","429707","0.0-1.0-149.0-0.0","0","0","66339","","507","","","75","16","","","1","16","training","adjacent","FG","6","7","L.jpg","R.jpg","1","1","1","",""
"","feedback","","html-keyboard-response","115","430719","0.0-1.0-150.0-0.0","0","0","66339","","null","","","null","16","","","","","","","","","","","","","","","",""
"","ITI","","html-keyboard-response","116","431729","0.0-1.0-153.0","0","0","66339","","null","","","null","16","","","","","","","","","","","","","","","NaN",""
"","S1","","html-keyboard-response","117","431990","0.0-1.0-155.0","0","0","66339","","null","","","null","17","","","","","","","","","","","","","","","",""
"","ISI","","html-keyboard-response","118","433000","0.0-1.0-156.0","0","0","66339","","null","","","null","17","NaN","","","","","","","","","","","","","","",""
"","S2","","html-keyboard-response","119","433261","0.0-1.0-157.0","0","0","66339","","null","","","null","17","","NaN","","","","","","","","","","","","","",""
"","response","","html-keyboard-response","120","434178","0.0-1.0-158.0-0.0","0","0","66339","","915","","","68","17","","","1","17","training","adjacent","ED","5","4","M.jpg","P.jpg","0","0","1","",""
"","feedback","","html-keyboard-response","121","435188","0.0-1.0-159.0-0.0","0","0","66339","","null","","","null","17","","","","","","","","","","","","","","","",""
"","ITI","","html-keyboard-response","122","436199","0.0-1.0-162.0","0","0","66339","","null","","","null","17","","","","","","","","","","","","","","","NaN",""
"","S1","","html-keyboard-response","123","436454","0.0-1.0-164.0","0","0","66339","","null","","","null","18","","","","","","","","","","","","","","","",""
"","ISI","","html-keyboard-response","124","437464","0.0-1.0-165.0","0","0","66339","","null","","","null","18","NaN","","","","","","","","","","","","","","",""
"","S2","","html-keyboard-response","125","437725","0.0-1.0-166.0","0","0","66339","","null","","","null","18","","NaN","","","","","","","","","","","","","",""
"","response","","html-keyboard-response","126","438843","0.0-1.0-167.0-0.0","0","0","66339","","1115","","","68","18","","","1","18","training","adjacent","CD","3","4","N.jpg","P.jpg","0","1","0","",""
"","feedback","","html-keyboard-response","127","439856","0.0-1.0-168.0-0.0","0","0","66339","","null","","","null","18","","","","","","","","","","","","","","","",""
"","time_out","","html-keyboard-response","128","441864","0.0-1.0-170.0-0.0","0","0","66339","","null","","","null","18","","","","","","","","","","","","","","","",""
"","ITI","","html-keyboard-response","129","442869","0.0-1.0-171.0","0","0","66339","","null","","","null","18","","","","","","","","","","","","","","","NaN",""
"","S1","","html-keyboard-response","130","443125","0.0-1.0-173.0","0","0","66339","","null","","","null","19","","","","","","","","","","","","","","","",""
"","ISI","","html-keyboard-response","131","444134","0.0-1.0-174.0","0","0","66339","","null","","","null","19","NaN","","","","","","","","","","","","","","",""
"","S2","","html-keyboard-response","132","444390","0.0-1.0-175.0","0","0","66339","","null","","","null","19","","NaN","","","","","","","","","","","","","",""
"","response","","html-keyboard-response","133","445171","0.0-1.0-176.0-0.0","0","0","66339","","780","","","75","19","","","1","19","training","adjacent","BC","2","3","Q.jpg","N.jpg","1","1","1","",""
"","feedback","","html-keyboard-response","134","446183","0.0-1.0-177.0-0.0","0","0","66339","","null","","","null","19","","","","","","","","","","","","","","","",""
"","ITI","","html-keyboard-response","135","447193","0.0-1.0-180.0","0","0","66339","","null","","","null","19","","","","","","","","","","","","","","","NaN",""
"","S1","","html-keyboard-response","136","447455","0.0-1.0-182.0","0","0","66339","","null","","","null","20","","","","","","","","","","","","","","","",""
"","ISI","","html-keyboard-response","137","448465","0.0-1.0-183.0","0","0","66339","","null","","","null","20","NaN","","","","","","","","","","","","","","",""
"","S2","","html-keyboard-response","138","448726","0.0-1.0-184.0","0","0","66339","","null","","","null","20","","NaN","","","","","","","","","","","","","",""
"","response","","html-keyboard-response","139","450355","0.0-1.0-185.0-0.0","0","0","66339","","1626","","","68","20","","","1","20","training","adjacent","BA","2","1","Q.jpg","O.jpg","0","0","1","",""
"","feedback","","html-keyboard-response","140","451367","0.0-1.0-186.0-0.0","0","0","66339","","null","","","null","20","","","","","","","","","","","","","","","",""
"","ITI","","html-keyboard-response","141","452378","0.0-1.0-189.0","0","0","66339","","null","","","null","20","","","","","","","","","","","","","","","NaN",""
"","S1","","html-keyboard-response","142","452633","0.0-1.0-191.0","0","0","66339","","null","","","null","21","","","","","","","","","","","","","","","",""
"","ISI","","html-keyboard-response","143","453637","0.0-1.0-192.0","0","0","66339","","null","","","null","21","NaN","","","","","","","","","","","","","","",""
"","S2","","html-keyboard-response","144","453893","0.0-1.0-193.0","0","0","66339","","null","","","null","21","","NaN","","","","","","","","","","","","","",""
"","response","","html-keyboard-response","145","454955","0.0-1.0-194.0-0.0","0","0","66339","","1061","","","75","21","","","1","21","training","adjacent","AB","1","2","O.jpg","Q.jpg","1","1","1","",""
"","feedback","","html-keyboard-response","146","455965","0.0-1.0-195.0-0.0","0","0","66339","","null","","","null","21","","","","","","","","","","","","","","","",""
"","ITI","","html-keyboard-response","147","456975","0.0-1.0-198.0","0","0","66339","","null","","","null","21","","","","","","","","","","","","","","","NaN",""
"","S1","","html-keyboard-response","148","457231","0.0-1.0-200.0","0","0","66339","","null","","","null","22","","","","","","","","","","","","","","","",""
"","ISI","","html-keyboard-response","149","458241","0.0-1.0-201.0","0","0","66339","","null","","","null","22","NaN","","","","","","","","","","","","","","",""
"","S2","","html-keyboard-response","150","458502","0.0-1.0-202.0","0","0","66339","","null","","","null","22","","NaN","","","","","","","","","","","","","",""
"","response","","html-keyboard-response","151","460261","0.0-1.0-203.0-0.0","0","0","66339","","null","","","null","22","","","1","22","training","adjacent","DC","4","3","P.jpg","N.jpg","NaN","0","0","",""
"","too_slow_prompt","","html-keyboard-response","152","461271","0.0-1.0-205.0-0.0","1","0","66339","","null","","","null","","","","","","","","","","","","","","","","",""
"","time_out","","html-keyboard-response","153","463280","0.0-1.0-206.0-0.0","0","0","66339","","null","","","null","22","","","","","","","","","","","","","","","",""
"","ITI","","html-keyboard-response","154","464290","0.0-1.0-207.0","0","0","66339","","null","","","null","22","","","","","","","","","","","","","","","NaN",""
"","S1","","html-keyboard-response","155","464551","0.0-1.0-209.0","0","0","66339","","null","","","null","23","","","","","","","","","","","","","","","",""
"","ISI","","html-keyboard-response","156","465561","0.0-1.0-210.0","0","0","66339","","null","","","null","23","NaN","","","","","","","","","","","","","","",""
"","S2","","html-keyboard-response","157","465822","0.0-1.0-211.0","0","0","66339","","null","","","null","23","","NaN","","","","","","","","","","","","","",""
"","response","","html-keyboard-response","158","466964","0.0-1.0-212.0-0.0","0","0","66339","","1139","","","68","23","","","1","23","training","adjacent","GF","7","6","R.jpg","L.jpg","0","0","1","",""
"","feedback","","html-keyboard-response","159","467976","0.0-1.0-213.0-0.0","0","0","66339","","null","","","null","23","","","","","","","","","","","","","","","",""
"","ITI","","html-keyboard-response","160","468986","0.0-1.0-216.0","0","0","66339","","null","","","null","23","","","","","","","","","","","","","","","NaN",""
"","S1","","html-keyboard-response","161","469247","0.0-1.0-218.0","0","0","66339","","null","","","null","24","","","","","","","","","","","","","","","",""
"","ISI","","html-keyboard-response","162","470257","0.0-1.0-219.0","0","0","66339","","null","","","null","24","NaN","","","","","","","","","","","","","","",""
"","S2","","html-keyboard-response","163","470519","0.0-1.0-220.0","0","0","66339","","null","","","null","24","","NaN","","","","","","","","","","","","","",""
"","response","","html-keyboard-response","164","471203","0.0-1.0-221.0-0.0","0","0","66339","","683","","","68","24","","","1","24","training","adjacent","CB","3","2","N.jpg","Q.jpg","0","0","1","",""
"","feedback","","html-keyboard-response","165","472214","0.0-1.0-222.0-0.0","0","0","66339","","null","","","null","24","","","","","","","","","","","","","","","",""
"","ITI","","html-keyboard-response","166","473224","0.0-1.0-225.0","0","0","66339","","null","","","null","24","","","","","","","","","","","","","","","NaN",""
"","S1","","html-keyboard-response","167","473479","0.0-1.0-227.0","0","0","66339","","null","","","null","25","","","","","","","","","","","","","","","",""
"","ISI","","html-keyboard-response","168","474489","0.0-1.0-228.0","0","0","66339","","null","","","null","25","NaN","","","","","","","","","","","","","","",""
"","S2","","html-keyboard-response","169","474751","0.0-1.0-229.0","0","0","66339","","null","","","null","25","","NaN","","","","","","","","","","","","","",""
"","response","","html-keyboard-response","170","475812","0.0-1.0-230.0-0.0","0","0","66339","","1059","","","68","25","","","1","25","training","adjacent","GF","7","6","R.jpg","L.jpg","0","0","1","",""
"","feedback","","html-keyboard-response","171","476823","0.0-1.0-231.0-0.0","0","0","66339","","null","","","null","25","","","","","","","","","","","","","","","",""
"","ITI","","html-keyboard-response","172","477833","0.0-1.0-234.0","0","0","66339","","null","","","null","25","","","","","","","","","","","","","","","NaN",""
"","S1","","html-keyboard-response","173","478094","0.0-1.0-236.0","0","0","66339","","null","","","null","26","","","","","","","","","","","","","","","",""
"","ISI","","html-keyboard-response","174","479105","0.0-1.0-237.0","0","0","66339","","null","","","null","26","NaN","","","","","","","","","","","","","","",""
"","S2","","html-keyboard-response","175","479360","0.0-1.0-238.0","0","0","66339","","null","","","null","26","","NaN","","","","","","","","","","","","","",""
"","response","","html-keyboard-response","176","480204","0.0-1.0-239.0-0.0","0","0","66339","","842","","","75","26","","","1","26","training","adjacent","FG","6","7","L.jpg","R.jpg","1","1","1","",""
"","feedback","","html-keyboard-response","177","481218","0.0-1.0-240.0-0.0","0","0","66339","","null","","","null","26","","","","","","","","","","","","","","","",""
"","ITI","","html-keyboard-response","178","482222","0.0-1.0-243.0","0","0","66339","","null","","","null","26","","","","","","","","","","","","","","","NaN",""
"","S1","","html-keyboard-response","179","482478","0.0-1.0-245.0","0","0","66339","","null","","","null","27","","","","","","","","","","","","","","","",""
"","ISI","","html-keyboard-response","180","483487","0.0-1.0-246.0","0","0","66339","","null","","","null","27","NaN","","","","","","","","","","","","","","",""
"","S2","","html-keyboard-response","181","483743","0.0-1.0-247.0","0","0","66339","","null","","","null","27","","NaN","","","","","","","","","","","","","",""
"","response","","html-keyboard-response","182","484757","0.0-1.0-248.0-0.0","0","0","66339","","1011","","","75","27","","","1","27","training","adjacent","DC","4","3","P.jpg","N.jpg","1","0","0","",""
"","feedback","","html-keyboard-response","183","485769","0.0-1.0-249.0-0.0","0","0","66339","","null","","","null","27","","","","","","","","","","","","","","","",""
"","time_out","","html-keyboard-response","184","487777","0.0-1.0-251.0-0.0","0","0","66339","","null","","","null","27","","","","","","","","","","","","","","","",""
"","ITI","","html-keyboard-response","185","488782","0.0-1.0-252.0","0","0","66339","","null","","","null","27","","","","","","","","","","","","","","","NaN",""
"","S1","","html-keyboard-response","186","489043","0.0-1.0-254.0","0","0","66339","","null","","","null","28","","","","","","","","","","","","","","","",""
"","ISI","","html-keyboard-response","187","490047","0.0-1.0-255.0","0","0","66339","","null","","","null","28","NaN","","","","","","","","","","","","","","",""
"","S2","","html-keyboard-response","188","490303","0.0-1.0-256.0","0","0","66339","","null","","","null","28","","NaN","","","","","","","","","","","","","",""
"","response","","html-keyboard-response","189","491109","0.0-1.0-257.0-0.0","0","0","66339","","804","","","75","28","","","1","28","training","adjacent","FE","6","5","L.jpg","M.jpg","1","0","0","",""
"","feedback","","html-keyboard-response","190","492120","0.0-1.0-258.0-0.0","0","0","66339","","null","","","null","28","","","","","","","","","","","","","","","",""
"","time_out","","html-keyboard-response","191","494128","0.0-1.0-260.0-0.0","0","0","66339","","null","","","null","28","","","","","","","","","","","","","","","",""
"","ITI","","html-keyboard-response","192","495138","0.0-1.0-261.0","0","0","66339","","null","","","null","28","","","","","","","","","","","","","","","NaN",""
"","S1","","html-keyboard-response","193","495400","0.0-1.0-263.0","0","0","66339","","null","","","null","29","","","","","","","","","","","","","","","",""
"","ISI","","html-keyboard-response","194","496410","0.0-1.0-264.0","0","0","66339","","null","","","null","29","NaN","","","","","","","","","","","","","","",""
"","S2","","html-keyboard-response","195","496670","0.0-1.0-265.0","0","0","66339","","null","","","null","29","","NaN","","","","","","","","","","","","","",""
"","response","","html-keyboard-response","196","497581","0.0-1.0-266.0-0.0","0","0","66339","","908","","","68","29","","","1","29","training","adjacent","GF","7","6","R.jpg","L.jpg","0","0","1","",""
"","feedback","","html-keyboard-response","197","498592","0.0-1.0-267.0-0.0","0","0","66339","","null","","","null","29","","","","","","","","","","","","","","","",""
"","ITI","","html-keyboard-response","198","499602","0.0-1.0-270.0","0","0","66339","","null","","","null","29","","","","","","","","","","","","","","","NaN",""
"","S1","","html-keyboard-response","199","499864","0.0-1.0-272.0","0","0","66339","","null","","","null","30","","","","","","","","","","","","","","","",""
"","ISI","","html-keyboard-response","200","500874","0.0-1.0-273.0","0","0","66339","","null","","","null","30","NaN","","","","","","","","","","","","","","",""
"","S2","","html-keyboard-response","201","501135","0.0-1.0-274.0","0","0","66339","","null","","","null","30","","NaN","","","","","","","","","","","","","",""
"","response","","html-keyboard-response","202","502301","0.0-1.0-275.0-0.0","0","0","66339","","1163","","","68","30","","","1","30","training","adjacent","ED","5","4","M.jpg","P.jpg","0","0","1","",""
"","feedback","","html-keyboard-response","203","503312","0.0-1.0-276.0-0.0","0","0","66339","","null","","","null","30","","","","","","","","","","","","","","","",""
"","ITI","","html-keyboard-response","204","504322","0.0-1.0-279.0","0","0","66339","","null","","","null","30","","","","","","","","","","","","","","","NaN",""
"","S1","","html-keyboard-response","205","504585","0.0-1.0-281.0","0","0","66339","","null","","","null","31","","","","","","","","","","","","","","","",""
"","ISI","","html-keyboard-response","206","505594","0.0-1.0-282.0","0","0","66339","","null","","","null","31","NaN","","","","","","","","","","","","","","",""
"","S2","","html-keyboard-response","207","505849","0.0-1.0-283.0","0","0","66339","","null","","","null","31","","NaN","","","","","","","","","","","","","",""
"","response","","html-keyboard-response","208","506901","0.0-1.0-284.0-0.0","0","0","66339","","1050","","","75","31","","","1","31","training","adjacent","CD","3","4","N.jpg","P.jpg","1","1","1","",""
"","feedback","","html-keyboard-response","209","507915","0.0-1.0-285.0-0.0","0","0","66339","","null","","","null","31","","","","","","","","","","","","","","","",""
"","ITI","","html-keyboard-response","210","508920","0.0-1.0-288.0","0","0","66339","","null","","","null","31","","","","","","","","","","","","","","","NaN",""
"","S1","","html-keyboard-response","211","509175","0.0-1.0-290.0","0","0","66339","","null","","","null","32","","","","","","","","","","","","","","","",""
"","ISI","","html-keyboard-response","212","510185","0.0-1.0-291.0","0","0","66339","","null","","","null","32","NaN","","","","","","","","","","","","","","",""
"","S2","","html-keyboard-response","213","510441","0.0-1.0-292.0","0","0","66339","","null","","","null","32","","NaN","","","","","","","","","","","","","",""
"","response","","html-keyboard-response","214","510990","0.0-1.0-293.0-0.0","0","0","66339","","546","","","75","32","","","1","32","training","adjacent","AB","1","2","O.jpg","Q.jpg","1","1","1","",""
"","feedback","","html-keyboard-response","215","512002","0.0-1.0-294.0-0.0","0","0","66339","","null","","","null","32","","","","","","","","","","","","","","","",""
"","ITI","","html-keyboard-response","216","513007","0.0-1.0-297.0","0","0","66339","","null","","","null","32","","","","","","","","","","","","","","","NaN",""
"","S1","","html-keyboard-response","217","513268","0.0-1.0-299.0","0","0","66339","","null","","","null","33","","","","","","","","","","","","","","","",""
"","ISI","","html-keyboard-response","218","514272","0.0-1.0-300.0","0","0","66339","","null","","","null","33","NaN","","","","","","","","","","","","","","",""
"","S2","","html-keyboard-response","219","514528","0.0-1.0-301.0","0","0","66339","","null","","","null","33","","NaN","","","","","","","","","","","","","",""
"","response","","html-keyboard-response","220","514989","0.0-1.0-302.0-0.0","0","0","66339","","460","","","75","33","","","1","33","training","adjacent","DE","4","5","P.jpg","M.jpg","1","1","1","",""
"","feedback","","html-keyboard-response","221","516002","0.0-1.0-303.0-0.0","0","0","66339","","null","","","null","33","","","","","","","","","","","","","","","",""
"","ITI","","html-keyboard-response","222","517007","0.0-1.0-306.0","0","0","66339","","null","","","null","33","","","","","","","","","","","","","","","NaN",""
"","S1","","html-keyboard-response","223","517268","0.0-1.0-308.0","0","0","66339","","null","","","null","34","","","","","","","","","","","","","","","",""
"","ISI","","html-keyboard-response","224","518272","0.0-1.0-309.0","0","0","66339","","null","","","null","34","NaN","","","","","","","","","","","","","","",""
"","S2","","html-keyboard-response","225","518528","0.0-1.0-310.0","0","0","66339","","null","","","null","34","","NaN","","","","","","","","","","","","","",""
"","response","","html-keyboard-response","226","519134","0.0-1.0-311.0-0.0","0","0","66339","","604","","","68","34","","","1","34","training","adjacent","GF","7","6","R.jpg","L.jpg","0","0","1","",""
"","feedback","","html-keyboard-response","227","520147","0.0-1.0-312.0-0.0","0","0","66339","","null","","","null","34","","","","","","","","","","","","","","","",""
"","ITI","","html-keyboard-response","228","521151","0.0-1.0-315.0","0","0","66339","","null","","","null","34","","","","","","","","","","","","","","","NaN",""
"","S1","","html-keyboard-response","229","521412","0.0-1.0-317.0","0","0","66339","","null","","","null","35","","","","","","","","","","","","","","","",""
"","ISI","","html-keyboard-response","230","522417","0.0-1.0-318.0","0","0","66339","","null","","","null","35","NaN","","","","","","","","","","","","","","",""
"","S2","","html-keyboard-response","231","522672","0.0-1.0-319.0","0","0","66339","","null","","","null","35","","NaN","","","","","","","","","","","","","",""
"","response","","html-keyboard-response","232","523117","0.0-1.0-320.0-0.0","0","0","66339","","443","","","75","35","","","1","35","training","adjacent","DE","4","5","P.jpg","M.jpg","1","1","1","",""
"","feedback","","html-keyboard-response","233","524129","0.0-1.0-321.0-0.0","0","0","66339","","null","","","null","35","","","","","","","","","","","","","","","",""
"","ITI","","html-keyboard-response","234","525139","0.0-1.0-324.0","0","0","66339","","null","","","null","35","","","","","","","","","","","","","","","NaN",""
"","S1","","html-keyboard-response","235","525401","0.0-1.0-326.0","0","0","66339","","null","","","null","36","","","","","","","","","","","","","","","",""
"","ISI","","html-keyboard-response","236","526411","0.0-1.0-327.0","0","0","66339","","null","","","null","36","NaN","","","","","","","","","","","","","","",""
"","S2","","html-keyboard-response","237","526672","0.0-1.0-328.0","0","0","66339","","null","","","null","36","","NaN","","","","","","","","","","","","","",""
"","response","","html-keyboard-response","238","527285","0.0-1.0-329.0-0.0","0","0","66339","","611","","","75","36","","","1","36","training","adjacent","AB","1","2","O.jpg","Q.jpg","1","1","1","",""
"","feedback","","html-keyboard-response","239","528297","0.0-1.0-330.0-0.0","0","0","66339","","null","","","null","36","","","","","","","","","","","","","","","",""
"","ITI","","html-keyboard-response","240","529308","0.0-1.0-333.0","0","0","66339","","null","","","null","36","","","","","","","","","","","","","","","NaN",""
"","S1","","html-keyboard-response","241","529569","0.0-1.0-335.0","0","0","66339","","null","","","null","37","","","","","","","","","","","","","","","",""
"","ISI","","html-keyboard-response","242","530579","0.0-1.0-336.0","0","0","66339","","null","","","null","37","NaN","","","","","","","","","","","","","","",""
"","S2","","html-keyboard-response","243","530840","0.0-1.0-337.0","0","0","66339","","null","","","null","37","","NaN","","","","","","","","","","","","","",""
"","response","","html-keyboard-response","244","531126","0.0-1.0-338.0-0.0","0","0","66339","","283","","","75","37","","","1","37","training","adjacent","FE","6","5","L.jpg","M.jpg","1","0","0","",""
"","feedback","","html-keyboard-response","245","532140","0.0-1.0-339.0-0.0","0","0","66339","","null","","","null","37","","","","","","","","","","","","","","","",""
"","time_out","","html-keyboard-response","246","534143","0.0-1.0-341.0-0.0","0","0","66339","","null","","","null","37","","","","","","","","","","","","","","","",""
"","ITI","","html-keyboard-response","247","535154","0.0-1.0-342.0","0","0","66339","","null","","","null","37","","","","","","","","","","","","","","","NaN",""
"","S1","","html-keyboard-response","248","535409","0.0-1.0-344.0","0","0","66339","","null","","","null","38","","","","","","","","","","","","","","","",""
"","ISI","","html-keyboard-response","249","536418","0.0-1.0-345.0","0","0","66339","","null","","","null","38","NaN","","","","","","","","","","","","","","",""
"","S2","","html-keyboard-response","250","536674","0.0-1.0-346.0","0","0","66339","","null","","","null","38","","NaN","","","","","","","","","","","","","",""
"","response","","html-keyboard-response","251","537598","0.0-1.0-347.0-0.0","0","0","66339","","921","","","75","38","","","1","38","training","adjacent","BC","2","3","Q.jpg","N.jpg","1","1","1","",""
"","feedback","","html-keyboard-response","252","538608","0.0-1.0-348.0-0.0","0","0","66339","","null","","","null","38","","","","","","","","","","","","","","","",""
"","ITI","","html-keyboard-response","253","539618","0.0-1.0-351.0","0","0","66339","","null","","","null","38","","","","","","","","","","","","","","","NaN",""
"","S1","","html-keyboard-response","254","539873","0.0-1.0-353.0","0","0","66339","","null","","","null","39","","","","","","","","","","","","","","","",""
"","ISI","","html-keyboard-response","255","540883","0.0-1.0-354.0","0","0","66339","","null","","","null","39","NaN","","","","","","","","","","","","","","",""
"","S2","","html-keyboard-response","256","541145","0.0-1.0-355.0","0","0","66339","","null","","","null","39","","NaN","","","","","","","","","","","","","",""
"","response","","html-keyboard-response","257","542406","0.0-1.0-356.0-0.0","0","0","66339","","1259","","","68","39","","","1","39","training","adjacent","CD","3","4","N.jpg","P.jpg","0","1","0","",""
"","feedback","","html-keyboard-response","258","543420","0.0-1.0-357.0-0.0","0","0","66339","","null","","","null","39","","","","","","","","","","","","","","","",""
"","time_out","","html-keyboard-response","259","545429","0.0-1.0-359.0-0.0","0","0","66339","","null","","","null","39","","","","","","","","","","","","","","","",""
"","ITI","","html-keyboard-response","260","546433","0.0-1.0-360.0","0","0","66339","","null","","","null","39","","","","","","","","","","","","","","","NaN",""
"","S1","","html-keyboard-response","261","546688","0.0-1.0-362.0","0","0","66339","","null","","","null","40","","","","","","","","","","","","","","","",""
"","ISI","","html-keyboard-response","262","547698","0.0-1.0-363.0","0","0","66339","","null","","","null","40","NaN","","","","","","","","","","","","","","",""
"","S2","","html-keyboard-response","263","547954","0.0-1.0-364.0","0","0","66339","","null","","","null","40","","NaN","","","","","","","","","","","","","",""
"","response","","html-keyboard-response","264","549390","0.0-1.0-365.0-0.0","0","0","66339","","1434","","","75","40","","","1","40","training","adjacent","DC","4","3","P.jpg","N.jpg","1","0","0","",""
"","feedback","","html-keyboard-response","265","550404","0.0-1.0-366.0-0.0","0","0","66339","","null","","","null","40","","","","","","","","","","","","","","","",""
"","time_out","","html-keyboard-response","266","552412","0.0-1.0-368.0-0.0","0","0","66339","","null","","","null","40","","","","","","","","","","","","","","","",""
"","ITI","","html-keyboard-response","267","553417","0.0-1.0-369.0","0","0","66339","","null","","","null","40","","","","","","","","","","","","","","","NaN",""
"","S1","","html-keyboard-response","268","553672","0.0-1.0-371.0","0","0","66339","","null","","","null","41","","","","","","","","","","","","","","","",""
"","ISI","","html-keyboard-response","269","554681","0.0-1.0-372.0","0","0","66339","","null","","","null","41","NaN","","","","","","","","","","","","","","",""
"","S2","","html-keyboard-response","270","554937","0.0-1.0-373.0","0","0","66339","","null","","","null","41","","NaN","","","","","","","","","","","","","",""
"","response","","html-keyboard-response","271","555942","0.0-1.0-374.0-0.0","0","0","66339","","1003","","","68","41","","","1","41","training","adjacent","CB","3","2","N.jpg","Q.jpg","0","0","1","",""
"","feedback","","html-keyboard-response","272","556952","0.0-1.0-375.0-0.0","0","0","66339","","null","","","null","41","","","","","","","","","","","","","","","",""
"","ITI","","html-keyboard-response","273","557962","0.0-1.0-378.0","0","0","66339","","null","","","null","41","","","","","","","","","","","","","","","NaN",""
"","S1","","html-keyboard-response","274","558217","0.0-1.0-380.0","0","0","66339","","null","","","null","42","","","","","","","","","","","","","","","",""
"","ISI","","html-keyboard-response","275","559227","0.0-1.0-381.0","0","0","66339","","null","","","null","42","NaN","","","","","","","","","","","","","","",""
"","S2","","html-keyboard-response","276","559489","0.0-1.0-382.0","0","0","66339","","null","","","null","42","","NaN","","","","","","","","","","","","","",""
"","response","","html-keyboard-response","277","560311","0.0-1.0-383.0-0.0","0","0","66339","","820","","","75","42","","","1","42","training","adjacent","EF","5","6","M.jpg","L.jpg","1","1","1","",""
"","feedback","","html-keyboard-response","278","561323","0.0-1.0-384.0-0.0","0","0","66339","","null","","","null","42","","","","","","","","","","","","","","","",""
"","ITI","","html-keyboard-response","279","562330","0.0-1.0-387.0","0","0","66339","","null","","","null","42","","","","","","","","","","","","","","","NaN",""
"","S1","","html-keyboard-response","280","562589","0.0-1.0-389.0","0","0","66339","","null","","","null","43","","","","","","","","","","","","","","","",""
"","ISI","","html-keyboard-response","281","563593","0.0-1.0-390.0","0","0","66339","","null","","","null","43","NaN","","","","","","","","","","","","","","",""
"","S2","","html-keyboard-response","282","563848","0.0-1.0-391.0","0","0","66339","","null","","","null","43","","NaN","","","","","","","","","","","","","",""
"","response","","html-keyboard-response","283","564874","0.0-1.0-392.0-0.0","0","0","66339","","1024","","","68","43","","","1","43","training","adjacent","ED","5","4","M.jpg","P.jpg","0","0","1","",""
"","feedback","","html-keyboard-response","284","565880","0.0-1.0-393.0-0.0","0","0","66339","","null","","","null","43","","","","","","","","","","","","","","","",""
"","ITI","","html-keyboard-response","285","566890","0.0-1.0-396.0","0","0","66339","","null","","","null","43","","","","","","","","","","","","","","","NaN",""
"","S1","","html-keyboard-response","286","567146","0.0-1.0-398.0","0","0","66339","","null","","","null","44","","","","","","","","","","","","","","","",""
"","ISI","","html-keyboard-response","287","568156","0.0-1.0-399.0","0","0","66339","","null","","","null","44","NaN","","","","","","","","","","","","","","",""
"","S2","","html-keyboard-response","288","568417","0.0-1.0-400.0","0","0","66339","","null","","","null","44","","NaN","","","","","","","","","","","","","",""
"","response","","html-keyboard-response","289","569463","0.0-1.0-401.0-0.0","0","0","66339","","1043","","","75","44","","","1","44","training","adjacent","FE","6","5","L.jpg","M.jpg","1","0","0","",""
"","feedback","","html-keyboard-response","290","570477","0.0-1.0-402.0-0.0","0","0","66339","","null","","","null","44","","","","","","","","","","","","","","","",""
"","time_out","","html-keyboard-response","291","572481","0.0-1.0-404.0-0.0","0","0","66339","","null","","","null","44","","","","","","","","","","","","","","","",""
"","ITI","","html-keyboard-response","292","573491","0.0-1.0-405.0","0","0","66339","","null","","","null","44","","","","","","","","","","","","","","","NaN",""
"","S1","","html-keyboard-response","293","573746","0.0-1.0-407.0","0","0","66339","","null","","","null","45","","","","","","","","","","","","","","","",""
"","ISI","","html-keyboard-response","294","574756","0.0-1.0-408.0","0","0","66339","","null","","","null","45","NaN","","","","","","","","","","","","","","",""
"","S2","","html-keyboard-response","295","575012","0.0-1.0-409.0","0","0","66339","","null","","","null","45","","NaN","","","","","","","","","","","","","",""
"","response","","html-keyboard-response","296","575575","0.0-1.0-410.0-0.0","0","0","66339","","562","","","75","45","","","1","45","training","adjacent","EF","5","6","M.jpg","L.jpg","1","1","1","",""
"","feedback","","html-keyboard-response","297","576587","0.0-1.0-411.0-0.0","0","0","66339","","null","","","null","45","","","","","","","","","","","","","","","",""
"","ITI","","html-keyboard-response","298","577594","0.0-1.0-414.0","0","0","66339","","null","","","null","45","","","","","","","","","","","","","","","NaN",""
"","S1","","html-keyboard-response","299","577850","0.0-1.0-416.0","0","0","66339","","null","","","null","46","","","","","","","","","","","","","","","",""
"","ISI","","html-keyboard-response","300","578860","0.0-1.0-417.0","0","0","66339","","null","","","null","46","NaN","","","","","","","","","","","","","","",""
"","S2","","html-keyboard-response","301","579122","0.0-1.0-418.0","0","0","66339","","null","","","null","46","","NaN","","","","","","","","","","","","","",""
"","response","","html-keyboard-response","302","580215","0.0-1.0-419.0-0.0","0","0","66339","","1091","","","68","46","","","1","46","training","adjacent","AB","1","2","O.jpg","Q.jpg","0","1","0","",""
"","feedback","","html-keyboard-response","303","581229","0.0-1.0-420.0-0.0","0","0","66339","","null","","","null","46","","","","","","","","","","","","","","","",""
"","time_out","","html-keyboard-response","304","583237","0.0-1.0-422.0-0.0","0","0","66339","","null","","","null","46","","","","","","","","","","","","","","","",""
"","ITI","","html-keyboard-response","305","584242","0.0-1.0-423.0","0","0","66339","","null","","","null","46","","","","","","","","","","","","","","","NaN",""
"","S1","","html-keyboard-response","306","584497","0.0-1.0-425.0","0","0","66339","","null","","","null","47","","","","","","","","","","","","","","","",""
"","ISI","","html-keyboard-response","307","585507","0.0-1.0-426.0","0","0","66339","","null","","","null","47","NaN","","","","","","","","","","","","","","",""
"","S2","","html-keyboard-response","308","585763","0.0-1.0-427.0","0","0","66339","","null","","","null","47","","NaN","","","","","","","","","","","","","",""
"","response","","html-keyboard-response","309","586408","0.0-1.0-428.0-0.0","0","0","66339","","642","","","75","47","","","1","47","training","adjacent","ED","5","4","M.jpg","P.jpg","1","0","0","",""
"","feedback","","html-keyboard-response","310","587417","0.0-1.0-429.0-0.0","0","0","66339","","null","","","null","47","","","","","","","","","","","","","","","",""
"","time_out","","html-keyboard-response","311","589426","0.0-1.0-431.0-0.0","0","0","66339","","null","","","null","47","","","","","","","","","","","","","","","",""
"","ITI","","html-keyboard-response","312","590436","0.0-1.0-432.0","0","0","66339","","null","","","null","47","","","","","","","","","","","","","","","NaN",""
"","block_over","","html-keyboard-response","313","596696","0.0-1.0-433.0-0.0","0","0","66339","","6257","","","32","47","","","","","","","","","","","","","","","",""
"","S1","","html-keyboard-response","314","596955","0.0-1.0-434.0","0","0","66339","","null","","","null","48","","","","","","","","","","","","","","","",""
"","ISI","","html-keyboard-response","315","597965","0.0-1.0-435.0","0","0","66339","","null","","","null","48","NaN","","","","","","","","","","","","","","",""
"","S2","","html-keyboard-response","316","598227","0.0-1.0-436.0","0","0","66339","","null","","","null","48","","NaN","","","","","","","","","","","","","",""
"","response","","html-keyboard-response","317","599008","0.0-1.0-437.0-0.0","0","0","66339","","779","","","68","48","","","2","48","training","adjacent","GF","7","6","R.jpg","L.jpg","0","0","1","",""
"","feedback","","html-keyboard-response","318","600014","0.0-1.0-438.0-0.0","0","0","66339","","null","","","null","48","","","","","","","","","","","","","","","",""
"","ITI","","html-keyboard-response","319","601018","0.0-1.0-441.0","0","0","66339","","null","","","null","48","","","","","","","","","","","","","","","NaN",""
"","S1","","html-keyboard-response","320","601274","0.0-1.0-443.0","0","0","66339","","null","","","null","49","","","","","","","","","","","","","","","",""
"","ISI","","html-keyboard-response","321","602284","0.0-1.0-444.0","0","0","66339","","null","","","null","49","NaN","","","","","","","","","","","","","","",""
"","S2","","html-keyboard-response","322","602540","0.0-1.0-445.0","0","0","66339","","null","","","null","49","","NaN","","","","","","","","","","","","","",""
"","response","","html-keyboard-response","323","603168","0.0-1.0-446.0-0.0","0","0","66339","","626","","","68","49","","","2","49","training","adjacent","GF","7","6","R.jpg","L.jpg","0","0","1","",""
"","feedback","","html-keyboard-response","324","604182","0.0-1.0-447.0-0.0","0","0","66339","","null","","","null","49","","","","","","","","","","","","","","","",""
"","ITI","","html-keyboard-response","325","605186","0.0-1.0-450.0","0","0","66339","","null","","","null","49","","","","","","","","","","","","","","","NaN",""
"","S1","","html-keyboard-response","326","605442","0.0-1.0-452.0","0","0","66339","","null","","","null","50","","","","","","","","","","","","","","","",""
"","ISI","","html-keyboard-response","327","606453","0.0-1.0-453.0","0","0","66339","","null","","","null","50","NaN","","","","","","","","","","","","","","",""
"","S2","","html-keyboard-response","328","606708","0.0-1.0-454.0","0","0","66339","","null","","","null","50","","NaN","","","","","","","","","","","","","",""
"","response","","html-keyboard-response","329","607624","0.0-1.0-455.0-0.0","0","0","66339","","913","","","75","50","","","2","50","training","adjacent","CB","3","2","N.jpg","Q.jpg","1","0","0","",""
"","feedback","","html-keyboard-response","330","608635","0.0-1.0-456.0-0.0","0","0","66339","","null","","","null","50","","","","","","","","","","","","","","","",""
"","time_out","","html-keyboard-response","331","610644","0.0-1.0-458.0-0.0","0","0","66339","","null","","","null","50","","","","","","","","","","","","","","","",""
"","ITI","","html-keyboard-response","332","611654","0.0-1.0-459.0","0","0","66339","","null","","","null","50","","","","","","","","","","","","","","","NaN",""
"","S1","","html-keyboard-response","333","611915","0.0-1.0-461.0","0","0","66339","","null","","","null","51","","","","","","","","","","","","","","","",""
"","ISI","","html-keyboard-response","334","612925","0.0-1.0-462.0","0","0","66339","","null","","","null","51","NaN","","","","","","","","","","","","","","",""
"","S2","","html-keyboard-response","335","613186","0.0-1.0-463.0","0","0","66339","","null","","","null","51","","NaN","","","","","","","","","","","","","",""
"","response","","html-keyboard-response","336","614040","0.0-1.0-464.0-0.0","0","0","66339","","851","","","75","51","","","2","51","training","adjacent","DC","4","3","P.jpg","N.jpg","1","0","0","",""
"","feedback","","html-keyboard-response","337","615050","0.0-1.0-465.0-0.0","0","0","66339","","null","","","null","51","","","","","","","","","","","","","","","",""
"","time_out","","html-keyboard-response","338","617058","0.0-1.0-467.0-0.0","0","0","66339","","null","","","null","51","","","","","","","","","","","","","","","",""
"","ITI","","html-keyboard-response","339","618069","0.0-1.0-468.0","0","0","66339","","null","","","null","51","","","","","","","","","","","","","","","NaN",""
"","S1","","html-keyboard-response","340","618324","0.0-1.0-470.0","0","0","66339","","null","","","null","52","","","","","","","","","","","","","","","",""
"","ISI","","html-keyboard-response","341","619334","0.0-1.0-471.0","0","0","66339","","null","","","null","52","NaN","","","","","","","","","","","","","","",""
"","S2","","html-keyboard-response","342","619595","0.0-1.0-472.0","0","0","66339","","null","","","null","52","","NaN","","","","","","","","","","","","","",""
"","response","","html-keyboard-response","343","620144","0.0-1.0-473.0-0.0","0","0","66339","","547","","","68","52","","","2","52","training","adjacent","CD","3","4","N.jpg","P.jpg","0","1","0","",""
"","feedback","","html-keyboard-response","344","621157","0.0-1.0-474.0-0.0","0","0","66339","","null","","","null","52","","","","","","","","","","","","","","","",""
"","time_out","","html-keyboard-response","345","623165","0.0-1.0-476.0-0.0","0","0","66339","","null","","","null","52","","","","","","","","","","","","","","","",""
"","ITI","","html-keyboard-response","346","624170","0.0-1.0-477.0","0","0","66339","","null","","","null","52","","","","","","","","","","","","","","","NaN",""
"","S1","","html-keyboard-response","347","624431","0.0-1.0-479.0","0","0","66339","","null","","","null","53","","","","","","","","","","","","","","","",""
"","ISI","","html-keyboard-response","348","625435","0.0-1.0-480.0","0","0","66339","","null","","","null","53","NaN","","","","","","","","","","","","","","",""
"","S2","","html-keyboard-response","349","625691","0.0-1.0-481.0","0","0","66339","","null","","","null","53","","NaN","","","","","","","","","","","","","",""
"","response","","html-keyboard-response","350","626616","0.0-1.0-482.0-0.0","0","0","66339","","924","","","68","53","","","2","53","training","adjacent","GF","7","6","R.jpg","L.jpg","0","0","1","",""
"","feedback","","html-keyboard-response","351","627630","0.0-1.0-483.0-0.0","0","0","66339","","null","","","null","53","","","","","","","","","","","","","","","",""
"","ITI","","html-keyboard-response","352","628634","0.0-1.0-486.0","0","0","66339","","null","","","null","53","","","","","","","","","","","","","","","NaN",""
"","S1","","html-keyboard-response","353","628891","0.0-1.0-488.0","0","0","66339","","null","","","null","54","","","","","","","","","","","","","","","",""
"","ISI","","html-keyboard-response","354","629899","0.0-1.0-489.0","0","0","66339","","null","","","null","54","NaN","","","","","","","","","","","","","","",""
"","S2","","html-keyboard-response","355","630155","0.0-1.0-490.0","0","0","66339","","null","","","null","54","","NaN","","","","","","","","","","","","","",""
"","response","","html-keyboard-response","356","631305","0.0-1.0-491.0-0.0","0","0","66339","","1147","","","68","54","","","2","54","training","adjacent","DC","4","3","P.jpg","N.jpg","0","0","1","",""
"","feedback","","html-keyboard-response","357","632314","0.0-1.0-492.0-0.0","0","0","66339","","null","","","null","54","","","","","","","","","","","","","","","",""
"","ITI","","html-keyboard-response","358","633325","0.0-1.0-495.0","0","0","66339","","null","","","null","54","","","","","","","","","","","","","","","NaN",""
"","S1","","html-keyboard-response","359","633580","0.0-1.0-497.0","0","0","66339","","null","","","null","55","","","","","","","","","","","","","","","",""
"","ISI","","html-keyboard-response","360","634590","0.0-1.0-498.0","0","0","66339","","null","","","null","55","NaN","","","","","","","","","","","","","","",""
"","S2","","html-keyboard-response","361","634851","0.0-1.0-499.0","0","0","66339","","null","","","null","55","","NaN","","","","","","","","","","","","","",""
"","response","","html-keyboard-response","362","635473","0.0-1.0-500.0-0.0","0","0","66339","","619","","","75","55","","","2","55","training","adjacent","CD","3","4","N.jpg","P.jpg","1","1","1","",""
"","feedback","","html-keyboard-response","363","636483","0.0-1.0-501.0-0.0","0","0","66339","","null","","","null","55","","","","","","","","","","","","","","","",""
"","ITI","","html-keyboard-response","364","637493","0.0-1.0-504.0","0","0","66339","","null","","","null","55","","","","","","","","","","","","","","","NaN",""
"","S1","","html-keyboard-response","365","637748","0.0-1.0-506.0","0","0","66339","","null","","","null","56","","","","","","","","","","","","","","","",""
"","ISI","","html-keyboard-response","366","638758","0.0-1.0-507.0","0","0","66339","","null","","","null","56","NaN","","","","","","","","","","","","","","",""
"","S2","","html-keyboard-response","367","639014","0.0-1.0-508.0","0","0","66339","","null","","","null","56","","NaN","","","","","","","","","","","","","",""
"","response","","html-keyboard-response","368","640041","0.0-1.0-509.0-0.0","0","0","66339","","1025","","","75","56","","","2","56","training","adjacent","FG","6","7","L.jpg","R.jpg","1","1","1","",""
"","feedback","","html-keyboard-response","369","641051","0.0-1.0-510.0-0.0","0","0","66339","","null","","","null","56","","","","","","","","","","","","","","","",""
"","ITI","","html-keyboard-response","370","642061","0.0-1.0-513.0","0","0","66339","","null","","","null","56","","","","","","","","","","","","","","","NaN",""
"","S1","","html-keyboard-response","371","642317","0.0-1.0-515.0","0","0","66339","","null","","","null","57","","","","","","","","","","","","","","","",""
"","ISI","","html-keyboard-response","372","643327","0.0-1.0-516.0","0","0","66339","","null","","","null","57","NaN","","","","","","","","","","","","","","",""
"","S2","","html-keyboard-response","373","643588","0.0-1.0-517.0","0","0","66339","","null","","","null","57","","NaN","","","","","","","","","","","","","",""
"","response","","html-keyboard-response","374","644673","0.0-1.0-518.0-0.0","0","0","66339","","1082","","","68","57","","","2","57","training","adjacent","FE","6","5","L.jpg","M.jpg","0","0","1","",""
"","feedback","","html-keyboard-response","375","645684","0.0-1.0-519.0-0.0","0","0","66339","","null","","","null","57","","","","","","","","","","","","","","","",""
"","ITI","","html-keyboard-response","376","646694","0.0-1.0-522.0","0","0","66339","","null","","","null","57","","","","","","","","","","","","","","","NaN",""
"","S1","","html-keyboard-response","377","646949","0.0-1.0-524.0","0","0","66339","","null","","","null","58","","","","","","","","","","","","","","","",""
"","ISI","","html-keyboard-response","378","647959","0.0-1.0-525.0","0","0","66339","","null","","","null","58","NaN","","","","","","","","","","","","","","",""
"","S2","","html-keyboard-response","379","648221","0.0-1.0-526.0","0","0","66339","","null","","","null","58","","NaN","","","","","","","","","","","","","",""
"","response","","html-keyboard-response","380","648793","0.0-1.0-527.0-0.0","0","0","66339","","570","","","75","58","","","2","58","training","adjacent","EF","5","6","M.jpg","L.jpg","1","1","1","",""
"","feedback","","html-keyboard-response","381","649805","0.0-1.0-528.0-0.0","0","0","66339","","null","","","null","58","","","","","","","","","","","","","","","",""
"","ITI","","html-keyboard-response","382","650815","0.0-1.0-531.0","0","0","66339","","null","","","null","58","","","","","","","","","","","","","","","NaN",""
"","S1","","html-keyboard-response","383","651077","0.0-1.0-533.0","0","0","66339","","null","","","null","59","","","","","","","","","","","","","","","",""
"","ISI","","html-keyboard-response","384","652087","0.0-1.0-534.0","0","0","66339","","null","","","null","59","NaN","","","","","","","","","","","","","","",""
"","S2","","html-keyboard-response","385","652348","0.0-1.0-535.0","0","0","66339","","null","","","null","59","","NaN","","","","","","","","","","","","","",""
"","response","","html-keyboard-response","386","652985","0.0-1.0-536.0-0.0","0","0","66339","","635","","","75","59","","","2","59","training","adjacent","CB","3","2","N.jpg","Q.jpg","1","0","0","",""
"","feedback","","html-keyboard-response","387","653997","0.0-1.0-537.0-0.0","0","0","66339","","null","","","null","59","","","","","","","","","","","","","","","",""
"","time_out","","html-keyboard-response","388","656005","0.0-1.0-539.0-0.0","0","0","66339","","null","","","null","59","","","","","","","","","","","","","","","",""
"","ITI","","html-keyboard-response","389","657015","0.0-1.0-540.0","0","0","66339","","null","","","null","59","","","","","","","","","","","","","","","NaN",""
"","S1","","html-keyboard-response","390","657277","0.0-1.0-542.0","0","0","66339","","null","","","null","60","","","","","","","","","","","","","","","",""
"","ISI","","html-keyboard-response","391","658287","0.0-1.0-543.0","0","0","66339","","null","","","null","60","NaN","","","","","","","","","","","","","","",""
"","S2","","html-keyboard-response","392","658548","0.0-1.0-544.0","0","0","66339","","null","","","null","60","","NaN","","","","","","","","","","","","","",""
"","response","","html-keyboard-response","393","659450","0.0-1.0-545.0-0.0","0","0","66339","","899","","","75","60","","","2","60","training","adjacent","FG","6","7","L.jpg","R.jpg","1","1","1","",""
"","feedback","","html-keyboard-response","394","660464","0.0-1.0-546.0-0.0","0","0","66339","","null","","","null","60","","","","","","","","","","","","","","","",""
"","ITI","","html-keyboard-response","395","661468","0.0-1.0-549.0","0","0","66339","","null","","","null","60","","","","","","","","","","","","","","","NaN",""
"","S1","","html-keyboard-response","396","661724","0.0-1.0-551.0","0","0","66339","","null","","","null","61","","","","","","","","","","","","","","","",""
"","ISI","","html-keyboard-response","397","662733","0.0-1.0-552.0","0","0","66339","","null","","","null","61","NaN","","","","","","","","","","","","","","",""
"","S2","","html-keyboard-response","398","662989","0.0-1.0-553.0","0","0","66339","","null","","","null","61","","NaN","","","","","","","","","","","","","",""
"","response","","html-keyboard-response","399","663962","0.0-1.0-554.0-0.0","0","0","66339","","970","","","68","61","","","2","61","training","adjacent","BA","2","1","Q.jpg","O.jpg","0","0","1","",""
"","feedback","","html-keyboard-response","400","664974","0.0-1.0-555.0-0.0","0","0","66339","","null","","","null","61","","","","","","","","","","","","","","","",""
"","ITI","","html-keyboard-response","401","665983","0.0-1.0-558.0","0","0","66339","","null","","","null","61","","","","","","","","","","","","","","","NaN",""
"","S1","","html-keyboard-response","402","666246","0.0-1.0-560.0","0","0","66339","","null","","","null","62","","","","","","","","","","","","","","","",""
"","ISI","","html-keyboard-response","403","667256","0.0-1.0-561.0","0","0","66339","","null","","","null","62","NaN","","","","","","","","","","","","","","",""
"","S2","","html-keyboard-response","404","667516","0.0-1.0-562.0","0","0","66339","","null","","","null","62","","NaN","","","","","","","","","","","","","",""
"","response","","html-keyboard-response","405","668490","0.0-1.0-563.0-0.0","0","0","66339","","971","","","68","62","","","2","62","training","adjacent","GF","7","6","R.jpg","L.jpg","0","0","1","",""
"","feedback","","html-keyboard-response","406","669502","0.0-1.0-564.0-0.0","0","0","66339","","null","","","null","62","","","","","","","","","","","","","","","",""
"","ITI","","html-keyboard-response","407","670511","0.0-1.0-567.0","0","0","66339","","null","","","null","62","","","","","","","","","","","","","","","NaN",""
"","S1","","html-keyboard-response","408","670774","0.0-1.0-569.0","0","0","66339","","null","","","null","63","","","","","","","","","","","","","","","",""
"","ISI","","html-keyboard-response","409","671784","0.0-1.0-570.0","0","0","66339","","null","","","null","63","NaN","","","","","","","","","","","","","","",""
"","S2","","html-keyboard-response","410","672045","0.0-1.0-571.0","0","0","66339","","null","","","null","63","","NaN","","","","","","","","","","","","","",""
"","response","","html-keyboard-response","411","672530","0.0-1.0-572.0-0.0","0","0","66339","","483","","","75","63","","","2","63","training","adjacent","EF","5","6","M.jpg","L.jpg","1","1","1","",""
"","feedback","","html-keyboard-response","412","673543","0.0-1.0-573.0-0.0","0","0","66339","","null","","","null","63","","","","","","","","","","","","","","","",""
"","ITI","","html-keyboard-response","413","674548","0.0-1.0-576.0","0","0","66339","","null","","","null","63","","","","","","","","","","","","","","","NaN",""
"","S1","","html-keyboard-response","414","674808","0.0-1.0-578.0","0","0","66339","","null","","","null","64","","","","","","","","","","","","","","","",""
"","ISI","","html-keyboard-response","415","675812","0.0-1.0-579.0","0","0","66339","","null","","","null","64","NaN","","","","","","","","","","","","","","",""
"","S2","","html-keyboard-response","416","676068","0.0-1.0-580.0","0","0","66339","","null","","","null","64","","NaN","","","","","","","","","","","","","",""
"","response","","html-keyboard-response","417","676714","0.0-1.0-581.0-0.0","0","0","66339","","644","","","68","64","","","2","64","training","adjacent","FE","6","5","L.jpg","M.jpg","0","0","1","",""
"","feedback","","html-keyboard-response","418","677728","0.0-1.0-582.0-0.0","0","0","66339","","null","","","null","64","","","","","","","","","","","","","","","",""
"","ITI","","html-keyboard-response","419","678732","0.0-1.0-585.0","0","0","66339","","null","","","null","64","","","","","","","","","","","","","","","NaN",""
"","S1","","html-keyboard-response","420","678988","0.0-1.0-587.0","0","0","66339","","null","","","null","65","","","","","","","","","","","","","","","",""
"","ISI","","html-keyboard-response","421","679998","0.0-1.0-588.0","0","0","66339","","null","","","null","65","NaN","","","","","","","","","","","","","","",""
"","S2","","html-keyboard-response","422","680253","0.0-1.0-589.0","0","0","66339","","null","","","null","65","","NaN","","","","","","","","","","","","","",""
"","response","","html-keyboard-response","423","681570","0.0-1.0-590.0-0.0","0","0","66339","","1315","","","75","65","","","2","65","training","adjacent","FG","6","7","L.jpg","R.jpg","1","1","1","",""
"","feedback","","html-keyboard-response","424","682581","0.0-1.0-591.0-0.0","0","0","66339","","null","","","null","65","","","","","","","","","","","","","","","",""
"","ITI","","html-keyboard-response","425","683591","0.0-1.0-594.0","0","0","66339","","null","","","null","65","","","","","","","","","","","","","","","NaN",""
"","S1","","html-keyboard-response","426","683852","0.0-1.0-596.0","0","0","66339","","null","","","null","66","","","","","","","","","","","","","","","",""
"","ISI","","html-keyboard-response","427","684863","0.0-1.0-597.0","0","0","66339","","null","","","null","66","NaN","","","","","","","","","","","","","","",""
"","S2","","html-keyboard-response","428","685118","0.0-1.0-598.0","0","0","66339","","null","","","null","66","","NaN","","","","","","","","","","","","","",""
"","response","","html-keyboard-response","429","686250","0.0-1.0-599.0-0.0","0","0","66339","","1130","","","68","66","","","2","66","training","adjacent","BA","2","1","Q.jpg","O.jpg","0","0","1","",""
"","feedback","","html-keyboard-response","430","687260","0.0-1.0-600.0-0.0","0","0","66339","","null","","","null","66","","","","","","","","","","","","","","","",""
"","ITI","","html-keyboard-response","431","688270","0.0-1.0-603.0","0","0","66339","","null","","","null","66","","","","","","","","","","","","","","","NaN",""
"","S1","","html-keyboard-response","432","688526","0.0-1.0-605.0","0","0","66339","","null","","","null","67","","","","","","","","","","","","","","","",""
"","ISI","","html-keyboard-response","433","689536","0.0-1.0-606.0","0","0","66339","","null","","","null","67","NaN","","","","","","","","","","","","","","",""
"","S2","","html-keyboard-response","434","689797","0.0-1.0-607.0","0","0","66339","","null","","","null","67","","NaN","","","","","","","","","","","","","",""
"","response","","html-keyboard-response","435","690778","0.0-1.0-608.0-0.0","0","0","66339","","978","","","75","67","","","2","67","training","adjacent","BC","2","3","Q.jpg","N.jpg","1","1","1","",""
"","feedback","","html-keyboard-response","436","691790","0.0-1.0-609.0-0.0","0","0","66339","","null","","","null","67","","","","","","","","","","","","","","","",""
"","ITI","","html-keyboard-response","437","692799","0.0-1.0-612.0","0","0","66339","","null","","","null","67","","","","","","","","","","","","","","","NaN",""
"","S1","","html-keyboard-response","438","693053","0.0-1.0-614.0","0","0","66339","","null","","","null","68","","","","","","","","","","","","","","","",""
"","ISI","","html-keyboard-response","439","694064","0.0-1.0-615.0","0","0","66339","","null","","","null","68","NaN","","","","","","","","","","","","","","",""
"","S2","","html-keyboard-response","440","694325","0.0-1.0-616.0","0","0","66339","","null","","","null","68","","NaN","","","","","","","","","","","","","",""
"","response","","html-keyboard-response","441","695483","0.0-1.0-617.0-0.0","0","0","66339","","1155","","","75","68","","","2","68","training","adjacent","AB","1","2","O.jpg","Q.jpg","1","1","1","",""
"","feedback","","html-keyboard-response","442","696496","0.0-1.0-618.0-0.0","0","0","66339","","null","","","null","68","","","","","","","","","","","","","","","",""
"","ITI","","html-keyboard-response","443","697501","0.0-1.0-621.0","0","0","66339","","null","","","null","68","","","","","","","","","","","","","","","NaN",""
"","S1","","html-keyboard-response","444","697756","0.0-1.0-623.0","0","0","66339","","null","","","null","69","","","","","","","","","","","","","","","",""
"","ISI","","html-keyboard-response","445","698766","0.0-1.0-624.0","0","0","66339","","null","","","null","69","NaN","","","","","","","","","","","","","","",""
"","S2","","html-keyboard-response","446","699021","0.0-1.0-625.0","0","0","66339","","null","","","null","69","","NaN","","","","","","","","","","","","","",""
"","response","","html-keyboard-response","447","699779","0.0-1.0-626.0-0.0","0","0","66339","","755","","","68","69","","","2","69","training","adjacent","BC","2","3","Q.jpg","N.jpg","0","1","0","",""
"","feedback","","html-keyboard-response","448","700793","0.0-1.0-627.0-0.0","0","0","66339","","null","","","null","69","","","","","","","","","","","","","","","",""
"","time_out","","html-keyboard-response","449","702801","0.0-1.0-629.0-0.0","0","0","66339","","null","","","null","69","","","","","","","","","","","","","","","",""
"","ITI","","html-keyboard-response","450","703805","0.0-1.0-630.0","0","0","66339","","null","","","null","69","","","","","","","","","","","","","","","NaN",""
"","S1","","html-keyboard-response","451","704060","0.0-1.0-632.0","0","0","66339","","null","","","null","70","","","","","","","","","","","","","","","",""
"","ISI","","html-keyboard-response","452","705070","0.0-1.0-633.0","0","0","66339","","null","","","null","70","NaN","","","","","","","","","","","","","","",""
"","S2","","html-keyboard-response","453","705326","0.0-1.0-634.0","0","0","66339","","null","","","null","70","","NaN","","","","","","","","","","","","","",""
"","response","","html-keyboard-response","454","706571","0.0-1.0-635.0-0.0","0","0","66339","","1242","","","68","70","","","2","70","training","adjacent","DE","4","5","P.jpg","M.jpg","0","1","0","",""
"","feedback","","html-keyboard-response","455","707584","0.0-1.0-636.0-0.0","0","0","66339","","null","","","null","70","","","","","","","","","","","","","","","",""
"","time_out","","html-keyboard-response","456","709593","0.0-1.0-638.0-0.0","0","0","66339","","null","","","null","70","","","","","","","","","","","","","","","",""
"","ITI","","html-keyboard-response","457","710597","0.0-1.0-639.0","0","0","66339","","null","","","null","70","","","","","","","","","","","","","","","NaN",""
"","S1","","html-keyboard-response","458","710853","0.0-1.0-641.0","0","0","66339","","null","","","null","71","","","","","","","","","","","","","","","",""
"","ISI","","html-keyboard-response","459","711863","0.0-1.0-642.0","0","0","66339","","null","","","null","71","NaN","","","","","","","","","","","","","","",""
"","S2","","html-keyboard-response","460","712118","0.0-1.0-643.0","0","0","66339","","null","","","null","71","","NaN","","","","","","","","","","","","","",""
"","response","","html-keyboard-response","461","712444","0.0-1.0-644.0-0.0","0","0","66339","","324","","","75","71","","","2","71","training","adjacent","DE","4","5","P.jpg","M.jpg","1","1","1","",""
"","feedback","","html-keyboard-response","462","713453","0.0-1.0-645.0-0.0","0","0","66339","","null","","","null","71","","","","","","","","","","","","","","","",""
"","ITI","","html-keyboard-response","463","714463","0.0-1.0-648.0","0","0","66339","","null","","","null","71","","","","","","","","","","","","","","","NaN",""
"","S1","","html-keyboard-response","464","714719","0.0-1.0-650.0","0","0","66339","","null","","","null","72","","","","","","","","","","","","","","","",""
"","ISI","","html-keyboard-response","465","715729","0.0-1.0-651.0","0","0","66339","","null","","","null","72","NaN","","","","","","","","","","","","","","",""
"","S2","","html-keyboard-response","466","715990","0.0-1.0-652.0","0","0","66339","","null","","","null","72","","NaN","","","","","","","","","","","","","",""
"","response","","html-keyboard-response","467","717403","0.0-1.0-653.0-0.0","0","0","66339","","1411","","","68","72","","","2","72","training","adjacent","AB","1","2","O.jpg","Q.jpg","0","1","0","",""
"","feedback","","html-keyboard-response","468","718417","0.0-1.0-654.0-0.0","0","0","66339","","null","","","null","72","","","","","","","","","","","","","","","",""
"","time_out","","html-keyboard-response","469","720425","0.0-1.0-656.0-0.0","0","0","66339","","null","","","null","72","","","","","","","","","","","","","","","",""
"","ITI","","html-keyboard-response","470","721430","0.0-1.0-657.0","0","0","66339","","null","","","null","72","","","","","","","","","","","","","","","NaN",""
"","S1","","html-keyboard-response","471","721685","0.0-1.0-659.0","0","0","66339","","null","","","null","73","","","","","","","","","","","","","","","",""
"","ISI","","html-keyboard-response","472","722695","0.0-1.0-660.0","0","0","66339","","null","","","null","73","NaN","","","","","","","","","","","","","","",""
"","S2","","html-keyboard-response","473","722950","0.0-1.0-661.0","0","0","66339","","null","","","null","73","","NaN","","","","","","","","","","","","","",""
"","response","","html-keyboard-response","474","723756","0.0-1.0-662.0-0.0","0","0","66339","","803","","","75","73","","","2","73","training","adjacent","CB","3","2","N.jpg","Q.jpg","1","0","0","",""
"","feedback","","html-keyboard-response","475","724767","0.0-1.0-663.0-0.0","0","0","66339","","null","","","null","73","","","","","","","","","","","","","","","",""
"","time_out","","html-keyboard-response","476","726776","0.0-1.0-665.0-0.0","0","0","66339","","null","","","null","73","","","","","","","","","","","","","","","",""
"","ITI","","html-keyboard-response","477","727782","0.0-1.0-666.0","0","0","66339","","null","","","null","73","","","","","","","","","","","","","","","NaN",""
"","S1","","html-keyboard-response","478","728042","0.0-1.0-668.0","0","0","66339","","null","","","null","74","","","","","","","","","","","","","","","",""
"","ISI","","html-keyboard-response","479","729046","0.0-1.0-669.0","0","0","66339","","null","","","null","74","NaN","","","","","","","","","","","","","","",""
"","S2","","html-keyboard-response","480","729301","0.0-1.0-670.0","0","0","66339","","null","","","null","74","","NaN","","","","","","","","","","","","","",""
"","response","","html-keyboard-response","481","729532","0.0-1.0-671.0-0.0","0","0","66339","","228","","","75","74","","","2","74","training","adjacent","DE","4","5","P.jpg","M.jpg","1","1","1","",""
"","feedback","","html-keyboard-response","482","730544","0.0-1.0-672.0-0.0","0","0","66339","","null","","","null","74","","","","","","","","","","","","","","","",""
"","ITI","","html-keyboard-response","483","731554","0.0-1.0-675.0","0","0","66339","","null","","","null","74","","","","","","","","","","","","","","","NaN",""
"","S1","","html-keyboard-response","484","731815","0.0-1.0-677.0","0","0","66339","","null","","","null","75","","","","","","","","","","","","","","","",""
"","ISI","","html-keyboard-response","485","732825","0.0-1.0-678.0","0","0","66339","","null","","","null","75","NaN","","","","","","","","","","","","","","",""
"","S2","","html-keyboard-response","486","733086","0.0-1.0-679.0","0","0","66339","","null","","","null","75","","NaN","","","","","","","","","","","","","",""
"","response","","html-keyboard-response","487","733724","0.0-1.0-680.0-0.0","0","0","66339","","635","","","75","75","","","2","75","training","adjacent","AB","1","2","O.jpg","Q.jpg","1","1","1","",""
"","feedback","","html-keyboard-response","488","734735","0.0-1.0-681.0-0.0","0","0","66339","","null","","","null","75","","","","","","","","","","","","","","","",""
"","ITI","","html-keyboard-response","489","735744","0.0-1.0-684.0","0","0","66339","","null","","","null","75","","","","","","","","","","","","","","","NaN",""
"","S1","","html-keyboard-response","490","736000","0.0-1.0-686.0","0","0","66339","","null","","","null","76","","","","","","","","","","","","","","","",""
"","ISI","","html-keyboard-response","491","737010","0.0-1.0-687.0","0","0","66339","","null","","","null","76","NaN","","","","","","","","","","","","","","",""
"","S2","","html-keyboard-response","492","737272","0.0-1.0-688.0","0","0","66339","","null","","","null","76","","NaN","","","","","","","","","","","","","",""
"","response","","html-keyboard-response","493","737868","0.0-1.0-689.0-0.0","0","0","66339","","593","","","68","76","","","2","76","training","adjacent","DC","4","3","P.jpg","N.jpg","0","0","1","",""
"","feedback","","html-keyboard-response","494","738874","0.0-1.0-690.0-0.0","0","0","66339","","null","","","null","76","","","","","","","","","","","","","","","",""
"","ITI","","html-keyboard-response","495","739878","0.0-1.0-693.0","0","0","66339","","null","","","null","76","","","","","","","","","","","","","","","NaN",""
"","S1","","html-keyboard-response","496","740134","0.0-1.0-695.0","0","0","66339","","null","","","null","77","","","","","","","","","","","","","","","",""
"","ISI","","html-keyboard-response","497","741144","0.0-1.0-696.0","0","0","66339","","null","","","null","77","NaN","","","","","","","","","","","","","","",""
"","S2","","html-keyboard-response","498","741399","0.0-1.0-697.0","0","0","66339","","null","","","null","77","","NaN","","","","","","","","","","","","","",""
"","response","","html-keyboard-response","499","742132","0.0-1.0-698.0-0.0","0","0","66339","","730","","","68","77","","","2","77","training","adjacent","EF","5","6","M.jpg","L.jpg","0","1","0","",""
"","feedback","","html-keyboard-response","500","743147","0.0-1.0-699.0-0.0","0","0","66339","","null","","","null","77","","","","","","","","","","","","","","","",""
"","time_out","","html-keyboard-response","501","745149","0.0-1.0-701.0-0.0","0","0","66339","","null","","","null","77","","","","","","","","","","","","","","","",""
"","ITI","","html-keyboard-response","502","746159","0.0-1.0-702.0","0","0","66339","","null","","","null","77","","","","","","","","","","","","","","","NaN",""
"","S1","","html-keyboard-response","503","746415","0.0-1.0-704.0","0","0","66339","","null","","","null","78","","","","","","","","","","","","","","","",""
"","ISI","","html-keyboard-response","504","747425","0.0-1.0-705.0","0","0","66339","","null","","","null","78","NaN","","","","","","","","","","","","","","",""
"","S2","","html-keyboard-response","505","747686","0.0-1.0-706.0","0","0","66339","","null","","","null","78","","NaN","","","","","","","","","","","","","",""
"","response","","html-keyboard-response","506","748380","0.0-1.0-707.0-0.0","0","0","66339","","692","","","68","78","","","2","78","training","adjacent","DC","4","3","P.jpg","N.jpg","0","0","1","",""
"","feedback","","html-keyboard-response","507","749393","0.0-1.0-708.0-0.0","0","0","66339","","null","","","null","78","","","","","","","","","","","","","","","",""
"","ITI","","html-keyboard-response","508","750399","0.0-1.0-711.0","0","0","66339","","null","","","null","78","","","","","","","","","","","","","","","NaN",""
"","S1","","html-keyboard-response","509","750658","0.0-1.0-713.0","0","0","66339","","null","","","null","79","","","","","","","","","","","","","","","",""
"","ISI","","html-keyboard-response","510","751663","0.0-1.0-714.0","0","0","66339","","null","","","null","79","NaN","","","","","","","","","","","","","","",""
"","S2","","html-keyboard-response","511","751918","0.0-1.0-715.0","0","0","66339","","null","","","null","79","","NaN","","","","","","","","","","","","","",""
"","response","","html-keyboard-response","512","752853","0.0-1.0-716.0-0.0","0","0","66339","","932","","","68","79","","","2","79","training","adjacent","ED","5","4","M.jpg","P.jpg","0","0","1","",""
"","feedback","","html-keyboard-response","513","753863","0.0-1.0-717.0-0.0","0","0","66339","","null","","","null","79","","","","","","","","","","","","","","","",""
"","ITI","","html-keyboard-response","514","754873","0.0-1.0-720.0","0","0","66339","","null","","","null","79","","","","","","","","","","","","","","","NaN",""
"","S1","","html-keyboard-response","515","755128","0.0-1.0-722.0","0","0","66339","","null","","","null","80","","","","","","","","","","","","","","","",""
"","ISI","","html-keyboard-response","516","756138","0.0-1.0-723.0","0","0","66339","","null","","","null","80","NaN","","","","","","","","","","","","","","",""
"","S2","","html-keyboard-response","517","756400","0.0-1.0-724.0","0","0","66339","","null","","","null","80","","NaN","","","","","","","","","","","","","",""
"","response","","html-keyboard-response","518","756781","0.0-1.0-725.0-0.0","0","0","66339","","378","","","68","80","","","2","80","training","adjacent","ED","5","4","M.jpg","P.jpg","0","0","1","",""
"","feedback","","html-keyboard-response","519","757793","0.0-1.0-726.0-0.0","0","0","66339","","null","","","null","80","","","","","","","","","","","","","","","",""
"","ITI","","html-keyboard-response","520","758803","0.0-1.0-729.0","0","0","66339","","null","","","null","80","","","","","","","","","","","","","","","NaN",""
"","S1","","html-keyboard-response","521","759064","0.0-1.0-731.0","0","0","66339","","null","","","null","81","","","","","","","","","","","","","","","",""
"","ISI","","html-keyboard-response","522","760075","0.0-1.0-732.0","0","0","66339","","null","","","null","81","NaN","","","","","","","","","","","","","","",""
"","S2","","html-keyboard-response","523","760336","0.0-1.0-733.0","0","0","66339","","null","","","null","81","","NaN","","","","","","","","","","","","","",""
"","response","","html-keyboard-response","524","761173","0.0-1.0-734.0-0.0","0","0","66339","","835","","","75","81","","","2","81","training","adjacent","BA","2","1","Q.jpg","O.jpg","1","0","0","",""
"","feedback","","html-keyboard-response","525","762187","0.0-1.0-735.0-0.0","0","0","66339","","null","","","null","81","","","","","","","","","","","","","","","",""
"","time_out","","html-keyboard-response","526","764190","0.0-1.0-737.0-0.0","0","0","66339","","null","","","null","81","","","","","","","","","","","","","","","",""
"","ITI","","html-keyboard-response","527","765200","0.0-1.0-738.0","0","0","66339","","null","","","null","81","","","","","","","","","","","","","","","NaN",""
"","S1","","html-keyboard-response","528","765456","0.0-1.0-740.0","0","0","66339","","null","","","null","82","","","","","","","","","","","","","","","",""
"","ISI","","html-keyboard-response","529","766465","0.0-1.0-741.0","0","0","66339","","null","","","null","82","NaN","","","","","","","","","","","","","","",""
"","S2","","html-keyboard-response","530","766721","0.0-1.0-742.0","0","0","66339","","null","","","null","82","","NaN","","","","","","","","","","","","","",""
"","response","","html-keyboard-response","531","767469","0.0-1.0-743.0-0.0","0","0","66339","","745","","","68","82","","","2","82","training","adjacent","ED","5","4","M.jpg","P.jpg","0","0","1","",""
"","feedback","","html-keyboard-response","532","768480","0.0-1.0-744.0-0.0","0","0","66339","","null","","","null","82","","","","","","","","","","","","","","","",""
"","ITI","","html-keyboard-response","533","769490","0.0-1.0-747.0","0","0","66339","","null","","","null","82","","","","","","","","","","","","","","","NaN",""
"","S1","","html-keyboard-response","534","769751","0.0-1.0-749.0","0","0","66339","","null","","","null","83","","","","","","","","","","","","","","","",""
"","ISI","","html-keyboard-response","535","770762","0.0-1.0-750.0","0","0","66339","","null","","","null","83","NaN","","","","","","","","","","","","","","",""
"","S2","","html-keyboard-response","536","771017","0.0-1.0-751.0","0","0","66339","","null","","","null","83","","NaN","","","","","","","","","","","","","",""
"","response","","html-keyboard-response","537","771717","0.0-1.0-752.0-0.0","0","0","66339","","698","","","68","83","","","2","83","training","adjacent","CB","3","2","N.jpg","Q.jpg","0","0","1","",""
"","feedback","","html-keyboard-response","538","772730","0.0-1.0-753.0-0.0","0","0","66339","","null","","","null","83","","","","","","","","","","","","","","","",""
"","ITI","","html-keyboard-response","539","773739","0.0-1.0-756.0","0","0","66339","","null","","","null","83","","","","","","","","","","","","","","","NaN",""
"","S1","","html-keyboard-response","540","774001","0.0-1.0-758.0","0","0","66339","","null","","","null","84","","","","","","","","","","","","","","","",""
"","ISI","","html-keyboard-response","541","775011","0.0-1.0-759.0","0","0","66339","","null","","","null","84","NaN","","","","","","","","","","","","","","",""
"","S2","","html-keyboard-response","542","775272","0.0-1.0-760.0","0","0","66339","","null","","","null","84","","NaN","","","","","","","","","","","","","",""
"","response","","html-keyboard-response","543","776221","0.0-1.0-761.0-0.0","0","0","66339","","946","","","75","84","","","2","84","training","adjacent","CD","3","4","N.jpg","P.jpg","1","1","1","",""
"","feedback","","html-keyboard-response","544","777235","0.0-1.0-762.0-0.0","0","0","66339","","null","","","null","84","","","","","","","","","","","","","","","",""
"","ITI","","html-keyboard-response","545","778239","0.0-1.0-765.0","0","0","66339","","null","","","null","84","","","","","","","","","","","","","","","NaN",""
"","S1","","html-keyboard-response","546","778494","0.0-1.0-767.0","0","0","66339","","null","","","null","85","","","","","","","","","","","","","","","",""
"","ISI","","html-keyboard-response","547","779504","0.0-1.0-768.0","0","0","66339","","null","","","null","85","NaN","","","","","","","","","","","","","","",""
"","S2","","html-keyboard-response","548","779760","0.0-1.0-769.0","0","0","66339","","null","","","null","85","","NaN","","","","","","","","","","","","","",""
"","response","","html-keyboard-response","549","780517","0.0-1.0-770.0-0.0","0","0","66339","","755","","","75","85","","","2","85","training","adjacent","FE","6","5","L.jpg","M.jpg","1","0","0","",""
"","feedback","","html-keyboard-response","550","781531","0.0-1.0-771.0-0.0","0","0","66339","","null","","","null","85","","","","","","","","","","","","","","","",""
"","time_out","","html-keyboard-response","551","783539","0.0-1.0-773.0-0.0","0","0","66339","","null","","","null","85","","","","","","","","","","","","","","","",""
"","ITI","","html-keyboard-response","552","784543","0.0-1.0-774.0","0","0","66339","","null","","","null","85","","","","","","","","","","","","","","","NaN",""
"","S1","","html-keyboard-response","553","784799","0.0-1.0-776.0","0","0","66339","","null","","","null","86","","","","","","","","","","","","","","","",""
"","ISI","","html-keyboard-response","554","785811","0.0-1.0-777.0","0","0","66339","","null","","","null","86","NaN","","","","","","","","","","","","","","",""
"","S2","","html-keyboard-response","555","786076","0.0-1.0-778.0","0","0","66339","","null","","","null","86","","NaN","","","","","","","","","","","","","",""
"","response","","html-keyboard-response","556","787446","0.0-1.0-779.0-0.0","0","0","66339","","1367","","","75","86","","","2","86","training","adjacent","EF","5","6","M.jpg","L.jpg","1","1","1","",""
"","feedback","","html-keyboard-response","557","788458","0.0-1.0-780.0-0.0","0","0","66339","","null","","","null","86","","","","","","","","","","","","","","","",""
"","ITI","","html-keyboard-response","558","789466","0.0-1.0-783.0","0","0","66339","","null","","","null","86","","","","","","","","","","","","","","","NaN",""
"","S1","","html-keyboard-response","559","789721","0.0-1.0-785.0","0","0","66339","","null","","","null","87","","","","","","","","","","","","","","","",""
"","ISI","","html-keyboard-response","560","790731","0.0-1.0-786.0","0","0","66339","","null","","","null","87","NaN","","","","","","","","","","","","","","",""
"","S2","","html-keyboard-response","561","790993","0.0-1.0-787.0","0","0","66339","","null","","","null","87","","NaN","","","","","","","","","","","","","",""
"","response","","html-keyboard-response","562","792752","0.0-1.0-788.0-0.0","0","0","66339","","null","","","null","87","","","2","87","training","adjacent","AB","1","2","O.jpg","Q.jpg","NaN","1","0","",""
"","too_slow_prompt","","html-keyboard-response","563","793762","0.0-1.0-790.0-0.0","1","0","66339","","null","","","null","","","","","","","","","","","","","","","","",""
"","time_out","","html-keyboard-response","564","795770","0.0-1.0-791.0-0.0","0","0","66339","","null","","","null","87","","","","","","","","","","","","","","","",""
"","ITI","","html-keyboard-response","565","796776","0.0-1.0-792.0","0","0","66339","","null","","","null","87","","","","","","","","","","","","","","","NaN",""
"","S1","","html-keyboard-response","566","797035","0.0-1.0-794.0","0","0","66339","","null","","","null","88","","","","","","","","","","","","","","","",""
"","ISI","","html-keyboard-response","567","798040","0.0-1.0-795.0","0","0","66339","","null","","","null","88","NaN","","","","","","","","","","","","","","",""
"","S2","","html-keyboard-response","568","798296","0.0-1.0-796.0","0","0","66339","","null","","","null","88","","NaN","","","","","","","","","","","","","",""
"","response","","html-keyboard-response","569","799382","0.0-1.0-797.0-0.0","0","0","66339","","1084","","","75","88","","","2","88","training","adjacent","FE","6","5","L.jpg","M.jpg","1","0","0","",""
"","feedback","","html-keyboard-response","570","800391","0.0-1.0-798.0-0.0","0","0","66339","","null","","","null","88","","","","","","","","","","","","","","","",""
"","time_out","","html-keyboard-response","571","802400","0.0-1.0-800.0-0.0","0","0","66339","","null","","","null","88","","","","","","","","","","","","","","","",""
"","ITI","","html-keyboard-response","572","803410","0.0-1.0-801.0","0","0","66339","","null","","","null","88","","","","","","","","","","","","","","","NaN",""
"","S1","","html-keyboard-response","573","803664","0.0-1.0-803.0","0","0","66339","","null","","","null","89","","","","","","","","","","","","","","","",""
"","ISI","","html-keyboard-response","574","804675","0.0-1.0-804.0","0","0","66339","","null","","","null","89","NaN","","","","","","","","","","","","","","",""
"","S2","","html-keyboard-response","575","804937","0.0-1.0-805.0","0","0","66339","","null","","","null","89","","NaN","","","","","","","","","","","","","",""
"","response","","html-keyboard-response","576","806696","0.0-1.0-806.0-0.0","0","0","66339","","null","","","null","89","","","2","89","training","adjacent","BA","2","1","Q.jpg","O.jpg","NaN","0","0","",""
"","too_slow_prompt","","html-keyboard-response","577","807706","0.0-1.0-808.0-0.0","1","0","66339","","null","","","null","","","","","","","","","","","","","","","","",""
"","time_out","","html-keyboard-response","578","809715","0.0-1.0-809.0-0.0","0","0","66339","","null","","","null","89","","","","","","","","","","","","","","","",""
"","ITI","","html-keyboard-response","579","810724","0.0-1.0-810.0","0","0","66339","","null","","","null","89","","","","","","","","","","","","","","","NaN",""
"","S1","","html-keyboard-response","580","810986","0.0-1.0-812.0","0","0","66339","","null","","","null","90","","","","","","","","","","","","","","","",""
