"success","ttype","start_time","trial_type","trial_index","time_elapsed","internal_node_id","warning","missed_checkup","PID","view_history","rt","responses","repeat_instructions","key_press","index","keypress_isi","keypress_S2","block","trial_num","phase","group_type","pair_type","S1_stim","S2_stim","S1_img","S2_img","S1_chosen","S1_higher","accuracy","keypress_iti","total_bonus_tally"
"true","full_screen","d04132023hr2020","fullscreen","0","13782","0.0-0.0","0","0","63953","","","","","","","","","","","","","","","","","","","","","",""
"","instructions","","instructions","1","59823","0.0-1.0-0.0-0.0","0","0","63953","[{""page_index"":0,""viewing_time"":6382},{""page_index"":1,""viewing_time"":20513},{""page_index"":2,""viewing_time"":16955},{""page_index"":3,""viewing_time"":2187}]","46038","","","","","","","","","","","","","","","","","","","",""
"","comprehension_check","","survey-multi-choice","2","85368","0.0-1.0-0.0-1.0","0","0","63953","","25537","{""Q0"":""True"",""Q1"":""K"",""Q2"":""Once the second image appears and while the screen 'MAKE A CHOICE' is shown"",""Q3"":""Green mark"",""Q4"":""either D or K""}","0","","","","","","","","","","","","","","","","","",""
"","start_exp","","html-keyboard-response","3","87647","0.0-1.0-1.0","0","0","63953","","2274","","","32","","","","","","","","","","","","","","","","",""
"","S1","","html-keyboard-response","4","87903","0.0-1.0-2.0","0","0","63953","","null","","","null","0","","","","","","","","","","","","","","","",""
"","ISI","","html-keyboard-response","5","88908","0.0-1.0-3.0","0","0","63953","","null","","","null","0","NaN","","","","","","","","","","","","","","",""
"","S2","","html-keyboard-response","6","89165","0.0-1.0-4.0","0","0","63953","","null","","","null","0","","NaN","","","","","","","","","","","","","",""
"","response","","html-keyboard-response","7","89430","0.0-1.0-5.0-0.0","0","0","63953","","262","","","75","0","","","1","0","training","adjacent","EF","5","6","R.jpg","L.jpg","1","1","1","",""
"","feedback","","html-keyboard-response","8","90441","0.0-1.0-6.0-0.0","0","0","63953","","null","","","null","0","","","","","","","","","","","","","","","",""
"","ITI","","html-keyboard-response","9","91444","0.0-1.0-9.0","0","0","63953","","null","","","null","0","","","","","","","","","","","","","","","NaN",""
"","S1","","html-keyboard-response","10","91702","0.0-1.0-11.0","0","0","63953","","null","","","null","1","","","","","","","","","","","","","","","",""
"","ISI","","html-keyboard-response","11","92711","0.0-1.0-12.0","0","0","63953","","252","","","75","1","k","","","","","","","","","","","","","","",""
"","S2","","html-keyboard-response","12","92971","0.0-1.0-13.0","0","0","63953","","null","","","null","1","","NaN","","","","","","","","","","","","","",""
"","response","","html-keyboard-response","13","93299","0.0-1.0-14.0-0.0","0","0","63953","","327","","","75","1","","","1","1","training","adjacent","EF","5","6","R.jpg","L.jpg","1","1","1","",""
"","feedback","","html-keyboard-response","14","94307","0.0-1.0-15.0-0.0","0","0","63953","","null","","","null","1","","","","","","","","","","","","","","","",""
"","ITI","","html-keyboard-response","15","95317","0.0-1.0-18.0","0","0","63953","","null","","","null","1","","","","","","","","","","","","","","","NaN",""
"","S1","","html-keyboard-response","16","95570","0.0-1.0-20.0","0","0","63953","","null","","","null","2","","","","","","","","","","","","","","","",""
"","ISI","","html-keyboard-response","17","96576","0.0-1.0-21.0","0","0","63953","","null","","","null","2","NaN","","","","","","","","","","","","","","",""
"","S2","","html-keyboard-response","18","96840","0.0-1.0-22.0","0","0","63953","","null","","","null","2","","NaN","","","","","","","","","","","","","",""
"","response","","html-keyboard-response","19","96863","0.0-1.0-23.0-0.0","0","0","63953","","21","","","68","2","","","1","2","training","adjacent","FE","6","5","L.jpg","R.jpg","0","0","1","",""
"","feedback","","html-keyboard-response","20","97871","0.0-1.0-24.0-0.0","0","0","63953","","null","","","null","2","","","","","","","","","","","","","","","",""
"","ITI","","html-keyboard-response","21","98876","0.0-1.0-27.0","0","0","63953","","null","","","null","2","","","","","","","","","","","","","","","NaN",""
"","S1","","html-keyboard-response","22","99130","0.0-1.0-29.0","0","0","63953","","null","","","null","3","","","","","","","","","","","","","","","",""
"","ISI","","html-keyboard-response","23","100138","0.0-1.0-30.0","0","0","63953","","null","","","null","3","NaN","","","","","","","","","","","","","","",""
"","S2","","html-keyboard-response","24","100395","0.0-1.0-31.0","0","0","63953","","null","","","null","3","","NaN","","","","","","","","","","","","","",""
"","response","","html-keyboard-response","25","100439","0.0-1.0-32.0-0.0","0","0","63953","","43","","","75","3","","","1","3","training","adjacent","DC","4","3","M.jpg","P.jpg","1","0","0","",""
"","feedback","","html-keyboard-response","26","101445","0.0-1.0-33.0-0.0","0","0","63953","","null","","","null","3","","","","","","","","","","","","","","","",""
"","time_out","","html-keyboard-response","27","103451","0.0-1.0-35.0-0.0","0","0","63953","","null","","","null","3","","","","","","","","","","","","","","","",""
"","ITI","","html-keyboard-response","28","104458","0.0-1.0-36.0","0","0","63953","","null","","","null","3","","","","","","","","","","","","","","","NaN",""
"","S1","","html-keyboard-response","29","104715","0.0-1.0-38.0","0","0","63953","","null","","","null","4","","","","","","","","","","","","","","","",""
"","ISI","","html-keyboard-response","30","105723","0.0-1.0-39.0","0","0","63953","","null","","","null","4","NaN","","","","","","","","","","","","","","",""
"","S2","","html-keyboard-response","31","105983","0.0-1.0-40.0","0","0","63953","","null","","","null","4","","NaN","","","","","","","","","","","","","",""
"","response","","html-keyboard-response","32","106277","0.0-1.0-41.0-0.0","0","0","63953","","292","","","68","4","","","1","4","training","adjacent","CD","3","4","P.jpg","M.jpg","0","1","0","",""
"","feedback","","html-keyboard-response","33","107292","0.0-1.0-42.0-0.0","0","0","63953","","null","","","null","4","","","","","","","","","","","","","","","",""
"","time_out","","html-keyboard-response","34","109301","0.0-1.0-44.0-0.0","0","0","63953","","null","","","null","4","","","","","","","","","","","","","","","",""
"","ITI","","html-keyboard-response","35","110309","0.0-1.0-45.0","0","0","63953","","null","","","null","4","","","","","","","","","","","","","","","NaN",""
"","S1","","html-keyboard-response","36","110577","0.0-1.0-47.0","0","0","63953","","null","","","null","5","","","","","","","","","","","","","","","",""
"","ISI","","html-keyboard-response","37","111592","0.0-1.0-48.0","0","0","63953","","null","","","null","5","NaN","","","","","","","","","","","","","","",""
"","S2","","html-keyboard-response","38","111845","0.0-1.0-49.0","0","0","63953","","null","","","null","5","","NaN","","","","","","","","","","","","","",""
"","response","","html-keyboard-response","39","112282","0.0-1.0-50.0-0.0","0","0","63953","","436","","","75","5","","","1","5","training","adjacent","AB","1","2","O.jpg","N.jpg","1","1","1","",""
"","feedback","","html-keyboard-response","40","113292","0.0-1.0-51.0-0.0","0","0","63953","","null","","","null","5","","","","","","","","","","","","","","","",""
"","ITI","","html-keyboard-response","41","114296","0.0-1.0-54.0","0","0","63953","","null","","","null","5","","","","","","","","","","","","","","","NaN",""
"","S1","","html-keyboard-response","42","114557","0.0-1.0-56.0","0","0","63953","","null","","","null","6","","","","","","","","","","","","","","","",""
"","ISI","","html-keyboard-response","43","115560","0.0-1.0-57.0","0","0","63953","","null","","","null","6","NaN","","","","","","","","","","","","","","",""
"","S2","","html-keyboard-response","44","115820","0.0-1.0-58.0","0","0","63953","","null","","","null","6","","NaN","","","","","","","","","","","","","",""
"","response","","html-keyboard-response","45","116099","0.0-1.0-59.0-0.0","0","0","63953","","277","","","68","6","","","1","6","training","adjacent","BA","2","1","N.jpg","O.jpg","0","0","1","",""
"","feedback","","html-keyboard-response","46","117106","0.0-1.0-60.0-0.0","0","0","63953","","null","","","null","6","","","","","","","","","","","","","","","",""
"","ITI","","html-keyboard-response","47","118122","0.0-1.0-63.0","0","0","63953","","null","","","null","6","","","","","","","","","","","","","","","NaN",""
"","S1","","html-keyboard-response","48","118375","0.0-1.0-65.0","0","0","63953","","null","","","null","7","","","","","","","","","","","","","","","",""
"","ISI","","html-keyboard-response","49","119381","0.0-1.0-66.0","0","0","63953","","null","","","null","7","NaN","","","","","","","","","","","","","","",""
"","S2","","html-keyboard-response","50","119635","0.0-1.0-67.0","0","0","63953","","null","","","null","7","","NaN","","","","","","","","","","","","","",""
"","response","","html-keyboard-response","51","120024","0.0-1.0-68.0-0.0","0","0","63953","","386","","","68","7","","","1","7","training","adjacent","DC","4","3","M.jpg","P.jpg","0","0","1","",""
"","feedback","","html-keyboard-response","52","121029","0.0-1.0-69.0-0.0","0","0","63953","","null","","","null","7","","","","","","","","","","","","","","","",""
"","ITI","","html-keyboard-response","53","122044","0.0-1.0-72.0","0","0","63953","","null","","","null","7","","","","","","","","","","","","","","","NaN",""
"","S1","","html-keyboard-response","54","122300","0.0-1.0-74.0","0","0","63953","","null","","","null","8","","","","","","","","","","","","","","","",""
"","ISI","","html-keyboard-response","55","123310","0.0-1.0-75.0","0","0","63953","","null","","","null","8","NaN","","","","","","","","","","","","","","",""
"","S2","","html-keyboard-response","56","123573","0.0-1.0-76.0","0","0","63953","","null","","","null","8","","NaN","","","","","","","","","","","","","",""
"","response","","html-keyboard-response","57","123764","0.0-1.0-77.0-0.0","0","0","63953","","189","","","75","8","","","1","8","training","adjacent","ED","5","4","R.jpg","M.jpg","1","0","0","",""
"","feedback","","html-keyboard-response","58","124768","0.0-1.0-78.0-0.0","0","0","63953","","null","","","null","8","","","","","","","","","","","","","","","",""
"","time_out","","html-keyboard-response","59","126776","0.0-1.0-80.0-0.0","0","0","63953","","null","","","null","8","","","","","","","","","","","","","","","",""
"","ITI","","html-keyboard-response","60","127783","0.0-1.0-81.0","0","0","63953","","null","","","null","8","","","","","","","","","","","","","","","NaN",""
"","S1","","html-keyboard-response","61","128038","0.0-1.0-83.0","0","0","63953","","null","","","null","9","","","","","","","","","","","","","","","",""
"","ISI","","html-keyboard-response","62","129048","0.0-1.0-84.0","0","0","63953","","null","","","null","9","NaN","","","","","","","","","","","","","","",""
"","S2","","html-keyboard-response","63","129303","0.0-1.0-85.0","0","0","63953","","null","","","null","9","","NaN","","","","","","","","","","","","","",""
"","response","","html-keyboard-response","64","129651","0.0-1.0-86.0-0.0","0","0","63953","","347","","","68","9","","","1","9","training","adjacent","DE","4","5","M.jpg","R.jpg","0","1","0","",""
"","feedback","","html-keyboard-response","65","130656","0.0-1.0-87.0-0.0","0","0","63953","","null","","","null","9","","","","","","","","","","","","","","","",""
"","time_out","","html-keyboard-response","66","132663","0.0-1.0-89.0-0.0","0","0","63953","","null","","","null","9","","","","","","","","","","","","","","","",""
"","ITI","","html-keyboard-response","67","133671","0.0-1.0-90.0","0","0","63953","","null","","","null","9","","","","","","","","","","","","","","","NaN",""
"","S1","","html-keyboard-response","68","133932","0.0-1.0-92.0","0","0","63953","","null","","","null","10","","","","","","","","","","","","","","","",""
"","ISI","","html-keyboard-response","69","134939","0.0-1.0-93.0","0","0","63953","","null","","","null","10","NaN","","","","","","","","","","","","","","",""
"","S2","","html-keyboard-response","70","135200","0.0-1.0-94.0","0","0","63953","","null","","","null","10","","NaN","","","","","","","","","","","","","",""
"","response","","html-keyboard-response","71","135421","0.0-1.0-95.0-0.0","0","0","63953","","219","","","75","10","","","1","10","training","adjacent","FE","6","5","L.jpg","R.jpg","1","0","0","",""
"","feedback","","html-keyboard-response","72","136436","0.0-1.0-96.0-0.0","0","0","63953","","null","","","null","10","","","","","","","","","","","","","","","",""
"","time_out","","html-keyboard-response","73","138445","0.0-1.0-98.0-0.0","0","0","63953","","null","","","null","10","","","","","","","","","","","","","","","",""
"","ITI","","html-keyboard-response","74","139463","0.0-1.0-99.0","0","0","63953","","null","","","null","10","","","","","","","","","","","","","","","NaN",""
"","S1","","html-keyboard-response","75","139723","0.0-1.0-101.0","0","0","63953","","null","","","null","11","","","","","","","","","","","","","","","",""
"","ISI","","html-keyboard-response","76","140725","0.0-1.0-102.0","0","0","63953","","null","","","null","11","NaN","","","","","","","","","","","","","","",""
"","S2","","html-keyboard-response","77","140985","0.0-1.0-103.0","0","0","63953","","null","","","null","11","","NaN","","","","","","","","","","","","","",""
"","response","","html-keyboard-response","78","141320","0.0-1.0-104.0-0.0","0","0","63953","","334","","","75","11","","","1","11","training","adjacent","BC","2","3","N.jpg","P.jpg","1","1","1","",""
"","feedback","","html-keyboard-response","79","142330","0.0-1.0-105.0-0.0","0","0","63953","","null","","","null","11","","","","","","","","","","","","","","","",""
"","ITI","","html-keyboard-response","80","143333","0.0-1.0-108.0","0","0","63953","","null","","","null","11","","","","","","","","","","","","","","","NaN",""
"","S1","","html-keyboard-response","81","143587","0.0-1.0-110.0","0","0","63953","","null","","","null","12","","","","","","","","","","","","","","","",""
"","ISI","","html-keyboard-response","82","144593","0.0-1.0-111.0","0","0","63953","","null","","","null","12","NaN","","","","","","","","","","","","","","",""
"","S2","","html-keyboard-response","83","144853","0.0-1.0-112.0","0","0","63953","","null","","","null","12","","NaN","","","","","","","","","","","","","",""
"","response","","html-keyboard-response","84","145213","0.0-1.0-113.0-0.0","0","0","63953","","357","","","68","12","","","1","12","training","adjacent","DE","4","5","M.jpg","R.jpg","0","1","0","",""
"","feedback","","html-keyboard-response","85","146217","0.0-1.0-114.0-0.0","0","0","63953","","null","","","null","12","","","","","","","","","","","","","","","",""
"","time_out","","html-keyboard-response","86","148224","0.0-1.0-116.0-0.0","0","0","63953","","null","","","null","12","","","","","","","","","","","","","","","",""
"","ITI","","html-keyboard-response","87","149227","0.0-1.0-117.0","0","0","63953","","null","","","null","12","","","","","","","","","","","","","","","NaN",""
"","S1","","html-keyboard-response","88","149486","0.0-1.0-119.0","0","0","63953","","null","","","null","13","","","","","","","","","","","","","","","",""
"","ISI","","html-keyboard-response","89","150492","0.0-1.0-120.0","0","0","63953","","null","","","null","13","NaN","","","","","","","","","","","","","","",""
"","S2","","html-keyboard-response","90","150745","0.0-1.0-121.0","0","0","63953","","null","","","null","13","","NaN","","","","","","","","","","","","","",""
"","response","","html-keyboard-response","91","151132","0.0-1.0-122.0-0.0","0","0","63953","","384","","","75","13","","","1","13","training","adjacent","FE","6","5","L.jpg","R.jpg","1","0","0","",""
"","feedback","","html-keyboard-response","92","152142","0.0-1.0-123.0-0.0","0","0","63953","","null","","","null","13","","","","","","","","","","","","","","","",""
"","time_out","","html-keyboard-response","93","154150","0.0-1.0-125.0-0.0","0","0","63953","","null","","","null","13","","","","","","","","","","","","","","","",""
"","ITI","","html-keyboard-response","94","155160","0.0-1.0-126.0","0","0","63953","","null","","","null","13","","","","","","","","","","","","","","","NaN",""
"","S1","","html-keyboard-response","95","155416","0.0-1.0-128.0","0","0","63953","","null","","","null","14","","","","","","","","","","","","","","","",""
"","ISI","","html-keyboard-response","96","156420","0.0-1.0-129.0","0","0","63953","","null","","","null","14","NaN","","","","","","","","","","","","","","",""
"","S2","","html-keyboard-response","97","156676","0.0-1.0-130.0","0","0","63953","","null","","","null","14","","NaN","","","","","","","","","","","","","",""
"","response","","html-keyboard-response","98","157113","0.0-1.0-131.0-0.0","0","0","63953","","434","","","75","14","","","1","14","training","adjacent","ED","5","4","R.jpg","M.jpg","1","0","0","",""
"","feedback","","html-keyboard-response","99","158130","0.0-1.0-132.0-0.0","0","0","63953","","null","","","null","14","","","","","","","","","","","","","","","",""
"","time_out","","html-keyboard-response","100","160142","0.0-1.0-134.0-0.0","0","0","63953","","null","","","null","14","","","","","","","","","","","","","","","",""
"","ITI","","html-keyboard-response","101","161151","0.0-1.0-135.0","0","0","63953","","null","","","null","14","","","","","","","","","","","","","","","NaN",""
"","S1","","html-keyboard-response","102","161405","0.0-1.0-137.0","0","0","63953","","null","","","null","15","","","","","","","","","","","","","","","",""
"","ISI","","html-keyboard-response","103","162413","0.0-1.0-138.0","0","0","63953","","null","","","null","15","NaN","","","","","","","","","","","","","","",""
"","S2","","html-keyboard-response","104","162670","0.0-1.0-139.0","0","0","63953","","null","","","null","15","","NaN","","","","","","","","","","","","","",""
"","response","","html-keyboard-response","105","162973","0.0-1.0-140.0-0.0","0","0","63953","","301","","","68","15","","","1","15","training","adjacent","CD","3","4","P.jpg","M.jpg","0","1","0","",""
"","feedback","","html-keyboard-response","106","163976","0.0-1.0-141.0-0.0","0","0","63953","","null","","","null","15","","","","","","","","","","","","","","","",""
"","time_out","","html-keyboard-response","107","165982","0.0-1.0-143.0-0.0","0","0","63953","","null","","","null","15","","","","","","","","","","","","","","","",""
"","ITI","","html-keyboard-response","108","166991","0.0-1.0-144.0","0","0","63953","","null","","","null","15","","","","","","","","","","","","","","","NaN",""
"","S1","","html-keyboard-response","109","167254","0.0-1.0-146.0","0","0","63953","","null","","","null","16","","","","","","","","","","","","","","","",""
"","ISI","","html-keyboard-response","110","168261","0.0-1.0-147.0","0","0","63953","","null","","","null","16","NaN","","","","","","","","","","","","","","",""
"","S2","","html-keyboard-response","111","168516","0.0-1.0-148.0","0","0","63953","","null","","","null","16","","NaN","","","","","","","","","","","","","",""
"","response","","html-keyboard-response","112","168705","0.0-1.0-149.0-0.0","0","0","63953","","186","","","68","16","","","1","16","training","adjacent","CD","3","4","P.jpg","M.jpg","0","1","0","",""
"","feedback","","html-keyboard-response","113","169721","0.0-1.0-150.0-0.0","0","0","63953","","null","","","null","16","","","","","","","","","","","","","","","",""
"","time_out","","html-keyboard-response","114","171730","0.0-1.0-152.0-0.0","0","0","63953","","null","","","null","16","","","","","","","","","","","","","","","",""
"","ITI","","html-keyboard-response","115","172736","0.0-1.0-153.0","0","0","63953","","null","","","null","16","","","","","","","","","","","","","","","NaN",""
"","S1","","html-keyboard-response","116","172994","0.0-1.0-155.0","0","0","63953","","null","","","null","17","","","","","","","","","","","","","","","",""
"","ISI","","html-keyboard-response","117","174012","0.0-1.0-156.0","0","0","63953","","null","","","null","17","NaN","","","","","","","","","","","","","","",""
"","S2","","html-keyboard-response","118","174265","0.0-1.0-157.0","0","0","63953","","null","","","null","17","","NaN","","","","","","","","","","","","","",""
"","response","","html-keyboard-response","119","174433","0.0-1.0-158.0-0.0","0","0","63953","","166","","","75","17","","","1","17","training","adjacent","BA","2","1","N.jpg","O.jpg","1","0","0","",""
"","feedback","","html-keyboard-response","120","175443","0.0-1.0-159.0-0.0","0","0","63953","","null","","","null","17","","","","","","","","","","","","","","","",""
"","time_out","","html-keyboard-response","121","177448","0.0-1.0-161.0-0.0","0","0","63953","","null","","","null","17","","","","","","","","","","","","","","","",""
"","ITI","","html-keyboard-response","122","178457","0.0-1.0-162.0","0","0","63953","","null","","","null","17","","","","","","","","","","","","","","","NaN",""
"","S1","","html-keyboard-response","123","178717","0.0-1.0-164.0","0","0","63953","","null","","","null","18","","","","","","","","","","","","","","","",""
"","ISI","","html-keyboard-response","124","179727","0.0-1.0-165.0","0","0","63953","","null","","","null","18","NaN","","","","","","","","","","","","","","",""
"","S2","","html-keyboard-response","125","179985","0.0-1.0-166.0","0","0","63953","","null","","","null","18","","NaN","","","","","","","","","","","","","",""
"","response","","html-keyboard-response","126","180468","0.0-1.0-167.0-0.0","0","0","63953","","482","","","75","18","","","1","18","training","adjacent","DE","4","5","M.jpg","R.jpg","1","1","1","",""
"","feedback","","html-keyboard-response","127","181479","0.0-1.0-168.0-0.0","0","0","63953","","null","","","null","18","","","","","","","","","","","","","","","",""
"","ITI","","html-keyboard-response","128","182489","0.0-1.0-171.0","0","0","63953","","null","","","null","18","","","","","","","","","","","","","","","NaN",""
"","S1","","html-keyboard-response","129","182748","0.0-1.0-173.0","0","0","63953","","null","","","null","19","","","","","","","","","","","","","","","",""
"","ISI","","html-keyboard-response","130","183758","0.0-1.0-174.0","0","0","63953","","null","","","null","19","NaN","","","","","","","","","","","","","","",""
"","S2","","html-keyboard-response","131","184012","0.0-1.0-175.0","0","0","63953","","null","","","null","19","","NaN","","","","","","","","","","","","","",""
"","response","","html-keyboard-response","132","184368","0.0-1.0-176.0-0.0","0","0","63953","","355","","","75","19","","","1","19","training","adjacent","DC","4","3","M.jpg","P.jpg","1","0","0","",""
"","feedback","","html-keyboard-response","133","185374","0.0-1.0-177.0-0.0","0","0","63953","","null","","","null","19","","","","","","","","","","","","","","","",""
"","time_out","","html-keyboard-response","134","187378","0.0-1.0-179.0-0.0","0","0","63953","","null","","","null","19","","","","","","","","","","","","","","","",""
"","ITI","","html-keyboard-response","135","188381","0.0-1.0-180.0","0","0","63953","","null","","","null","19","","","","","","","","","","","","","","","NaN",""
"","S1","","html-keyboard-response","136","188643","0.0-1.0-182.0","0","0","63953","","null","","","null","20","","","","","","","","","","","","","","","",""
"","ISI","","html-keyboard-response","137","189661","0.0-1.0-183.0","0","0","63953","","null","","","null","20","NaN","","","","","","","","","","","","","","",""
"","S2","","html-keyboard-response","138","189917","0.0-1.0-184.0","0","0","63953","","null","","","null","20","","NaN","","","","","","","","","","","","","",""
"","response","","html-keyboard-response","139","190185","0.0-1.0-185.0-0.0","0","0","63953","","265","","","75","20","","","1","20","training","adjacent","CB","3","2","P.jpg","N.jpg","1","0","0","",""
"","feedback","","html-keyboard-response","140","191195","0.0-1.0-186.0-0.0","0","0","63953","","null","","","null","20","","","","","","","","","","","","","","","",""
"","time_out","","html-keyboard-response","141","193198","0.0-1.0-188.0-0.0","0","0","63953","","null","","","null","20","","","","","","","","","","","","","","","",""
"","ITI","","html-keyboard-response","142","194206","0.0-1.0-189.0","0","0","63953","","null","","","null","20","","","","","","","","","","","","","","","NaN",""
"","S1","","html-keyboard-response","143","194466","0.0-1.0-191.0","0","0","63953","","null","","","null","21","","","","","","","","","","","","","","","",""
"","ISI","","html-keyboard-response","144","195475","0.0-1.0-192.0","0","0","63953","","null","","","null","21","NaN","","","","","","","","","","","","","","",""
"","S2","","html-keyboard-response","145","195728","0.0-1.0-193.0","0","0","63953","","null","","","null","21","","NaN","","","","","","","","","","","","","",""
"","response","","html-keyboard-response","146","195856","0.0-1.0-194.0-0.0","0","0","63953","","125","","","68","21","","","1","21","training","adjacent","BC","2","3","N.jpg","P.jpg","0","1","0","",""
"","feedback","","html-keyboard-response","147","196864","0.0-1.0-195.0-0.0","0","0","63953","","null","","","null","21","","","","","","","","","","","","","","","",""
"","time_out","","html-keyboard-response","148","198871","0.0-1.0-197.0-0.0","0","0","63953","","null","","","null","21","","","","","","","","","","","","","","","",""
"","ITI","","html-keyboard-response","149","199878","0.0-1.0-198.0","0","0","63953","","null","","","null","21","","","","","","","","","","","","","","","NaN",""
"","S1","","html-keyboard-response","150","200139","0.0-1.0-200.0","0","0","63953","","null","","","null","22","","","","","","","","","","","","","","","",""
"","ISI","","html-keyboard-response","151","201155","0.0-1.0-201.0","0","0","63953","","null","","","null","22","NaN","","","","","","","","","","","","","","",""
"","S2","","html-keyboard-response","152","201414","0.0-1.0-202.0","0","0","63953","","null","","","null","22","","NaN","","","","","","","","","","","","","",""
"","response","","html-keyboard-response","153","201736","0.0-1.0-203.0-0.0","0","0","63953","","321","","","75","22","","","1","22","training","adjacent","CD","3","4","P.jpg","M.jpg","1","1","1","",""
"","feedback","","html-keyboard-response","154","202750","0.0-1.0-204.0-0.0","0","0","63953","","null","","","null","22","","","","","","","","","","","","","","","",""
"","ITI","","html-keyboard-response","155","203769","0.0-1.0-207.0","0","0","63953","","null","","","null","22","","","","","","","","","","","","","","","NaN",""
"","S1","","html-keyboard-response","156","204029","0.0-1.0-209.0","0","0","63953","","null","","","null","23","","","","","","","","","","","","","","","",""
"","ISI","","html-keyboard-response","157","205037","0.0-1.0-210.0","0","0","63953","","null","","","null","23","NaN","","","","","","","","","","","","","","",""
"","S2","","html-keyboard-response","158","205297","0.0-1.0-211.0","0","0","63953","","null","","","null","23","","NaN","","","","","","","","","","","","","",""
"","response","","html-keyboard-response","159","205413","0.0-1.0-212.0-0.0","0","0","63953","","116","","","75","23","","","1","23","training","adjacent","CB","3","2","P.jpg","N.jpg","1","0","0","",""
"","feedback","","html-keyboard-response","160","206423","0.0-1.0-213.0-0.0","0","0","63953","","null","","","null","23","","","","","","","","","","","","","","","",""
"","time_out","","html-keyboard-response","161","208427","0.0-1.0-215.0-0.0","0","0","63953","","null","","","null","23","","","","","","","","","","","","","","","",""
"","ITI","","html-keyboard-response","162","209435","0.0-1.0-216.0","0","0","63953","","null","","","null","23","","","","","","","","","","","","","","","NaN",""
"","S1","","html-keyboard-response","163","209694","0.0-1.0-218.0","0","0","63953","","null","","","null","24","","","","","","","","","","","","","","","",""
"","ISI","","html-keyboard-response","164","210698","0.0-1.0-219.0","0","0","63953","","null","","","null","24","NaN","","","","","","","","","","","","","","",""
"","S2","","html-keyboard-response","165","210956","0.0-1.0-220.0","0","0","63953","","null","","","null","24","","NaN","","","","","","","","","","","","","",""
"","response","","html-keyboard-response","166","211219","0.0-1.0-221.0-0.0","0","0","63953","","262","","","75","24","","","1","24","training","adjacent","ED","5","4","R.jpg","M.jpg","1","0","0","",""
"","feedback","","html-keyboard-response","167","212221","0.0-1.0-222.0-0.0","0","0","63953","","null","","","null","24","","","","","","","","","","","","","","","",""
"","time_out","","html-keyboard-response","168","214226","0.0-1.0-224.0-0.0","0","0","63953","","null","","","null","24","","","","","","","","","","","","","","","",""
"","ITI","","html-keyboard-response","169","215234","0.0-1.0-225.0","0","0","63953","","null","","","null","24","","","","","","","","","","","","","","","NaN",""
"","S1","","html-keyboard-response","170","215492","0.0-1.0-227.0","0","0","63953","","null","","","null","25","","","","","","","","","","","","","","","",""
"","ISI","","html-keyboard-response","171","216497","0.0-1.0-228.0","0","0","63953","","null","","","null","25","NaN","","","","","","","","","","","","","","",""
"","S2","","html-keyboard-response","172","216753","0.0-1.0-229.0","0","0","63953","","null","","","null","25","","NaN","","","","","","","","","","","","","",""
"","response","","html-keyboard-response","173","217112","0.0-1.0-230.0-0.0","0","0","63953","","357","","","68","25","","","1","25","training","adjacent","AB","1","2","O.jpg","N.jpg","0","1","0","",""
"","feedback","","html-keyboard-response","174","218120","0.0-1.0-231.0-0.0","0","0","63953","","null","","","null","25","","","","","","","","","","","","","","","",""
"","time_out","","html-keyboard-response","175","220135","0.0-1.0-233.0-0.0","0","0","63953","","null","","","null","25","","","","","","","","","","","","","","","",""
"","ITI","","html-keyboard-response","176","221142","0.0-1.0-234.0","0","0","63953","","null","","","null","25","","","","","","","","","","","","","","","NaN",""
"","S1","","html-keyboard-response","177","221410","0.0-1.0-236.0","0","0","63953","","null","","","null","26","","","","","","","","","","","","","","","",""
"","ISI","","html-keyboard-response","178","222422","0.0-1.0-237.0","0","0","63953","","null","","","null","26","NaN","","","","","","","","","","","","","","",""
"","S2","","html-keyboard-response","179","222681","0.0-1.0-238.0","0","0","63953","","null","","","null","26","","NaN","","","","","","","","","","","","","",""
"","response","","html-keyboard-response","180","222888","0.0-1.0-239.0-0.0","0","0","63953","","204","","","75","26","","","1","26","training","adjacent","DC","4","3","M.jpg","P.jpg","1","0","0","",""
"","feedback","","html-keyboard-response","181","223891","0.0-1.0-240.0-0.0","0","0","63953","","null","","","null","26","","","","","","","","","","","","","","","",""
"","time_out","","html-keyboard-response","182","225897","0.0-1.0-242.0-0.0","0","0","63953","","null","","","null","26","","","","","","","","","","","","","","","",""
"","ITI","","html-keyboard-response","183","226903","0.0-1.0-243.0","0","0","63953","","null","","","null","26","","","","","","","","","","","","","","","NaN",""
"","S1","","html-keyboard-response","184","227163","0.0-1.0-245.0","0","0","63953","","null","","","null","27","","","","","","","","","","","","","","","",""
"","ISI","","html-keyboard-response","185","228170","0.0-1.0-246.0","0","0","63953","","null","","","null","27","NaN","","","","","","","","","","","","","","",""
"","S2","","html-keyboard-response","186","228423","0.0-1.0-247.0","0","0","63953","","null","","","null","27","","NaN","","","","","","","","","","","","","",""
"","response","","html-keyboard-response","187","228761","0.0-1.0-248.0-0.0","0","0","63953","","336","","","75","27","","","1","27","training","adjacent","GF","7","6","Q.jpg","L.jpg","1","0","0","",""
"","feedback","","html-keyboard-response","188","229764","0.0-1.0-249.0-0.0","0","0","63953","","null","","","null","27","","","","","","","","","","","","","","","",""
"","time_out","","html-keyboard-response","189","231770","0.0-1.0-251.0-0.0","0","0","63953","","null","","","null","27","","","","","","","","","","","","","","","",""
"","ITI","","html-keyboard-response","190","232781","0.0-1.0-252.0","0","0","63953","","null","","","null","27","","","","","","","","","","","","","","","NaN",""
"","S1","","html-keyboard-response","191","233041","0.0-1.0-254.0","0","0","63953","","null","","","null","28","","","","","","","","","","","","","","","",""
"","ISI","","html-keyboard-response","192","234050","0.0-1.0-255.0","0","0","63953","","null","","","null","28","NaN","","","","","","","","","","","","","","",""
"","S2","","html-keyboard-response","193","234303","0.0-1.0-256.0","0","0","63953","","null","","","null","28","","NaN","","","","","","","","","","","","","",""
"","response","","html-keyboard-response","194","234570","0.0-1.0-257.0-0.0","0","0","63953","","266","","","75","28","","","1","28","training","adjacent","EF","5","6","R.jpg","L.jpg","1","1","1","",""
"","feedback","","html-keyboard-response","195","235578","0.0-1.0-258.0-0.0","0","0","63953","","null","","","null","28","","","","","","","","","","","","","","","",""
"","ITI","","html-keyboard-response","196","236584","0.0-1.0-261.0","0","0","63953","","null","","","null","28","","","","","","","","","","","","","","","NaN",""
"","S1","","html-keyboard-response","197","236836","0.0-1.0-263.0","0","0","63953","","null","","","null","29","","","","","","","","","","","","","","","",""
"","ISI","","html-keyboard-response","198","237851","0.0-1.0-264.0","0","0","63953","","null","","","null","29","NaN","","","","","","","","","","","","","","",""
"","S2","","html-keyboard-response","199","238111","0.0-1.0-265.0","0","0","63953","","null","","","null","29","","NaN","","","","","","","","","","","","","",""
"","response","","html-keyboard-response","200","238305","0.0-1.0-266.0-0.0","0","0","63953","","193","","","75","29","","","1","29","training","adjacent","GF","7","6","Q.jpg","L.jpg","1","0","0","",""
"","feedback","","html-keyboard-response","201","239309","0.0-1.0-267.0-0.0","0","0","63953","","null","","","null","29","","","","","","","","","","","","","","","",""
"","time_out","","html-keyboard-response","202","241314","0.0-1.0-269.0-0.0","0","0","63953","","null","","","null","29","","","","","","","","","","","","","","","",""
"","ITI","","html-keyboard-response","203","242319","0.0-1.0-270.0","0","0","63953","","null","","","null","29","","","","","","","","","","","","","","","NaN",""
"","S1","","html-keyboard-response","204","242574","0.0-1.0-272.0","0","0","63953","","null","","","null","30","","","","","","","","","","","","","","","",""
"","ISI","","html-keyboard-response","205","243583","0.0-1.0-273.0","0","0","63953","","null","","","null","30","NaN","","","","","","","","","","","","","","",""
"","S2","","html-keyboard-response","206","243842","0.0-1.0-274.0","0","0","63953","","null","","","null","30","","NaN","","","","","","","","","","","","","",""
"","response","","html-keyboard-response","207","244175","0.0-1.0-275.0-0.0","0","0","63953","","332","","","68","30","","","1","30","training","adjacent","GF","7","6","Q.jpg","L.jpg","0","0","1","",""
"","feedback","","html-keyboard-response","208","245183","0.0-1.0-276.0-0.0","0","0","63953","","null","","","null","30","","","","","","","","","","","","","","","",""
"","ITI","","html-keyboard-response","209","246192","0.0-1.0-279.0","0","0","63953","","null","","","null","30","","","","","","","","","","","","","","","NaN",""
"","S1","","html-keyboard-response","210","246448","0.0-1.0-281.0","0","0","63953","","null","","","null","31","","","","","","","","","","","","","","","",""
"","ISI","","html-keyboard-response","211","247458","0.0-1.0-282.0","0","0","63953","","null","","","null","31","NaN","","","","","","","","","","","","","","",""
"","S2","","html-keyboard-response","212","247715","0.0-1.0-283.0","0","0","63953","","null","","","null","31","","NaN","","","","","","","","","","","","","",""
"","response","","html-keyboard-response","213","247910","0.0-1.0-284.0-0.0","0","0","63953","","192","","","75","31","","","1","31","training","adjacent","DE","4","5","M.jpg","R.jpg","1","1","1","",""
"","feedback","","html-keyboard-response","214","248929","0.0-1.0-285.0-0.0","0","0","63953","","null","","","null","31","","","","","","","","","","","","","","","",""
"","ITI","","html-keyboard-response","215","249936","0.0-1.0-288.0","0","0","63953","","null","","","null","31","","","","","","","","","","","","","","","NaN",""
"","S1","","html-keyboard-response","216","250190","0.0-1.0-290.0","0","0","63953","","null","","","null","32","","","","","","","","","","","","","","","",""
"","ISI","","html-keyboard-response","217","251193","0.0-1.0-291.0","0","0","63953","","null","","","null","32","NaN","","","","","","","","","","","","","","",""
"","S2","","html-keyboard-response","218","251455","0.0-1.0-292.0","0","0","63953","","null","","","null","32","","NaN","","","","","","","","","","","","","",""
"","response","","html-keyboard-response","219","251518","0.0-1.0-293.0-0.0","0","0","63953","","62","","","68","32","","","1","32","training","adjacent","GF","7","6","Q.jpg","L.jpg","0","0","1","",""
"","feedback","","html-keyboard-response","220","252526","0.0-1.0-294.0-0.0","0","0","63953","","null","","","null","32","","","","","","","","","","","","","","","",""
"","ITI","","html-keyboard-response","221","253535","0.0-1.0-297.0","0","0","63953","","null","","","null","32","","","","","","","","","","","","","","","NaN",""
"","S1","","html-keyboard-response","222","253795","0.0-1.0-299.0","0","0","63953","","null","","","null","33","","","","","","","","","","","","","","","",""
"","ISI","","html-keyboard-response","223","254806","0.0-1.0-300.0","0","0","63953","","null","","","null","33","NaN","","","","","","","","","","","","","","",""
"","S2","","html-keyboard-response","224","255062","0.0-1.0-301.0","0","0","63953","","null","","","null","33","","NaN","","","","","","","","","","","","","",""
"","response","","html-keyboard-response","225","255177","0.0-1.0-302.0-0.0","0","0","63953","","113","","","75","33","","","1","33","training","adjacent","FE","6","5","L.jpg","R.jpg","1","0","0","",""
"","feedback","","html-keyboard-response","226","256183","0.0-1.0-303.0-0.0","0","0","63953","","null","","","null","33","","","","","","","","","","","","","","","",""
"","time_out","","html-keyboard-response","227","258194","0.0-1.0-305.0-0.0","0","0","63953","","null","","","null","33","","","","","","","","","","","","","","","",""
"","ITI","","html-keyboard-response","228","259203","0.0-1.0-306.0","0","0","63953","","null","","","null","33","","","","","","","","","","","","","","","NaN",""
"","S1","","html-keyboard-response","229","259462","0.0-1.0-308.0","0","0","63953","","null","","","null","34","","","","","","","","","","","","","","","",""
"","ISI","","html-keyboard-response","230","260465","0.0-1.0-309.0","0","0","63953","","null","","","null","34","NaN","","","","","","","","","","","","","","",""
"","S2","","html-keyboard-response","231","260724","0.0-1.0-310.0","0","0","63953","","null","","","null","34","","NaN","","","","","","","","","","","","","",""
"","response","","html-keyboard-response","232","260770","0.0-1.0-311.0-0.0","0","0","63953","","44","","","68","34","","","1","34","training","adjacent","CB","3","2","P.jpg","N.jpg","0","0","1","",""
"","feedback","","html-keyboard-response","233","261788","0.0-1.0-312.0-0.0","0","0","63953","","null","","","null","34","","","","","","","","","","","","","","","",""
"","ITI","","html-keyboard-response","234","262798","0.0-1.0-315.0","0","0","63953","","null","","","null","34","","","","","","","","","","","","","","","NaN",""
"","S1","","html-keyboard-response","235","263052","0.0-1.0-317.0","0","0","63953","","null","","","null","35","","","","","","","","","","","","","","","",""
"","ISI","","html-keyboard-response","236","264066","0.0-1.0-318.0","0","0","63953","","null","","","null","35","NaN","","","","","","","","","","","","","","",""
"","S2","","html-keyboard-response","237","264326","0.0-1.0-319.0","0","0","63953","","null","","","null","35","","NaN","","","","","","","","","","","","","",""
"","response","","html-keyboard-response","238","264734","0.0-1.0-320.0-0.0","0","0","63953","","406","","","68","35","","","1","35","training","adjacent","AB","1","2","O.jpg","N.jpg","0","1","0","",""
"","feedback","","html-keyboard-response","239","265742","0.0-1.0-321.0-0.0","0","0","63953","","null","","","null","35","","","","","","","","","","","","","","","",""
"","time_out","","html-keyboard-response","240","267751","0.0-1.0-323.0-0.0","0","0","63953","","null","","","null","35","","","","","","","","","","","","","","","",""
"","ITI","","html-keyboard-response","241","268759","0.0-1.0-324.0","0","0","63953","","null","","","null","35","","","","","","","","","","","","","","","NaN",""
"","S1","","html-keyboard-response","242","269020","0.0-1.0-326.0","0","0","63953","","null","","","null","36","","","","","","","","","","","","","","","",""
"","ISI","","html-keyboard-response","243","270029","0.0-1.0-327.0","0","0","63953","","null","","","null","36","NaN","","","","","","","","","","","","","","",""
"","S2","","html-keyboard-response","244","270282","0.0-1.0-328.0","0","0","63953","","null","","","null","36","","NaN","","","","","","","","","","","","","",""
"","response","","html-keyboard-response","245","270647","0.0-1.0-329.0-0.0","0","0","63953","","364","","","75","36","","","1","36","training","adjacent","BC","2","3","N.jpg","P.jpg","1","1","1","",""
"","feedback","","html-keyboard-response","246","271655","0.0-1.0-330.0-0.0","0","0","63953","","null","","","null","36","","","","","","","","","","","","","","","",""
"","ITI","","html-keyboard-response","247","272662","0.0-1.0-333.0","0","0","63953","","null","","","null","36","","","","","","","","","","","","","","","NaN",""
"","S1","","html-keyboard-response","248","272915","0.0-1.0-335.0","0","0","63953","","null","","","null","37","","","","","","","","","","","","","","","",""
"","ISI","","html-keyboard-response","249","273925","0.0-1.0-336.0","0","0","63953","","null","","","null","37","NaN","","","","","","","","","","","","","","",""
"","S2","","html-keyboard-response","250","274178","0.0-1.0-337.0","0","0","63953","","null","","","null","37","","NaN","","","","","","","","","","","","","",""
"","response","","html-keyboard-response","251","274530","0.0-1.0-338.0-0.0","0","0","63953","","351","","","75","37","","","1","37","training","adjacent","AB","1","2","O.jpg","N.jpg","1","1","1","",""
"","feedback","","html-keyboard-response","252","275539","0.0-1.0-339.0-0.0","0","0","63953","","null","","","null","37","","","","","","","","","","","","","","","",""
"","ITI","","html-keyboard-response","253","276553","0.0-1.0-342.0","0","0","63953","","null","","","null","37","","","","","","","","","","","","","","","NaN",""
"","S1","","html-keyboard-response","254","276821","0.0-1.0-344.0","0","0","63953","","null","","","null","38","","","","","","","","","","","","","","","",""
"","ISI","","html-keyboard-response","255","277827","0.0-1.0-345.0","0","0","63953","","null","","","null","38","NaN","","","","","","","","","","","","","","",""
"","S2","","html-keyboard-response","256","278095","0.0-1.0-346.0","0","0","63953","","null","","","null","38","","NaN","","","","","","","","","","","","","",""
"","response","","html-keyboard-response","257","278374","0.0-1.0-347.0-0.0","0","0","63953","","276","","","75","38","","","1","38","training","adjacent","CB","3","2","P.jpg","N.jpg","1","0","0","",""
"","feedback","","html-keyboard-response","258","279379","0.0-1.0-348.0-0.0","0","0","63953","","null","","","null","38","","","","","","","","","","","","","","","",""
"","time_out","","html-keyboard-response","259","281387","0.0-1.0-350.0-0.0","0","0","63953","","null","","","null","38","","","","","","","","","","","","","","","",""
"","ITI","","html-keyboard-response","260","282390","0.0-1.0-351.0","0","0","63953","","null","","","null","38","","","","","","","","","","","","","","","NaN",""
"","S1","","html-keyboard-response","261","282653","0.0-1.0-353.0","0","0","63953","","null","","","null","39","","","","","","","","","","","","","","","",""
"","ISI","","html-keyboard-response","262","283669","0.0-1.0-354.0","0","0","63953","","null","","","null","39","NaN","","","","","","","","","","","","","","",""
"","S2","","html-keyboard-response","263","283922","0.0-1.0-355.0","0","0","63953","","null","","","null","39","","NaN","","","","","","","","","","","","","",""
"","response","","html-keyboard-response","264","284042","0.0-1.0-356.0-0.0","0","0","63953","","119","","","68","39","","","1","39","training","adjacent","FG","6","7","L.jpg","Q.jpg","0","1","0","",""
"","feedback","","html-keyboard-response","265","285055","0.0-1.0-357.0-0.0","0","0","63953","","null","","","null","39","","","","","","","","","","","","","","","",""
"","time_out","","html-keyboard-response","266","287063","0.0-1.0-359.0-0.0","0","0","63953","","null","","","null","39","","","","","","","","","","","","","","","",""
"","ITI","","html-keyboard-response","267","288073","0.0-1.0-360.0","0","0","63953","","null","","","null","39","","","","","","","","","","","","","","","NaN",""
"","S1","","html-keyboard-response","268","288328","0.0-1.0-362.0","0","0","63953","","null","","","null","40","","","","","","","","","","","","","","","",""
"","ISI","","html-keyboard-response","269","289334","0.0-1.0-363.0","0","0","63953","","null","","","null","40","NaN","","","","","","","","","","","","","","",""
"","S2","","html-keyboard-response","270","289587","0.0-1.0-364.0","0","0","63953","","null","","","null","40","","NaN","","","","","","","","","","","","","",""
"","response","","html-keyboard-response","271","289707","0.0-1.0-365.0-0.0","0","0","63953","","119","","","75","40","","","1","40","training","adjacent","EF","5","6","R.jpg","L.jpg","1","1","1","",""
"","feedback","","html-keyboard-response","272","290715","0.0-1.0-366.0-0.0","0","0","63953","","null","","","null","40","","","","","","","","","","","","","","","",""
"","ITI","","html-keyboard-response","273","291725","0.0-1.0-369.0","0","0","63953","","null","","","null","40","","","","","","","","","","","","","","","NaN",""
"","S1","","html-keyboard-response","274","291984","0.0-1.0-371.0","0","0","63953","","null","","","null","41","","","","","","","","","","","","","","","",""
"","ISI","","html-keyboard-response","275","292991","0.0-1.0-372.0","0","0","63953","","null","","","null","41","NaN","","","","","","","","","","","","","","",""
"","S2","","html-keyboard-response","276","293259","0.0-1.0-373.0","0","0","63953","","null","","","null","41","","NaN","","","","","","","","","","","","","",""
"","response","","html-keyboard-response","277","293535","0.0-1.0-374.0-0.0","0","0","63953","","273","","","75","41","","","1","41","training","adjacent","BA","2","1","N.jpg","O.jpg","1","0","0","",""
"","feedback","","html-keyboard-response","278","294543","0.0-1.0-375.0-0.0","0","0","63953","","null","","","null","41","","","","","","","","","","","","","","","",""
"","time_out","","html-keyboard-response","279","296550","0.0-1.0-377.0-0.0","0","0","63953","","null","","","null","41","","","","","","","","","","","","","","","",""
"","ITI","","html-keyboard-response","280","297559","0.0-1.0-378.0","0","0","63953","","null","","","null","41","","","","","","","","","","","","","","","NaN",""
"","S1","","html-keyboard-response","281","297817","0.0-1.0-380.0","0","0","63953","","null","","","null","42","","","","","","","","","","","","","","","",""
"","ISI","","html-keyboard-response","282","298824","0.0-1.0-381.0","0","0","63953","","null","","","null","42","NaN","","","","","","","","","","","","","","",""
"","S2","","html-keyboard-response","283","299084","0.0-1.0-382.0","0","0","63953","","null","","","null","42","","NaN","","","","","","","","","","","","","",""
"","response","","html-keyboard-response","284","299152","0.0-1.0-383.0-0.0","0","0","63953","","67","","","68","42","","","1","42","training","adjacent","FG","6","7","L.jpg","Q.jpg","0","1","0","",""
"","feedback","","html-keyboard-response","285","300161","0.0-1.0-384.0-0.0","0","0","63953","","null","","","null","42","","","","","","","","","","","","","","","",""
"","time_out","","html-keyboard-response","286","302170","0.0-1.0-386.0-0.0","0","0","63953","","null","","","null","42","","","","","","","","","","","","","","","",""
"","ITI","","html-keyboard-response","287","303174","0.0-1.0-387.0","0","0","63953","","null","","","null","42","","","","","","","","","","","","","","","NaN",""
"","S1","","html-keyboard-response","288","303433","0.0-1.0-389.0","0","0","63953","","null","","","null","43","","","","","","","","","","","","","","","",""
"","ISI","","html-keyboard-response","289","304442","0.0-1.0-390.0","0","0","63953","","128","","","75","43","k","","","","","","","","","","","","","","",""
"","S2","","html-keyboard-response","290","304696","0.0-1.0-391.0","0","0","63953","","null","","","null","43","","NaN","","","","","","","","","","","","","",""
"","response","","html-keyboard-response","291","304821","0.0-1.0-392.0-0.0","0","0","63953","","122","","","75","43","","","1","43","training","adjacent","BA","2","1","N.jpg","O.jpg","1","0","0","",""
"","feedback","","html-keyboard-response","292","305831","0.0-1.0-393.0-0.0","0","0","63953","","null","","","null","43","","","","","","","","","","","","","","","",""
"","time_out","","html-keyboard-response","293","307835","0.0-1.0-395.0-0.0","0","0","63953","","null","","","null","43","","","","","","","","","","","","","","","",""
"","ITI","","html-keyboard-response","294","308845","0.0-1.0-396.0","0","0","63953","","null","","","null","43","","","","","","","","","","","","","","","NaN",""
"","S1","","html-keyboard-response","295","309106","0.0-1.0-398.0","0","0","63953","","null","","","null","44","","","","","","","","","","","","","","","",""
"","ISI","","html-keyboard-response","296","310111","0.0-1.0-399.0","0","0","63953","","null","","","null","44","NaN","","","","","","","","","","","","","","",""
"","S2","","html-keyboard-response","297","310338","0.0-1.0-400.0","0","0","63953","","224","","","75","44","","k","1","44","training","adjacent","BC","2","3","N.jpg","P.jpg","1","1","1","",""
"","feedback","","html-keyboard-response","298","311347","0.0-1.0-402.0-0.0","0","0","63953","","null","","","null","44","","","","","","","","","","","","","","","",""
"","ITI","","html-keyboard-response","299","312363","0.0-1.0-405.0","0","0","63953","","null","","","null","44","","","","","","","","","","","","","","","NaN",""
"","S1","","html-keyboard-response","300","312618","0.0-1.0-407.0","0","0","63953","","null","","","null","45","","","","","","","","","","","","","","","",""
"","ISI","","html-keyboard-response","301","313624","0.0-1.0-408.0","0","0","63953","","null","","","null","45","NaN","","","","","","","","","","","","","","",""
"","S2","","html-keyboard-response","302","313883","0.0-1.0-409.0","0","0","63953","","null","","","null","45","","NaN","","","","","","","","","","","","","",""
"","response","","html-keyboard-response","303","314035","0.0-1.0-410.0-0.0","0","0","63953","","150","","","75","45","","","1","45","training","adjacent","FG","6","7","L.jpg","Q.jpg","1","1","1","",""
"","feedback","","html-keyboard-response","304","315042","0.0-1.0-411.0-0.0","0","0","63953","","null","","","null","45","","","","","","","","","","","","","","","",""
"","ITI","","html-keyboard-response","305","316049","0.0-1.0-414.0","0","0","63953","","null","","","null","45","","","","","","","","","","","","","","","NaN",""
"","S1","","html-keyboard-response","306","316305","0.0-1.0-416.0","0","0","63953","","null","","","null","46","","","","","","","","","","","","","","","",""
"","ISI","","html-keyboard-response","307","317316","0.0-1.0-417.0","0","0","63953","","null","","","null","46","NaN","","","","","","","","","","","","","","",""
"","S2","","html-keyboard-response","308","317518","0.0-1.0-418.0","0","0","63953","","201","","","75","46","","k","1","46","training","adjacent","FG","6","7","L.jpg","Q.jpg","1","1","1","",""
"","feedback","","html-keyboard-response","309","318532","0.0-1.0-420.0-0.0","0","0","63953","","null","","","null","46","","","","","","","","","","","","","","","",""
"","ITI","","html-keyboard-response","310","319541","0.0-1.0-423.0","0","0","63953","","null","","","null","46","","","","","","","","","","","","","","","NaN",""
"","S1","","html-keyboard-response","311","319802","0.0-1.0-425.0","0","0","63953","","null","","","null","47","","","","","","","","","","","","","","","",""
"","ISI","","html-keyboard-response","312","320809","0.0-1.0-426.0","0","0","63953","","null","","","null","47","NaN","","","","","","","","","","","","","","",""
"","S2","","html-keyboard-response","313","321024","0.0-1.0-427.0","0","0","63953","","212","","","75","47","","k","1","47","training","adjacent","ED","5","4","R.jpg","M.jpg","1","0","0","",""
"","feedback","","html-keyboard-response","314","322033","0.0-1.0-429.0-0.0","0","0","63953","","null","","","null","47","","","","","","","","","","","","","","","",""
"","time_out","","html-keyboard-response","315","324038","0.0-1.0-431.0-0.0","0","0","63953","","null","","","null","47","","","","","","","","","","","","","","","",""
"","ITI","","html-keyboard-response","316","325045","0.0-1.0-432.0","0","0","63953","","null","","","null","47","","","","","","","","","","","","","","","NaN",""
"","block_over","","html-keyboard-response","317","331066","0.0-1.0-433.0-0.0","0","0","63953","","6017","","","32","47","","","","","","","","","","","","","","","",""
"","S1","","html-keyboard-response","318","331327","0.0-1.0-434.0","0","0","63953","","null","","","null","48","","","","","","","","","","","","","","","",""
"","ISI","","html-keyboard-response","319","332331","0.0-1.0-435.0","0","0","63953","","null","","","null","48","NaN","","","","","","","","","","","","","","",""
"","S2","","html-keyboard-response","320","332504","0.0-1.0-436.0","0","0","63953","","171","","","68","48","","d","2","48","training","adjacent","AB","1","2","O.jpg","N.jpg","0","1","0","",""
"","feedback","","html-keyboard-response","321","333510","0.0-1.0-438.0-0.0","0","0","63953","","null","","","null","48","","","","","","","","","","","","","","","",""
"","time_out","","html-keyboard-response","322","335513","0.0-1.0-440.0-0.0","0","0","63953","","null","","","null","48","","","","","","","","","","","","","","","",""
"","ITI","","html-keyboard-response","323","336515","0.0-1.0-441.0","0","0","63953","","null","","","null","48","","","","","","","","","","","","","","","NaN",""
"","S1","","html-keyboard-response","324","336768","0.0-1.0-443.0","0","0","63953","","null","","","null","49","","","","","","","","","","","","","","","",""
"","ISI","","html-keyboard-response","325","337773","0.0-1.0-444.0","0","0","63953","","null","","","null","49","NaN","","","","","","","","","","","","","","",""
"","S2","","html-keyboard-response","326","338015","0.0-1.0-445.0","0","0","63953","","239","","","75","49","","k","2","49","training","adjacent","FE","6","5","L.jpg","R.jpg","1","0","0","",""
"","feedback","","html-keyboard-response","327","339024","0.0-1.0-447.0-0.0","0","0","63953","","null","","","null","49","","","","","","","","","","","","","","","",""
"","time_out","","html-keyboard-response","328","341032","0.0-1.0-449.0-0.0","0","0","63953","","null","","","null","49","","","","","","","","","","","","","","","",""
"","ITI","","html-keyboard-response","329","342041","0.0-1.0-450.0","0","0","63953","","null","","","null","49","","","","","","","","","","","","","","","NaN",""
"","S1","","html-keyboard-response","330","342297","0.0-1.0-452.0","0","0","63953","","null","","","null","50","","","","","","","","","","","","","","","",""
"","ISI","","html-keyboard-response","331","343304","0.0-1.0-453.0","0","0","63953","","null","","","null","50","NaN","","","","","","","","","","","","","","",""
"","S2","","html-keyboard-response","332","343441","0.0-1.0-454.0","0","0","63953","","134","","","68","50","","d","2","50","training","adjacent","CB","3","2","P.jpg","N.jpg","0","0","1","",""
"","feedback","","html-keyboard-response","333","344444","0.0-1.0-456.0-0.0","0","0","63953","","null","","","null","50","","","","","","","","","","","","","","","",""
"","ITI","","html-keyboard-response","334","345447","0.0-1.0-459.0","0","0","63953","","null","","","null","50","","","","","","","","","","","","","","","NaN",""
"","S1","","html-keyboard-response","335","345702","0.0-1.0-461.0","0","0","63953","","null","","","null","51","","","","","","","","","","","","","","","",""
"","ISI","","html-keyboard-response","336","346709","0.0-1.0-462.0","0","0","63953","","null","","","null","51","NaN","","","","","","","","","","","","","","",""
"","S2","","html-keyboard-response","337","346965","0.0-1.0-463.0","0","0","63953","","null","","","null","51","","NaN","","","","","","","","","","","","","",""
"","response","","html-keyboard-response","338","347018","0.0-1.0-464.0-0.0","0","0","63953","","52","","","68","51","","","2","51","training","adjacent","AB","1","2","O.jpg","N.jpg","0","1","0","",""
"","feedback","","html-keyboard-response","339","348033","0.0-1.0-465.0-0.0","0","0","63953","","null","","","null","51","","","","","","","","","","","","","","","",""
"","time_out","","html-keyboard-response","340","350036","0.0-1.0-467.0-0.0","0","0","63953","","null","","","null","51","","","","","","","","","","","","","","","",""
"","ITI","","html-keyboard-response","341","351042","0.0-1.0-468.0","0","0","63953","","null","","","null","51","","","","","","","","","","","","","","","NaN",""
"","S1","","html-keyboard-response","342","351297","0.0-1.0-470.0","0","0","63953","","null","","","null","52","","","","","","","","","","","","","","","",""
"","ISI","","html-keyboard-response","343","352307","0.0-1.0-471.0","0","0","63953","","null","","","null","52","NaN","","","","","","","","","","","","","","",""
"","S2","","html-keyboard-response","344","352561","0.0-1.0-472.0","0","0","63953","","null","","","null","52","","NaN","","","","","","","","","","","","","",""
"","response","","html-keyboard-response","345","352645","0.0-1.0-473.0-0.0","0","0","63953","","82","","","75","52","","","2","52","training","adjacent","ED","5","4","R.jpg","M.jpg","1","0","0","",""
"","feedback","","html-keyboard-response","346","353655","0.0-1.0-474.0-0.0","0","0","63953","","null","","","null","52","","","","","","","","","","","","","","","",""
"","time_out","","html-keyboard-response","347","355664","0.0-1.0-476.0-0.0","0","0","63953","","null","","","null","52","","","","","","","","","","","","","","","",""
"","ITI","","html-keyboard-response","348","356672","0.0-1.0-477.0","0","0","63953","","null","","","null","52","","","","","","","","","","","","","","","NaN",""
"","S1","","html-keyboard-response","349","356930","0.0-1.0-479.0","0","0","63953","","null","","","null","53","","","","","","","","","","","","","","","",""
"","ISI","","html-keyboard-response","350","357934","0.0-1.0-480.0","0","0","63953","","null","","","null","53","NaN","","","","","","","","","","","","","","",""
"","S2","","html-keyboard-response","351","358190","0.0-1.0-481.0","0","0","63953","","null","","","null","53","","NaN","","","","","","","","","","","","","",""
"","response","","html-keyboard-response","352","358282","0.0-1.0-482.0-0.0","0","0","63953","","90","","","75","53","","","2","53","training","adjacent","DE","4","5","M.jpg","R.jpg","1","1","1","",""
"","feedback","","html-keyboard-response","353","359285","0.0-1.0-483.0-0.0","0","0","63953","","null","","","null","53","","","","","","","","","","","","","","","",""
"","ITI","","html-keyboard-response","354","360300","0.0-1.0-486.0","0","0","63953","","null","","","null","53","","","","","","","","","","","","","","","NaN",""
"","S1","","html-keyboard-response","355","360554","0.0-1.0-488.0","0","0","63953","","null","","","null","54","","","","","","","","","","","","","","","",""
"","ISI","","html-keyboard-response","356","361561","0.0-1.0-489.0","0","0","63953","","null","","","null","54","NaN","","","","","","","","","","","","","","",""
"","S2","","html-keyboard-response","357","361817","0.0-1.0-490.0","0","0","63953","","null","","","null","54","","NaN","","","","","","","","","","","","","",""
"","response","","html-keyboard-response","358","361898","0.0-1.0-491.0-0.0","0","0","63953","","79","","","75","54","","","2","54","training","adjacent","AB","1","2","O.jpg","N.jpg","1","1","1","",""
"","feedback","","html-keyboard-response","359","362903","0.0-1.0-492.0-0.0","0","0","63953","","null","","","null","54","","","","","","","","","","","","","","","",""
"","ITI","","html-keyboard-response","360","363907","0.0-1.0-495.0","0","0","63953","","null","","","null","54","","","","","","","","","","","","","","","NaN",""
"","S1","","html-keyboard-response","361","364165","0.0-1.0-497.0","0","0","63953","","null","","","null","55","","","","","","","","","","","","","","","",""
"","ISI","","html-keyboard-response","362","365169","0.0-1.0-498.0","0","0","63953","","null","","","null","55","NaN","","","","","","","","","","","","","","",""
"","S2","","html-keyboard-response","363","365429","0.0-1.0-499.0","0","0","63953","","null","","","null","55","","NaN","","","","","","","","","","","","","",""
"","response","","html-keyboard-response","364","365479","0.0-1.0-500.0-0.0","0","0","63953","","47","","","75","55","","","2","55","training","adjacent","FG","6","7","L.jpg","Q.jpg","1","1","1","",""
"","feedback","","html-keyboard-response","365","366486","0.0-1.0-501.0-0.0","0","0","63953","","null","","","null","55","","","","","","","","","","","","","","","",""
"","ITI","","html-keyboard-response","366","367493","0.0-1.0-504.0","0","0","63953","","null","","","null","55","","","","","","","","","","","","","","","NaN",""
"","S1","","html-keyboard-response","367","367748","0.0-1.0-506.0","0","0","63953","","null","","","null","56","","","","","","","","","","","","","","","",""
"","ISI","","html-keyboard-response","368","368760","0.0-1.0-507.0","0","0","63953","","null","","","null","56","NaN","","","","","","","","","","","","","","",""
"","S2","","html-keyboard-response","369","369019","0.0-1.0-508.0","0","0","63953","","null","","","null","56","","NaN","","","","","","","","","","","","","",""
"","response","","html-keyboard-response","370","369031","0.0-1.0-509.0-0.0","0","0","63953","","10","","","75","56","","","2","56","training","adjacent","ED","5","4","R.jpg","M.jpg","1","0","0","",""
"","feedback","","html-keyboard-response","371","370047","0.0-1.0-510.0-0.0","0","0","63953","","null","","","null","56","","","","","","","","","","","","","","","",""
"","time_out","","html-keyboard-response","372","372054","0.0-1.0-512.0-0.0","0","0","63953","","null","","","null","56","","","","","","","","","","","","","","","",""
"","ITI","","html-keyboard-response","373","373059","0.0-1.0-513.0","0","0","63953","","null","","","null","56","","","","","","","","","","","","","","","NaN",""
"","S1","","html-keyboard-response","374","373311","0.0-1.0-515.0","0","0","63953","","null","","","null","57","","","","","","","","","","","","","","","",""
"","ISI","","html-keyboard-response","375","374316","0.0-1.0-516.0","0","0","63953","","null","","","null","57","NaN","","","","","","","","","","","","","","",""
"","S2","","html-keyboard-response","376","374571","0.0-1.0-517.0","0","0","63953","","null","","","null","57","","NaN","","","","","","","","","","","","","",""
"","response","","html-keyboard-response","377","374581","0.0-1.0-518.0-0.0","0","0","63953","","7","","","68","57","","","2","57","training","adjacent","AB","1","2","O.jpg","N.jpg","0","1","0","",""
"","feedback","","html-keyboard-response","378","375591","0.0-1.0-519.0-0.0","0","0","63953","","null","","","null","57","","","","","","","","","","","","","","","",""
"","time_out","","html-keyboard-response","379","377602","0.0-1.0-521.0-0.0","0","0","63953","","null","","","null","57","","","","","","","","","","","","","","","",""
"","ITI","","html-keyboard-response","380","378610","0.0-1.0-522.0","0","0","63953","","null","","","null","57","","","","","","","","","","","","","","","NaN",""
"","S1","","html-keyboard-response","381","378870","0.0-1.0-524.0","0","0","63953","","null","","","null","58","","","","","","","","","","","","","","","",""
"","ISI","","html-keyboard-response","382","379875","0.0-1.0-525.0","0","0","63953","","907","","","68","58","d","","","","","","","","","","","","","","",""
"","S2","","html-keyboard-response","383","380130","0.0-1.0-526.0","0","0","63953","","null","","","null","58","","NaN","","","","","","","","","","","","","",""
"","response","","html-keyboard-response","384","380342","0.0-1.0-527.0-0.0","0","0","63953","","209","","","68","58","","","2","58","training","adjacent","CD","3","4","P.jpg","M.jpg","0","1","0","",""
"","feedback","","html-keyboard-response","385","381350","0.0-1.0-528.0-0.0","0","0","63953","","null","","","null","58","","","","","","","","","","","","","","","",""
"","time_out","","html-keyboard-response","386","383355","0.0-1.0-530.0-0.0","0","0","63953","","null","","","null","58","","","","","","","","","","","","","","","",""
"","ITI","","html-keyboard-response","387","384362","0.0-1.0-531.0","0","0","63953","","null","","","null","58","","","","","","","","","","","","","","","NaN",""
"","S1","","html-keyboard-response","388","384618","0.0-1.0-533.0","0","0","63953","","null","","","null","59","","","","","","","","","","","","","","","",""
"","ISI","","html-keyboard-response","389","385621","0.0-1.0-534.0","0","0","63953","","null","","","null","59","NaN","","","","","","","","","","","","","","",""
"","S2","","html-keyboard-response","390","385874","0.0-1.0-535.0","0","0","63953","","null","","","null","59","","NaN","","","","","","","","","","","","","",""
"","response","","html-keyboard-response","391","385924","0.0-1.0-536.0-0.0","0","0","63953","","47","","","75","59","","","2","59","training","adjacent","CD","3","4","P.jpg","M.jpg","1","1","1","",""
"","feedback","","html-keyboard-response","392","386929","0.0-1.0-537.0-0.0","0","0","63953","","null","","","null","59","","","","","","","","","","","","","","","",""
"","ITI","","html-keyboard-response","393","387937","0.0-1.0-540.0","0","0","63953","","null","","","null","59","","","","","","","","","","","","","","","NaN",""
"","S1","","html-keyboard-response","394","388195","0.0-1.0-542.0","0","0","63953","","null","","","null","60","","","","","","","","","","","","","","","",""
"","ISI","","html-keyboard-response","395","389199","0.0-1.0-543.0","0","0","63953","","null","","","null","60","NaN","","","","","","","","","","","","","","",""
"","S2","","html-keyboard-response","396","389452","0.0-1.0-544.0","0","0","63953","","null","","","null","60","","NaN","","","","","","","","","","","","","",""
"","response","","html-keyboard-response","397","389460","0.0-1.0-545.0-0.0","0","0","63953","","6","","","75","60","","","2","60","training","adjacent","GF","7","6","Q.jpg","L.jpg","1","0","0","",""
"","feedback","","html-keyboard-response","398","390465","0.0-1.0-546.0-0.0","0","0","63953","","null","","","null","60","","","","","","","","","","","","","","","",""
"","time_out","","html-keyboard-response","399","392472","0.0-1.0-548.0-0.0","0","0","63953","","null","","","null","60","","","","","","","","","","","","","","","",""
"","ITI","","html-keyboard-response","400","393482","0.0-1.0-549.0","0","0","63953","","null","","","null","60","","","","","","","","","","","","","","","NaN",""
"","S1","","html-keyboard-response","401","393741","0.0-1.0-551.0","0","0","63953","","null","","","null","61","","","","","","","","","","","","","","","",""
"","ISI","","html-keyboard-response","402","394749","0.0-1.0-552.0","0","0","63953","","916","","","75","61","k","","","","","","","","","","","","","","",""
"","S2","","html-keyboard-response","403","395004","0.0-1.0-553.0","0","0","63953","","null","","","null","61","","NaN","","","","","","","","","","","","","",""
"","response","","html-keyboard-response","404","395157","0.0-1.0-554.0-0.0","0","0","63953","","151","","","75","61","","","2","61","training","adjacent","EF","5","6","R.jpg","L.jpg","1","1","1","",""
"","feedback","","html-keyboard-response","405","396164","0.0-1.0-555.0-0.0","0","0","63953","","null","","","null","61","","","","","","","","","","","","","","","",""
"","ITI","","html-keyboard-response","406","397166","0.0-1.0-558.0","0","0","63953","","null","","","null","61","","","","","","","","","","","","","","","NaN",""
"","S1","","html-keyboard-response","407","397419","0.0-1.0-560.0","0","0","63953","","null","","","null","62","","","","","","","","","","","","","","","",""
"","ISI","","html-keyboard-response","408","398425","0.0-1.0-561.0","0","0","63953","","null","","","null","62","NaN","","","","","","","","","","","","","","",""
"","S2","","html-keyboard-response","409","398684","0.0-1.0-562.0","0","0","63953","","null","","","null","62","","NaN","","","","","","","","","","","","","",""
"","response","","html-keyboard-response","410","398773","0.0-1.0-563.0-0.0","0","0","63953","","86","","","75","62","","","2","62","training","adjacent","BA","2","1","N.jpg","O.jpg","1","0","0","",""
"","feedback","","html-keyboard-response","411","399784","0.0-1.0-564.0-0.0","0","0","63953","","null","","","null","62","","","","","","","","","","","","","","","",""
"","time_out","","html-keyboard-response","412","401791","0.0-1.0-566.0-0.0","0","0","63953","","null","","","null","62","","","","","","","","","","","","","","","",""
"","ITI","","html-keyboard-response","413","402797","0.0-1.0-567.0","0","0","63953","","null","","","null","62","","","","","","","","","","","","","","","NaN",""
"","S1","","html-keyboard-response","414","403056","0.0-1.0-569.0","0","0","63953","","null","","","null","63","","","","","","","","","","","","","","","",""
"","ISI","","html-keyboard-response","415","404061","0.0-1.0-570.0","0","0","63953","","null","","","null","63","NaN","","","","","","","","","","","","","","",""
"","S2","","html-keyboard-response","416","404231","0.0-1.0-571.0","0","0","63953","","168","","","75","63","","k","2","63","training","adjacent","DE","4","5","M.jpg","R.jpg","1","1","1","",""
"","feedback","","html-keyboard-response","417","405241","0.0-1.0-573.0-0.0","0","0","63953","","null","","","null","63","","","","","","","","","","","","","","","",""
"","ITI","","html-keyboard-response","418","406251","0.0-1.0-576.0","0","0","63953","","null","","","null","63","","","","","","","","","","","","","","","NaN",""
"","S1","","html-keyboard-response","419","406509","0.0-1.0-578.0","0","0","63953","","null","","","null","64","","","","","","","","","","","","","","","",""
"","ISI","","html-keyboard-response","420","407513","0.0-1.0-579.0","0","0","63953","","null","","","null","64","NaN","","","","","","","","","","","","","","",""
"","S2","","html-keyboard-response","421","407582","0.0-1.0-580.0","0","0","63953","","67","","","75","64","","k","2","64","training","adjacent","CB","3","2","P.jpg","N.jpg","1","0","0","",""
"","feedback","","html-keyboard-response","422","408593","0.0-1.0-582.0-0.0","0","0","63953","","null","","","null","64","","","","","","","","","","","","","","","",""
"","time_out","","html-keyboard-response","423","410596","0.0-1.0-584.0-0.0","0","0","63953","","null","","","null","64","","","","","","","","","","","","","","","",""
"","ITI","","html-keyboard-response","424","411606","0.0-1.0-585.0","0","0","63953","","null","","","null","64","","","","","","","","","","","","","","","NaN",""
"","S1","","html-keyboard-response","425","411862","0.0-1.0-587.0","0","0","63953","","null","","","null","65","","","","","","","","","","","","","","","",""
"","ISI","","html-keyboard-response","426","412868","0.0-1.0-588.0","0","0","63953","","null","","","null","65","NaN","","","","","","","","","","","","","","",""
"","S2","","html-keyboard-response","427","412966","0.0-1.0-589.0","0","0","63953","","96","","","75","65","","k","2","65","training","adjacent","FG","6","7","L.jpg","Q.jpg","1","1","1","",""
"","feedback","","html-keyboard-response","428","413973","0.0-1.0-591.0-0.0","0","0","63953","","null","","","null","65","","","","","","","","","","","","","","","",""
"","ITI","","html-keyboard-response","429","414982","0.0-1.0-594.0","0","0","63953","","null","","","null","65","","","","","","","","","","","","","","","NaN",""
"","S1","","html-keyboard-response","430","415240","0.0-1.0-596.0","0","0","63953","","null","","","null","66","","","","","","","","","","","","","","","",""
"","ISI","","html-keyboard-response","431","416251","0.0-1.0-597.0","0","0","63953","","null","","","null","66","NaN","","","","","","","","","","","","","","",""
"","S2","","html-keyboard-response","432","416420","0.0-1.0-598.0","0","0","63953","","166","","","68","66","","d","2","66","training","adjacent","ED","5","4","R.jpg","M.jpg","0","0","1","",""
"","feedback","","html-keyboard-response","433","417429","0.0-1.0-600.0-0.0","0","0","63953","","null","","","null","66","","","","","","","","","","","","","","","",""
"","ITI","","html-keyboard-response","434","418437","0.0-1.0-603.0","0","0","63953","","null","","","null","66","","","","","","","","","","","","","","","NaN",""
"","S1","","html-keyboard-response","435","418691","0.0-1.0-605.0","0","0","63953","","null","","","null","67","","","","","","","","","","","","","","","",""
"","ISI","","html-keyboard-response","436","419699","0.0-1.0-606.0","0","0","63953","","null","","","null","67","NaN","","","","","","","","","","","","","","",""
"","S2","","html-keyboard-response","437","419913","0.0-1.0-607.0","0","0","63953","","211","","","75","67","","k","2","67","training","adjacent","DC","4","3","M.jpg","P.jpg","1","0","0","",""
"","feedback","","html-keyboard-response","438","420921","0.0-1.0-609.0-0.0","0","0","63953","","null","","","null","67","","","","","","","","","","","","","","","",""
"","time_out","","html-keyboard-response","439","422930","0.0-1.0-611.0-0.0","0","0","63953","","null","","","null","67","","","","","","","","","","","","","","","",""
"","ITI","","html-keyboard-response","440","423940","0.0-1.0-612.0","0","0","63953","","null","","","null","67","","","","","","","","","","","","","","","NaN",""
"","S1","","html-keyboard-response","441","424200","0.0-1.0-614.0","0","0","63953","","null","","","null","68","","","","","","","","","","","","","","","",""
"","ISI","","html-keyboard-response","442","425218","0.0-1.0-615.0","0","0","63953","","null","","","null","68","NaN","","","","","","","","","","","","","","",""
"","S2","","html-keyboard-response","443","425460","0.0-1.0-616.0","0","0","63953","","239","","","75","68","","k","2","68","training","adjacent","CB","3","2","P.jpg","N.jpg","1","0","0","",""
"","feedback","","html-keyboard-response","444","426478","0.0-1.0-618.0-0.0","0","0","63953","","null","","","null","68","","","","","","","","","","","","","","","",""
"","time_out","","html-keyboard-response","445","428496","0.0-1.0-620.0-0.0","0","0","63953","","null","","","null","68","","","","","","","","","","","","","","","",""
"","ITI","","html-keyboard-response","446","429506","0.0-1.0-621.0","0","0","63953","","null","","","null","68","","","","","","","","","","","","","","","NaN",""
"","S1","","html-keyboard-response","447","429763","0.0-1.0-623.0","0","0","63953","","null","","","null","69","","","","","","","","","","","","","","","",""
"","ISI","","html-keyboard-response","448","430771","0.0-1.0-624.0","0","0","63953","","null","","","null","69","NaN","","","","","","","","","","","","","","",""
"","S2","","html-keyboard-response","449","431002","0.0-1.0-625.0","0","0","63953","","229","","","75","69","","k","2","69","training","adjacent","FE","6","5","L.jpg","R.jpg","1","0","0","",""
"","feedback","","html-keyboard-response","450","432009","0.0-1.0-627.0-0.0","0","0","63953","","null","","","null","69","","","","","","","","","","","","","","","",""
"","time_out","","html-keyboard-response","451","434015","0.0-1.0-629.0-0.0","0","0","63953","","null","","","null","69","","","","","","","","","","","","","","","",""
"","ITI","","html-keyboard-response","452","435024","0.0-1.0-630.0","0","0","63953","","null","","","null","69","","","","","","","","","","","","","","","NaN",""
"","S1","","html-keyboard-response","453","435280","0.0-1.0-632.0","0","0","63953","","null","","","null","70","","","","","","","","","","","","","","","",""
"","ISI","","html-keyboard-response","454","436283","0.0-1.0-633.0","0","0","63953","","null","","","null","70","NaN","","","","","","","","","","","","","","",""
"","S2","","html-keyboard-response","455","436412","0.0-1.0-634.0","0","0","63953","","128","","","75","70","","k","2","70","training","adjacent","BA","2","1","N.jpg","O.jpg","1","0","0","",""
"","feedback","","html-keyboard-response","456","437423","0.0-1.0-636.0-0.0","0","0","63953","","null","","","null","70","","","","","","","","","","","","","","","",""
"","time_out","","html-keyboard-response","457","439431","0.0-1.0-638.0-0.0","0","0","63953","","null","","","null","70","","","","","","","","","","","","","","","",""
"","ITI","","html-keyboard-response","458","440439","0.0-1.0-639.0","0","0","63953","","null","","","null","70","","","","","","","","","","","","","","","NaN",""
"","S1","","html-keyboard-response","459","440695","0.0-1.0-641.0","0","0","63953","","null","","","null","71","","","","","","","","","","","","","","","",""
"","ISI","","html-keyboard-response","460","441704","0.0-1.0-642.0","0","0","63953","","null","","","null","71","NaN","","","","","","","","","","","","","","",""
"","S2","","html-keyboard-response","461","441912","0.0-1.0-643.0","0","0","63953","","206","","","68","71","","d","2","71","training","adjacent","EF","5","6","R.jpg","L.jpg","0","1","0","",""
"","feedback","","html-keyboard-response","462","442926","0.0-1.0-645.0-0.0","0","0","63953","","null","","","null","71","","","","","","","","","","","","","","","",""
"","time_out","","html-keyboard-response","463","444930","0.0-1.0-647.0-0.0","0","0","63953","","null","","","null","71","","","","","","","","","","","","","","","",""
"","ITI","","html-keyboard-response","464","445937","0.0-1.0-648.0","0","0","63953","","null","","","null","71","","","","","","","","","","","","","","","NaN",""
"","S1","","html-keyboard-response","465","446193","0.0-1.0-650.0","0","0","63953","","null","","","null","72","","","","","","","","","","","","","","","",""
"","ISI","","html-keyboard-response","466","447197","0.0-1.0-651.0","0","0","63953","","null","","","null","72","NaN","","","","","","","","","","","","","","",""
"","S2","","html-keyboard-response","467","447413","0.0-1.0-652.0","0","0","63953","","213","","","75","72","","k","2","72","training","adjacent","BC","2","3","N.jpg","P.jpg","1","1","1","",""
"","feedback","","html-keyboard-response","468","448426","0.0-1.0-654.0-0.0","0","0","63953","","null","","","null","72","","","","","","","","","","","","","","","",""
"","ITI","","html-keyboard-response","469","449430","0.0-1.0-657.0","0","0","63953","","null","","","null","72","","","","","","","","","","","","","","","NaN",""
"","S1","","html-keyboard-response","470","449686","0.0-1.0-659.0","0","0","63953","","null","","","null","73","","","","","","","","","","","","","","","",""
"","ISI","","html-keyboard-response","471","450704","0.0-1.0-660.0","0","0","63953","","null","","","null","73","NaN","","","","","","","","","","","","","","",""
"","S2","","html-keyboard-response","472","450796","0.0-1.0-661.0","0","0","63953","","90","","","75","73","","k","2","73","training","adjacent","DE","4","5","M.jpg","R.jpg","1","1","1","",""
"","feedback","","html-keyboard-response","473","451803","0.0-1.0-663.0-0.0","0","0","63953","","null","","","null","73","","","","","","","","","","","","","","","",""
"","ITI","","html-keyboard-response","474","452816","0.0-1.0-666.0","0","0","63953","","null","","","null","73","","","","","","","","","","","","","","","NaN",""
"","S1","","html-keyboard-response","475","453071","0.0-1.0-668.0","0","0","63953","","null","","","null","74","","","","","","","","","","","","","","","",""
"","ISI","","html-keyboard-response","476","454078","0.0-1.0-669.0","0","0","63953","","null","","","null","74","NaN","","","","","","","","","","","","","","",""
"","S2","","html-keyboard-response","477","454334","0.0-1.0-670.0","0","0","63953","","null","","","null","74","","NaN","","","","","","","","","","","","","",""
"","response","","html-keyboard-response","478","454616","0.0-1.0-671.0-0.0","0","0","63953","","281","","","75","74","","","2","74","training","adjacent","DE","4","5","M.jpg","R.jpg","1","1","1","",""
"","feedback","","html-keyboard-response","479","455627","0.0-1.0-672.0-0.0","0","0","63953","","null","","","null","74","","","","","","","","","","","","","","","",""
"","ITI","","html-keyboard-response","480","456633","0.0-1.0-675.0","0","0","63953","","null","","","null","74","","","","","","","","","","","","","","","NaN",""
"","S1","","html-keyboard-response","481","456889","0.0-1.0-677.0","0","0","63953","","null","","","null","75","","","","","","","","","","","","","","","",""
"","ISI","","html-keyboard-response","482","457898","0.0-1.0-678.0","0","0","63953","","null","","","null","75","NaN","","","","","","","","","","","","","","",""
"","S2","","html-keyboard-response","483","458114","0.0-1.0-679.0","0","0","63953","","214","","","75","75","","k","2","75","training","adjacent","GF","7","6","Q.jpg","L.jpg","1","0","0","",""
"","feedback","","html-keyboard-response","484","459118","0.0-1.0-681.0-0.0","0","0","63953","","null","","","null","75","","","","","","","","","","","","","","","",""
"","time_out","","html-keyboard-response","485","461122","0.0-1.0-683.0-0.0","0","0","63953","","null","","","null","75","","","","","","","","","","","","","","","",""
"","ITI","","html-keyboard-response","486","462126","0.0-1.0-684.0","0","0","63953","","null","","","null","75","","","","","","","","","","","","","","","NaN",""
"","S1","","html-keyboard-response","487","462382","0.0-1.0-686.0","0","0","63953","","null","","","null","76","","","","","","","","","","","","","","","",""
"","ISI","","html-keyboard-response","488","463389","0.0-1.0-687.0","0","0","63953","","null","","","null","76","NaN","","","","","","","","","","","","","","",""
"","S2","","html-keyboard-response","489","463642","0.0-1.0-688.0","0","0","63953","","null","","","null","76","","NaN","","","","","","","","","","","","","",""
"","response","","html-keyboard-response","490","463648","0.0-1.0-689.0-0.0","0","0","63953","","2","","","68","76","","","2","76","training","adjacent","CD","3","4","P.jpg","M.jpg","0","1","0","",""
"","feedback","","html-keyboard-response","491","464653","0.0-1.0-690.0-0.0","0","0","63953","","null","","","null","76","","","","","","","","","","","","","","","",""
"","time_out","","html-keyboard-response","492","466658","0.0-1.0-692.0-0.0","0","0","63953","","null","","","null","76","","","","","","","","","","","","","","","",""
"","ITI","","html-keyboard-response","493","467669","0.0-1.0-693.0","0","0","63953","","null","","","null","76","","","","","","","","","","","","","","","NaN",""
"","S1","","html-keyboard-response","494","467924","0.0-1.0-695.0","0","0","63953","","null","","","null","77","","","","","","","","","","","","","","","",""
"","ISI","","html-keyboard-response","495","468935","0.0-1.0-696.0","0","0","63953","","null","","","null","77","NaN","","","","","","","","","","","","","","",""
"","S2","","html-keyboard-response","496","469195","0.0-1.0-697.0","0","0","63953","","null","","","null","77","","NaN","","","","","","","","","","","","","",""
"","response","","html-keyboard-response","497","469204","0.0-1.0-698.0-0.0","0","0","63953","","7","","","68","77","","","2","77","training","adjacent","GF","7","6","Q.jpg","L.jpg","0","0","1","",""
"","feedback","","html-keyboard-response","498","470212","0.0-1.0-699.0-0.0","0","0","63953","","null","","","null","77","","","","","","","","","","","","","","","",""
"","ITI","","html-keyboard-response","499","471223","0.0-1.0-702.0","0","0","63953","","null","","","null","77","","","","","","","","","","","","","","","NaN",""
"","S1","","html-keyboard-response","500","471480","0.0-1.0-704.0","0","0","63953","","null","","","null","78","","","","","","","","","","","","","","","",""
"","ISI","","html-keyboard-response","501","472486","0.0-1.0-705.0","0","0","63953","","null","","","null","78","NaN","","","","","","","","","","","","","","",""
"","S2","","html-keyboard-response","502","472736","0.0-1.0-706.0","0","0","63953","","247","","","68","78","","d","2","78","training","adjacent","BA","2","1","N.jpg","O.jpg","0","0","1","",""
"","feedback","","html-keyboard-response","503","473745","0.0-1.0-708.0-0.0","0","0","63953","","null","","","null","78","","","","","","","","","","","","","","","",""
"","ITI","","html-keyboard-response","504","474755","0.0-1.0-711.0","0","0","63953","","null","","","null","78","","","","","","","","","","","","","","","NaN",""
"","S1","","html-keyboard-response","505","475011","0.0-1.0-713.0","0","0","63953","","null","","","null","79","","","","","","","","","","","","","","","",""
"","ISI","","html-keyboard-response","506","476016","0.0-1.0-714.0","0","0","63953","","991","","","68","79","d","","","","","","","","","","","","","","",""
"","S2","","html-keyboard-response","507","476272","0.0-1.0-715.0","0","0","63953","","null","","","null","79","","NaN","","","","","","","","","","","","","",""
"","response","","html-keyboard-response","508","476925","0.0-1.0-716.0-0.0","0","0","63953","","650","","","68","79","","","2","79","training","adjacent","ED","5","4","R.jpg","M.jpg","0","0","1","",""
"","feedback","","html-keyboard-response","509","477934","0.0-1.0-717.0-0.0","0","0","63953","","null","","","null","79","","","","","","","","","","","","","","","",""
"","ITI","","html-keyboard-response","510","478937","0.0-1.0-720.0","0","0","63953","","null","","","null","79","","","","","","","","","","","","","","","NaN",""
"","S1","","html-keyboard-response","511","479191","0.0-1.0-722.0","0","0","63953","","null","","","null","80","","","","","","","","","","","","","","","",""
"","ISI","","html-keyboard-response","512","480196","0.0-1.0-723.0","0","0","63953","","null","","","null","80","NaN","","","","","","","","","","","","","","",""
"","S2","","html-keyboard-response","513","480421","0.0-1.0-724.0","0","0","63953","","223","","","68","80","","d","2","80","training","adjacent","EF","5","6","R.jpg","L.jpg","0","1","0","",""
"","feedback","","html-keyboard-response","514","481428","0.0-1.0-726.0-0.0","0","0","63953","","null","","","null","80","","","","","","","","","","","","","","","",""
"","time_out","","html-keyboard-response","515","483438","0.0-1.0-728.0-0.0","0","0","63953","","null","","","null","80","","","","","","","","","","","","","","","",""
"","ITI","","html-keyboard-response","516","484449","0.0-1.0-729.0","0","0","63953","","null","","","null","80","","","","","","","","","","","","","","","NaN",""
"","S1","","html-keyboard-response","517","484704","0.0-1.0-731.0","0","0","63953","","null","","","null","81","","","","","","","","","","","","","","","",""
"","ISI","","html-keyboard-response","518","485714","0.0-1.0-732.0","0","0","63953","","null","","","null","81","NaN","","","","","","","","","","","","","","",""
"","S2","","html-keyboard-response","519","485811","0.0-1.0-733.0","0","0","63953","","95","","","68","81","","d","2","81","training","adjacent","CD","3","4","P.jpg","M.jpg","0","1","0","",""
"","feedback","","html-keyboard-response","520","486817","0.0-1.0-735.0-0.0","0","0","63953","","null","","","null","81","","","","","","","","","","","","","","","",""
"","time_out","","html-keyboard-response","521","488827","0.0-1.0-737.0-0.0","0","0","63953","","null","","","null","81","","","","","","","","","","","","","","","",""
"","ITI","","html-keyboard-response","522","489837","0.0-1.0-738.0","0","0","63953","","null","","","null","81","","","","","","","","","","","","","","","NaN",""
"","S1","","html-keyboard-response","523","490096","0.0-1.0-740.0","0","0","63953","","null","","","null","82","","","","","","","","","","","","","","","",""
"","ISI","","html-keyboard-response","524","491106","0.0-1.0-741.0","0","0","63953","","null","","","null","82","NaN","","","","","","","","","","","","","","",""
"","S2","","html-keyboard-response","525","491352","0.0-1.0-742.0","0","0","63953","","244","","","75","82","","k","2","82","training","adjacent","DC","4","3","M.jpg","P.jpg","1","0","0","",""
"","feedback","","html-keyboard-response","526","492371","0.0-1.0-744.0-0.0","0","0","63953","","null","","","null","82","","","","","","","","","","","","","","","",""
"","time_out","","html-keyboard-response","527","494375","0.0-1.0-746.0-0.0","0","0","63953","","null","","","null","82","","","","","","","","","","","","","","","",""
"","ITI","","html-keyboard-response","528","495380","0.0-1.0-747.0","0","0","63953","","null","","","null","82","","","","","","","","","","","","","","","NaN",""
"","S1","","html-keyboard-response","529","495634","0.0-1.0-749.0","0","0","63953","","null","","","null","83","","","","","","","","","","","","","","","",""
"","ISI","","html-keyboard-response","530","496643","0.0-1.0-750.0","0","0","63953","","null","","","null","83","NaN","","","","","","","","","","","","","","",""
"","S2","","html-keyboard-response","531","496869","0.0-1.0-751.0","0","0","63953","","224","","","75","83","","k","2","83","training","adjacent","DC","4","3","M.jpg","P.jpg","1","0","0","",""
"","feedback","","html-keyboard-response","532","497880","0.0-1.0-753.0-0.0","0","0","63953","","null","","","null","83","","","","","","","","","","","","","","","",""
"","time_out","","html-keyboard-response","533","499883","0.0-1.0-755.0-0.0","0","0","63953","","null","","","null","83","","","","","","","","","","","","","","","",""
"","ITI","","html-keyboard-response","534","500892","0.0-1.0-756.0","0","0","63953","","null","","","null","83","","","","","","","","","","","","","","","NaN",""
"","S1","","html-keyboard-response","535","501150","0.0-1.0-758.0","0","0","63953","","null","","","null","84","","","","","","","","","","","","","","","",""
"","ISI","","html-keyboard-response","536","502154","0.0-1.0-759.0","0","0","63953","","null","","","null","84","NaN","","","","","","","","","","","","","","",""
"","S2","","html-keyboard-response","537","502410","0.0-1.0-760.0","0","0","63953","","null","","","null","84","","NaN","","","","","","","","","","","","","",""
"","response","","html-keyboard-response","538","502412","0.0-1.0-761.0-0.0","0","0","63953","","1","","","68","84","","","2","84","training","adjacent","DC","4","3","M.jpg","P.jpg","0","0","1","",""
"","feedback","","html-keyboard-response","539","503415","0.0-1.0-762.0-0.0","0","0","63953","","null","","","null","84","","","","","","","","","","","","","","","",""
"","ITI","","html-keyboard-response","540","504422","0.0-1.0-765.0","0","0","63953","","null","","","null","84","","","","","","","","","","","","","","","NaN",""
"","S1","","html-keyboard-response","541","504676","0.0-1.0-767.0","0","0","63953","","null","","","null","85","","","","","","","","","","","","","","","",""
"","ISI","","html-keyboard-response","542","505683","0.0-1.0-768.0","0","0","63953","","null","","","null","85","NaN","","","","","","","","","","","","","","",""
"","S2","","html-keyboard-response","543","505939","0.0-1.0-769.0","0","0","63953","","null","","","null","85","","NaN","","","","","","","","","","","","","",""
"","response","","html-keyboard-response","544","505968","0.0-1.0-770.0-0.0","0","0","63953","","27","","","68","85","","","2","85","training","adjacent","CB","3","2","P.jpg","N.jpg","0","0","1","",""
"","feedback","","html-keyboard-response","545","506978","0.0-1.0-771.0-0.0","0","0","63953","","null","","","null","85","","","","","","","","","","","","","","","",""
"","ITI","","html-keyboard-response","546","507986","0.0-1.0-774.0","0","0","63953","","null","","","null","85","","","","","","","","","","","","","","","NaN",""
"","S1","","html-keyboard-response","547","508243","0.0-1.0-776.0","0","0","63953","","null","","","null","86","","","","","","","","","","","","","","","",""
"","ISI","","html-keyboard-response","548","509252","0.0-1.0-777.0","0","0","63953","","null","","","null","86","NaN","","","","","","","","","","","","","","",""
"","S2","","html-keyboard-response","549","509472","0.0-1.0-778.0","0","0","63953","","218","","","68","86","","d","2","86","training","adjacent","BA","2","1","N.jpg","O.jpg","0","0","1","",""
"","feedback","","html-keyboard-response","550","510481","0.0-1.0-780.0-0.0","0","0","63953","","null","","","null","86","","","","","","","","","","","","","","","",""
"","ITI","","html-keyboard-response","551","511488","0.0-1.0-783.0","0","0","63953","","null","","","null","86","","","","","","","","","","","","","","","NaN",""
"","S1","","html-keyboard-response","552","511748","0.0-1.0-785.0","0","0","63953","","null","","","null","87","","","","","","","","","","","","","","","",""
"","ISI","","html-keyboard-response","553","512752","0.0-1.0-786.0","0","0","63953","","null","","","null","87","NaN","","","","","","","","","","","","","","",""
"","S2","","html-keyboard-response","554","512988","0.0-1.0-787.0","0","0","63953","","233","","","68","87","","d","2","87","training","adjacent","FG","6","7","L.jpg","Q.jpg","0","1","0","",""
"","feedback","","html-keyboard-response","555","514002","0.0-1.0-789.0-0.0","0","0","63953","","null","","","null","87","","","","","","","","","","","","","","","",""
"","time_out","","html-keyboard-response","556","516009","0.0-1.0-791.0-0.0","0","0","63953","","null","","","null","87","","","","","","","","","","","","","","","",""
"","ITI","","html-keyboard-response","557","517018","0.0-1.0-792.0","0","0","63953","","null","","","null","87","","","","","","","","","","","","","","","NaN",""
"","S1","","html-keyboard-response","558","517274","0.0-1.0-794.0","0","0","63953","","null","","","null","88","","","","","","","","","","","","","","","",""
"","ISI","","html-keyboard-response","559","518277","0.0-1.0-795.0","0","0","63953","","null","","","null","88","NaN","","","","","","","","","","","","","","",""
"","S2","","html-keyboard-response","560","518533","0.0-1.0-796.0","0","0","63953","","null","","","null","88","","NaN","","","","","","","","","","","","","",""
"","response","","html-keyboard-response","561","518586","0.0-1.0-797.0-0.0","0","0","63953","","50","","","68","88","","","2","88","training","adjacent","BC","2","3","N.jpg","P.jpg","0","1","0","",""
"","feedback","","html-keyboard-response","562","519594","0.0-1.0-798.0-0.0","0","0","63953","","null","","","null","88","","","","","","","","","","","","","","","",""
"","time_out","","html-keyboard-response","563","521600","0.0-1.0-800.0-0.0","0","0","63953","","null","","","null","88","","","","","","","","","","","","","","","",""
"","ITI","","html-keyboard-response","564","522610","0.0-1.0-801.0","0","0","63953","","null","","","null","88","","","","","","","","","","","","","","","NaN",""
"","S1","","html-keyboard-response","565","522866","0.0-1.0-803.0","0","0","63953","","null","","","null","89","","","","","","","","","","","","","","","",""
"","ISI","","html-keyboard-response","566","523876","0.0-1.0-804.0","0","0","63953","","null","","","null","89","NaN","","","","","","","","","","","","","","",""
"","S2","","html-keyboard-response","567","524098","0.0-1.0-805.0","0","0","63953","","220","","","75","89","","k","2","89","training","adjacent","FE","6","5","L.jpg","R.jpg","1","0","0","",""
"","feedback","","html-keyboard-response","568","525107","0.0-1.0-807.0-0.0","0","0","63953","","null","","","null","89","","","","","","","","","","","","","","","",""
"","time_out","","html-keyboard-response","569","527111","0.0-1.0-809.0-0.0","0","0","63953","","null","","","null","89","","","","","","","","","","","","","","","",""
"","ITI","","html-keyboard-response","570","528113","0.0-1.0-810.0","0","0","63953","","null","","","null","89","","","","","","","","","","","","","","","NaN",""
"","S1","","html-keyboard-response","571","528367","0.0-1.0-812.0","0","0","63953","","null","","","null","90","","","","","","","","","","","","","","","",""
"","ISI","","html-keyboard-response","572","529373","0.0-1.0-813.0","0","0","63953","","null","","","null","90","NaN","","","","","","","","","","","","","","",""
"","S2","","html-keyboard-response","573","529622","0.0-1.0-814.0","0","0","63953","","246","","","75","90","","k","2","90","training","adjacent","BC","2","3","N.jpg","P.jpg","1","1","1","",""
"","feedback","","html-keyboard-response","574","530626","0.0-1.0-816.0-0.0","0","0","63953","","null","","","null","90","","","","","","","","","","","","","","","",""
"","ITI","","html-keyboard-response","575","531631","0.0-1.0-819.0","0","0","63953","","null","","","null","90","","","","","","","","","","","","","","","NaN",""
"","S1","","html-keyboard-response","576","531888","0.0-1.0-821.0","0","0","63953","","null","","","null","91","","","","","","","","","","","","","","","",""
"","ISI","","html-keyboard-response","577","532897","0.0-1.0-822.0","0","0","63953","","null","","","null","91","NaN","","","","","","","","","","","","","","",""
"","S2","","html-keyboard-response","578","533153","0.0-1.0-823.0","0","0","63953","","null","","","null","91","","NaN","","","","","","","","","","","","","",""
"","response","","html-keyboard-response","579","533161","0.0-1.0-824.0-0.0","0","0","63953","","7","","","75","91","","","2","91","training","adjacent","FG","6","7","L.jpg","Q.jpg","1","1","1","",""
"","feedback","","html-keyboard-response","580","534164","0.0-1.0-825.0-0.0","0","0","63953","","null","","","null","91","","","","","","","","","","","","","","","",""
"","ITI","","html-keyboard-response","581","535168","0.0-1.0-828.0","0","0","63953","","null","","","null","91","","","","","","","","","","","","","","","NaN",""
"","S1","","html-keyboard-response","582","535424","0.0-1.0-830.0","0","0","63953","","null","","","null","92","","","","","","","","","","","","","","","",""
"","ISI","","html-keyboard-response","583","536433","0.0-1.0-831.0","0","0","63953","","null","","","null","92","NaN","","","","","","","","","","","","","","",""
