"success","ttype","start_time","trial_type","trial_index","time_elapsed","internal_node_id","warning","missed_checkup","PID","view_history","rt","responses","repeat_instructions","key_press","index","keypress_isi","keypress_S2","block","trial_num","phase","group_type","pair_type","S1_stim","S2_stim","S1_img","S2_img","S1_chosen","S1_higher","accuracy","keypress_iti","total_bonus_tally"
"true","full_screen","d04152023hr0152","fullscreen","0","32682","0.0-0.0","0","0","66197","","","","","","","","","","","","","","","","","","","","","",""
"","instructions","","instructions","1","84993","0.0-1.0-0.0-0.0","0","0","66197","[{""page_index"":0,""viewing_time"":13048},{""page_index"":1,""viewing_time"":29192},{""page_index"":2,""viewing_time"":8189},{""page_index"":3,""viewing_time"":1877}]","52306","","","","","","","","","","","","","","","","","","","",""
"","comprehension_check","","survey-multi-choice","2","110321","0.0-1.0-0.0-1.0","0","0","66197","","25313","{""Q0"":""True"",""Q1"":""K"",""Q2"":""Only when the screen 'MAKE A CHOICE' is shown"",""Q3"":""Green mark"",""Q4"":""either D or K""}","1","","","","","","","","","","","","","","","","","",""
"","missed_instruction_checkup","","html-keyboard-response","3","111943","0.0-1.0-0.0-2.0-0.0","0","1","66197","","1617","","","32","","","","","","","","","","","","","","","","",""
"","instructions","","instructions","4","140052","0.0-1.0-0.1-0.1","0","0","66197","[{""page_index"":0,""viewing_time"":4204},{""page_index"":1,""viewing_time"":13602},{""page_index"":2,""viewing_time"":9134},{""page_index"":3,""viewing_time"":1163}]","28103","","","","","","","","","","","","","","","","","","","",""
"","comprehension_check","","survey-multi-choice","5","157699","0.0-1.0-0.1-1.1","0","0","66197","","17635","{""Q0"":""True"",""Q1"":""K"",""Q2"":""Once the second image appears and while the screen 'MAKE A CHOICE' is shown"",""Q3"":""Green mark"",""Q4"":""either D or K""}","0","","","","","","","","","","","","","","","","","",""
"","start_exp","","html-keyboard-response","6","159637","0.0-1.0-1.0","0","0","66197","","1934","","","32","","","","","","","","","","","","","","","","",""
"","S1","","html-keyboard-response","7","159905","0.0-1.0-2.0","0","0","66197","","null","","","null","0","","","","","","","","","","","","","","","",""
"","ISI","","html-keyboard-response","8","160912","0.0-1.0-3.0","0","0","66197","","null","","","null","0","NaN","","","","","","","","","","","","","","",""
"","S2","","html-keyboard-response","9","161181","0.0-1.0-4.0","0","0","66197","","null","","","null","0","","NaN","","","","","","","","","","","","","",""
"","response","","html-keyboard-response","10","161776","0.0-1.0-5.0-0.0","0","0","66197","","589","","","75","0","","","1","0","training","adjacent","EF","5","6","L.jpg","Q.jpg","1","1","1","",""
"","feedback","","html-keyboard-response","11","162791","0.0-1.0-6.0-0.0","0","0","66197","","null","","","null","0","","","","","","","","","","","","","","","",""
"","ITI","","html-keyboard-response","12","163805","0.0-1.0-9.0","0","0","66197","","null","","","null","0","","","","","","","","","","","","","","","NaN",""
"","S1","","html-keyboard-response","13","164072","0.0-1.0-11.0","0","0","66197","","null","","","null","1","","","","","","","","","","","","","","","",""
"","ISI","","html-keyboard-response","14","165078","0.0-1.0-12.0","0","0","66197","","null","","","null","1","NaN","","","","","","","","","","","","","","",""
"","S2","","html-keyboard-response","15","165346","0.0-1.0-13.0","0","0","66197","","null","","","null","1","","NaN","","","","","","","","","","","","","",""
"","response","","html-keyboard-response","16","165818","0.0-1.0-14.0-0.0","0","0","66197","","466","","","68","1","","","1","1","training","adjacent","FG","6","7","Q.jpg","N.jpg","0","1","0","",""
"","feedback","","html-keyboard-response","17","166833","0.0-1.0-15.0-0.0","0","0","66197","","null","","","null","1","","","","","","","","","","","","","","","",""
"","time_out","","html-keyboard-response","18","168842","0.0-1.0-17.0-0.0","0","0","66197","","null","","","null","1","","","","","","","","","","","","","","","",""
"","ITI","","html-keyboard-response","19","169855","0.0-1.0-18.0","0","0","66197","","null","","","null","1","","","","","","","","","","","","","","","NaN",""
"","S1","","html-keyboard-response","20","170122","0.0-1.0-20.0","0","0","66197","","null","","","null","2","","","","","","","","","","","","","","","",""
"","ISI","","html-keyboard-response","21","171139","0.0-1.0-21.0","0","0","66197","","null","","","null","2","NaN","","","","","","","","","","","","","","",""
"","S2","","html-keyboard-response","22","171406","0.0-1.0-22.0","0","0","66197","","null","","","null","2","","NaN","","","","","","","","","","","","","",""
"","response","","html-keyboard-response","23","172082","0.0-1.0-23.0-0.0","0","0","66197","","672","","","68","2","","","1","2","training","adjacent","FG","6","7","Q.jpg","N.jpg","0","1","0","",""
"","feedback","","html-keyboard-response","24","173096","0.0-1.0-24.0-0.0","0","0","66197","","null","","","null","2","","","","","","","","","","","","","","","",""
"","time_out","","html-keyboard-response","25","175103","0.0-1.0-26.0-0.0","0","0","66197","","null","","","null","2","","","","","","","","","","","","","","","",""
"","ITI","","html-keyboard-response","26","176114","0.0-1.0-27.0","0","0","66197","","null","","","null","2","","","","","","","","","","","","","","","NaN",""
"","S1","","html-keyboard-response","27","176382","0.0-1.0-29.0","0","0","66197","","null","","","null","3","","","","","","","","","","","","","","","",""
"","ISI","","html-keyboard-response","28","177395","0.0-1.0-30.0","0","0","66197","","null","","","null","3","NaN","","","","","","","","","","","","","","",""
"","S2","","html-keyboard-response","29","177662","0.0-1.0-31.0","0","0","66197","","null","","","null","3","","NaN","","","","","","","","","","","","","",""
"","response","","html-keyboard-response","30","178215","0.0-1.0-32.0-0.0","0","0","66197","","549","","","68","3","","","1","3","training","adjacent","BA","2","1","P.jpg","M.jpg","0","0","1","",""
"","feedback","","html-keyboard-response","31","179223","0.0-1.0-33.0-0.0","0","0","66197","","null","","","null","3","","","","","","","","","","","","","","","",""
"","ITI","","html-keyboard-response","32","180236","0.0-1.0-36.0","0","0","66197","","null","","","null","3","","","","","","","","","","","","","","","NaN",""
"","S1","","html-keyboard-response","33","180502","0.0-1.0-38.0","0","0","66197","","null","","","null","4","","","","","","","","","","","","","","","",""
"","ISI","","html-keyboard-response","34","181517","0.0-1.0-39.0","0","0","66197","","null","","","null","4","NaN","","","","","","","","","","","","","","",""
"","S2","","html-keyboard-response","35","181772","0.0-1.0-40.0","0","0","66197","","null","","","null","4","","NaN","","","","","","","","","","","","","",""
"","response","","html-keyboard-response","36","182647","0.0-1.0-41.0-0.0","0","0","66197","","870","","","68","4","","","1","4","training","adjacent","DE","4","5","O.jpg","L.jpg","0","1","0","",""
"","feedback","","html-keyboard-response","37","183660","0.0-1.0-42.0-0.0","0","0","66197","","null","","","null","4","","","","","","","","","","","","","","","",""
"","time_out","","html-keyboard-response","38","185684","0.0-1.0-44.0-0.0","0","0","66197","","null","","","null","4","","","","","","","","","","","","","","","",""
"","ITI","","html-keyboard-response","39","186692","0.0-1.0-45.0","0","0","66197","","null","","","null","4","","","","","","","","","","","","","","","NaN",""
"","S1","","html-keyboard-response","40","186958","0.0-1.0-47.0","0","0","66197","","null","","","null","5","","","","","","","","","","","","","","","",""
"","ISI","","html-keyboard-response","41","187967","0.0-1.0-48.0","0","0","66197","","null","","","null","5","NaN","","","","","","","","","","","","","","",""
"","S2","","html-keyboard-response","42","188233","0.0-1.0-49.0","0","0","66197","","null","","","null","5","","NaN","","","","","","","","","","","","","",""
"","response","","html-keyboard-response","43","188869","0.0-1.0-50.0-0.0","0","0","66197","","630","","","68","5","","","1","5","training","adjacent","EF","5","6","L.jpg","Q.jpg","0","1","0","",""
"","feedback","","html-keyboard-response","44","189876","0.0-1.0-51.0-0.0","0","0","66197","","null","","","null","5","","","","","","","","","","","","","","","",""
"","time_out","","html-keyboard-response","45","191881","0.0-1.0-53.0-0.0","0","0","66197","","null","","","null","5","","","","","","","","","","","","","","","",""
"","ITI","","html-keyboard-response","46","192888","0.0-1.0-54.0","0","0","66197","","null","","","null","5","","","","","","","","","","","","","","","NaN",""
"","S1","","html-keyboard-response","47","193156","0.0-1.0-56.0","0","0","66197","","null","","","null","6","","","","","","","","","","","","","","","",""
"","ISI","","html-keyboard-response","48","194175","0.0-1.0-57.0","0","0","66197","","null","","","null","6","NaN","","","","","","","","","","","","","","",""
"","S2","","html-keyboard-response","49","194443","0.0-1.0-58.0","0","0","66197","","null","","","null","6","","NaN","","","","","","","","","","","","","",""
"","response","","html-keyboard-response","50","195201","0.0-1.0-59.0-0.0","0","0","66197","","754","","","75","6","","","1","6","training","adjacent","BA","2","1","P.jpg","M.jpg","1","0","0","",""
"","feedback","","html-keyboard-response","51","196221","0.0-1.0-60.0-0.0","0","0","66197","","null","","","null","6","","","","","","","","","","","","","","","",""
"","time_out","","html-keyboard-response","52","198240","0.0-1.0-62.0-0.0","0","0","66197","","null","","","null","6","","","","","","","","","","","","","","","",""
"","ITI","","html-keyboard-response","53","199249","0.0-1.0-63.0","0","0","66197","","null","","","null","6","","","","","","","","","","","","","","","NaN",""
"","S1","","html-keyboard-response","54","199503","0.0-1.0-65.0","0","0","66197","","null","","","null","7","","","","","","","","","","","","","","","",""
"","ISI","","html-keyboard-response","55","200514","0.0-1.0-66.0","0","0","66197","","null","","","null","7","NaN","","","","","","","","","","","","","","",""
"","S2","","html-keyboard-response","56","200779","0.0-1.0-67.0","0","0","66197","","null","","","null","7","","NaN","","","","","","","","","","","","","",""
"","response","","html-keyboard-response","57","201339","0.0-1.0-68.0-0.0","0","0","66197","","556","","","75","7","","","1","7","training","adjacent","FE","6","5","Q.jpg","L.jpg","1","0","0","",""
"","feedback","","html-keyboard-response","58","202355","0.0-1.0-69.0-0.0","0","0","66197","","null","","","null","7","","","","","","","","","","","","","","","",""
"","time_out","","html-keyboard-response","59","204362","0.0-1.0-71.0-0.0","0","0","66197","","null","","","null","7","","","","","","","","","","","","","","","",""
"","ITI","","html-keyboard-response","60","205372","0.0-1.0-72.0","0","0","66197","","null","","","null","7","","","","","","","","","","","","","","","NaN",""
"","S1","","html-keyboard-response","61","205638","0.0-1.0-74.0","0","0","66197","","null","","","null","8","","","","","","","","","","","","","","","",""
"","ISI","","html-keyboard-response","62","206645","0.0-1.0-75.0","0","0","66197","","null","","","null","8","NaN","","","","","","","","","","","","","","",""
"","S2","","html-keyboard-response","63","206914","0.0-1.0-76.0","0","0","66197","","null","","","null","8","","NaN","","","","","","","","","","","","","",""
"","response","","html-keyboard-response","64","207786","0.0-1.0-77.0-0.0","0","0","66197","","866","","","68","8","","","1","8","training","adjacent","CD","3","4","R.jpg","O.jpg","0","1","0","",""
"","feedback","","html-keyboard-response","65","208802","0.0-1.0-78.0-0.0","0","0","66197","","null","","","null","8","","","","","","","","","","","","","","","",""
"","time_out","","html-keyboard-response","66","210820","0.0-1.0-80.0-0.0","0","0","66197","","null","","","null","8","","","","","","","","","","","","","","","",""
"","ITI","","html-keyboard-response","67","211825","0.0-1.0-81.0","0","0","66197","","null","","","null","8","","","","","","","","","","","","","","","NaN",""
"","S1","","html-keyboard-response","68","212093","0.0-1.0-83.0","0","0","66197","","null","","","null","9","","","","","","","","","","","","","","","",""
"","ISI","","html-keyboard-response","69","213107","0.0-1.0-84.0","0","0","66197","","null","","","null","9","NaN","","","","","","","","","","","","","","",""
"","S2","","html-keyboard-response","70","213373","0.0-1.0-85.0","0","0","66197","","null","","","null","9","","NaN","","","","","","","","","","","","","",""
"","response","","html-keyboard-response","71","213927","0.0-1.0-86.0-0.0","0","0","66197","","550","","","75","9","","","1","9","training","adjacent","CD","3","4","R.jpg","O.jpg","1","1","1","",""
"","feedback","","html-keyboard-response","72","214943","0.0-1.0-87.0-0.0","0","0","66197","","null","","","null","9","","","","","","","","","","","","","","","",""
"","ITI","","html-keyboard-response","73","215958","0.0-1.0-90.0","0","0","66197","","null","","","null","9","","","","","","","","","","","","","","","NaN",""
"","S1","","html-keyboard-response","74","216224","0.0-1.0-92.0","0","0","66197","","null","","","null","10","","","","","","","","","","","","","","","",""
"","ISI","","html-keyboard-response","75","217233","0.0-1.0-93.0","0","0","66197","","null","","","null","10","NaN","","","","","","","","","","","","","","",""
"","S2","","html-keyboard-response","76","217502","0.0-1.0-94.0","0","0","66197","","null","","","null","10","","NaN","","","","","","","","","","","","","",""
"","response","","html-keyboard-response","77","218153","0.0-1.0-95.0-0.0","0","0","66197","","647","","","68","10","","","1","10","training","adjacent","BC","2","3","P.jpg","R.jpg","0","1","0","",""
"","feedback","","html-keyboard-response","78","219165","0.0-1.0-96.0-0.0","0","0","66197","","null","","","null","10","","","","","","","","","","","","","","","",""
"","time_out","","html-keyboard-response","79","221170","0.0-1.0-98.0-0.0","0","0","66197","","null","","","null","10","","","","","","","","","","","","","","","",""
"","ITI","","html-keyboard-response","80","222184","0.0-1.0-99.0","0","0","66197","","null","","","null","10","","","","","","","","","","","","","","","NaN",""
"","S1","","html-keyboard-response","81","222450","0.0-1.0-101.0","0","0","66197","","null","","","null","11","","","","","","","","","","","","","","","",""
"","ISI","","html-keyboard-response","82","223460","0.0-1.0-102.0","0","0","66197","","null","","","null","11","NaN","","","","","","","","","","","","","","",""
"","S2","","html-keyboard-response","83","223725","0.0-1.0-103.0","0","0","66197","","null","","","null","11","","NaN","","","","","","","","","","","","","",""
"","response","","html-keyboard-response","84","224051","0.0-1.0-104.0-0.0","0","0","66197","","320","","","75","11","","","1","11","training","adjacent","FE","6","5","Q.jpg","L.jpg","1","0","0","",""
"","feedback","","html-keyboard-response","85","225057","0.0-1.0-105.0-0.0","0","0","66197","","null","","","null","11","","","","","","","","","","","","","","","",""
"","time_out","","html-keyboard-response","86","227069","0.0-1.0-107.0-0.0","0","0","66197","","null","","","null","11","","","","","","","","","","","","","","","",""
"","ITI","","html-keyboard-response","87","228081","0.0-1.0-108.0","0","0","66197","","null","","","null","11","","","","","","","","","","","","","","","NaN",""
"","S1","","html-keyboard-response","88","228350","0.0-1.0-110.0","0","0","66197","","null","","","null","12","","","","","","","","","","","","","","","",""
"","ISI","","html-keyboard-response","89","229364","0.0-1.0-111.0","0","0","66197","","null","","","null","12","NaN","","","","","","","","","","","","","","",""
"","S2","","html-keyboard-response","90","229627","0.0-1.0-112.0","0","0","66197","","null","","","null","12","","NaN","","","","","","","","","","","","","",""
"","response","","html-keyboard-response","91","230300","0.0-1.0-113.0-0.0","0","0","66197","","669","","","75","12","","","1","12","training","adjacent","DC","4","3","O.jpg","R.jpg","1","0","0","",""
"","feedback","","html-keyboard-response","92","231320","0.0-1.0-114.0-0.0","0","0","66197","","null","","","null","12","","","","","","","","","","","","","","","",""
"","time_out","","html-keyboard-response","93","233341","0.0-1.0-116.0-0.0","0","0","66197","","null","","","null","12","","","","","","","","","","","","","","","",""
"","ITI","","html-keyboard-response","94","234350","0.0-1.0-117.0","0","0","66197","","null","","","null","12","","","","","","","","","","","","","","","NaN",""
"","S1","","html-keyboard-response","95","234614","0.0-1.0-119.0","0","0","66197","","null","","","null","13","","","","","","","","","","","","","","","",""
"","ISI","","html-keyboard-response","96","235624","0.0-1.0-120.0","0","0","66197","","null","","","null","13","NaN","","","","","","","","","","","","","","",""
"","S2","","html-keyboard-response","97","235893","0.0-1.0-121.0","0","0","66197","","null","","","null","13","","NaN","","","","","","","","","","","","","",""
"","response","","html-keyboard-response","98","236590","0.0-1.0-122.0-0.0","0","0","66197","","693","","","68","13","","","1","13","training","adjacent","DE","4","5","O.jpg","L.jpg","0","1","0","",""
"","feedback","","html-keyboard-response","99","237599","0.0-1.0-123.0-0.0","0","0","66197","","null","","","null","13","","","","","","","","","","","","","","","",""
"","time_out","","html-keyboard-response","100","239615","0.0-1.0-125.0-0.0","0","0","66197","","null","","","null","13","","","","","","","","","","","","","","","",""
"","ITI","","html-keyboard-response","101","240623","0.0-1.0-126.0","0","0","66197","","null","","","null","13","","","","","","","","","","","","","","","NaN",""
"","S1","","html-keyboard-response","102","240887","0.0-1.0-128.0","0","0","66197","","null","","","null","14","","","","","","","","","","","","","","","",""
"","ISI","","html-keyboard-response","103","241898","0.0-1.0-129.0","0","0","66197","","null","","","null","14","NaN","","","","","","","","","","","","","","",""
"","S2","","html-keyboard-response","104","242167","0.0-1.0-130.0","0","0","66197","","null","","","null","14","","NaN","","","","","","","","","","","","","",""
"","response","","html-keyboard-response","105","242694","0.0-1.0-131.0-0.0","0","0","66197","","522","","","68","14","","","1","14","training","adjacent","AB","1","2","M.jpg","P.jpg","0","1","0","",""
"","feedback","","html-keyboard-response","106","243713","0.0-1.0-132.0-0.0","0","0","66197","","null","","","null","14","","","","","","","","","","","","","","","",""
"","time_out","","html-keyboard-response","107","245730","0.0-1.0-134.0-0.0","0","0","66197","","null","","","null","14","","","","","","","","","","","","","","","",""
"","ITI","","html-keyboard-response","108","246745","0.0-1.0-135.0","0","0","66197","","null","","","null","14","","","","","","","","","","","","","","","NaN",""
"","S1","","html-keyboard-response","109","247010","0.0-1.0-137.0","0","0","66197","","null","","","null","15","","","","","","","","","","","","","","","",""
"","ISI","","html-keyboard-response","110","248019","0.0-1.0-138.0","0","0","66197","","null","","","null","15","NaN","","","","","","","","","","","","","","",""
"","S2","","html-keyboard-response","111","248287","0.0-1.0-139.0","0","0","66197","","null","","","null","15","","NaN","","","","","","","","","","","","","",""
"","response","","html-keyboard-response","112","249121","0.0-1.0-140.0-0.0","0","0","66197","","830","","","68","15","","","1","15","training","adjacent","DC","4","3","O.jpg","R.jpg","0","0","1","",""
"","feedback","","html-keyboard-response","113","250136","0.0-1.0-141.0-0.0","0","0","66197","","null","","","null","15","","","","","","","","","","","","","","","",""
"","ITI","","html-keyboard-response","114","251150","0.0-1.0-144.0","0","0","66197","","null","","","null","15","","","","","","","","","","","","","","","NaN",""
"","S1","","html-keyboard-response","115","251415","0.0-1.0-146.0","0","0","66197","","null","","","null","16","","","","","","","","","","","","","","","",""
"","ISI","","html-keyboard-response","116","252435","0.0-1.0-147.0","0","0","66197","","null","","","null","16","NaN","","","","","","","","","","","","","","",""
"","S2","","html-keyboard-response","117","252703","0.0-1.0-148.0","0","0","66197","","null","","","null","16","","NaN","","","","","","","","","","","","","",""
"","response","","html-keyboard-response","118","253661","0.0-1.0-149.0-0.0","0","0","66197","","953","","","68","16","","","1","16","training","adjacent","AB","1","2","M.jpg","P.jpg","0","1","0","",""
"","feedback","","html-keyboard-response","119","254668","0.0-1.0-150.0-0.0","0","0","66197","","null","","","null","16","","","","","","","","","","","","","","","",""
"","time_out","","html-keyboard-response","120","256684","0.0-1.0-152.0-0.0","0","0","66197","","null","","","null","16","","","","","","","","","","","","","","","",""
"","ITI","","html-keyboard-response","121","257696","0.0-1.0-153.0","0","0","66197","","null","","","null","16","","","","","","","","","","","","","","","NaN",""
"","S1","","html-keyboard-response","122","257958","0.0-1.0-155.0","0","0","66197","","null","","","null","17","","","","","","","","","","","","","","","",""
"","ISI","","html-keyboard-response","123","258969","0.0-1.0-156.0","0","0","66197","","null","","","null","17","NaN","","","","","","","","","","","","","","",""
"","S2","","html-keyboard-response","124","259235","0.0-1.0-157.0","0","0","66197","","null","","","null","17","","NaN","","","","","","","","","","","","","",""
"","response","","html-keyboard-response","125","260166","0.0-1.0-158.0-0.0","0","0","66197","","926","","","68","17","","","1","17","training","adjacent","CD","3","4","R.jpg","O.jpg","0","1","0","",""
"","feedback","","html-keyboard-response","126","261182","0.0-1.0-159.0-0.0","0","0","66197","","null","","","null","17","","","","","","","","","","","","","","","",""
"","time_out","","html-keyboard-response","127","263192","0.0-1.0-161.0-0.0","0","0","66197","","null","","","null","17","","","","","","","","","","","","","","","",""
"","ITI","","html-keyboard-response","128","264211","0.0-1.0-162.0","0","0","66197","","null","","","null","17","","","","","","","","","","","","","","","NaN",""
"","S1","","html-keyboard-response","129","264477","0.0-1.0-164.0","0","0","66197","","null","","","null","18","","","","","","","","","","","","","","","",""
"","ISI","","html-keyboard-response","130","265488","0.0-1.0-165.0","0","0","66197","","null","","","null","18","NaN","","","","","","","","","","","","","","",""
"","S2","","html-keyboard-response","131","265753","0.0-1.0-166.0","0","0","66197","","null","","","null","18","","NaN","","","","","","","","","","","","","",""
"","response","","html-keyboard-response","132","266302","0.0-1.0-167.0-0.0","0","0","66197","","543","","","75","18","","","1","18","training","adjacent","GF","7","6","N.jpg","Q.jpg","1","0","0","",""
"","feedback","","html-keyboard-response","133","267309","0.0-1.0-168.0-0.0","0","0","66197","","null","","","null","18","","","","","","","","","","","","","","","",""
"","time_out","","html-keyboard-response","134","269327","0.0-1.0-170.0-0.0","0","0","66197","","null","","","null","18","","","","","","","","","","","","","","","",""
"","ITI","","html-keyboard-response","135","270341","0.0-1.0-171.0","0","0","66197","","null","","","null","18","","","","","","","","","","","","","","","NaN",""
"","S1","","html-keyboard-response","136","270605","0.0-1.0-173.0","0","0","66197","","null","","","null","19","","","","","","","","","","","","","","","",""
"","ISI","","html-keyboard-response","137","271621","0.0-1.0-174.0","0","0","66197","","null","","","null","19","NaN","","","","","","","","","","","","","","",""
"","S2","","html-keyboard-response","138","271888","0.0-1.0-175.0","0","0","66197","","null","","","null","19","","NaN","","","","","","","","","","","","","",""
"","response","","html-keyboard-response","139","272655","0.0-1.0-176.0-0.0","0","0","66197","","764","","","68","19","","","1","19","training","adjacent","CB","3","2","R.jpg","P.jpg","0","0","1","",""
"","feedback","","html-keyboard-response","140","273675","0.0-1.0-177.0-0.0","0","0","66197","","null","","","null","19","","","","","","","","","","","","","","","",""
"","ITI","","html-keyboard-response","141","274680","0.0-1.0-180.0","0","0","66197","","null","","","null","19","","","","","","","","","","","","","","","NaN",""
"","S1","","html-keyboard-response","142","274944","0.0-1.0-182.0","0","0","66197","","null","","","null","20","","","","","","","","","","","","","","","",""
"","ISI","","html-keyboard-response","143","275958","0.0-1.0-183.0","0","0","66197","","null","","","null","20","NaN","","","","","","","","","","","","","","",""
"","S2","","html-keyboard-response","144","276225","0.0-1.0-184.0","0","0","66197","","null","","","null","20","","NaN","","","","","","","","","","","","","",""
"","response","","html-keyboard-response","145","276904","0.0-1.0-185.0-0.0","0","0","66197","","675","","","68","20","","","1","20","training","adjacent","BC","2","3","P.jpg","R.jpg","0","1","0","",""
"","feedback","","html-keyboard-response","146","277911","0.0-1.0-186.0-0.0","0","0","66197","","null","","","null","20","","","","","","","","","","","","","","","",""
"","time_out","","html-keyboard-response","147","279921","0.0-1.0-188.0-0.0","0","0","66197","","null","","","null","20","","","","","","","","","","","","","","","",""
"","ITI","","html-keyboard-response","148","280939","0.0-1.0-189.0","0","0","66197","","null","","","null","20","","","","","","","","","","","","","","","NaN",""
"","S1","","html-keyboard-response","149","281206","0.0-1.0-191.0","0","0","66197","","null","","","null","21","","","","","","","","","","","","","","","",""
"","ISI","","html-keyboard-response","150","282212","0.0-1.0-192.0","0","0","66197","","null","","","null","21","NaN","","","","","","","","","","","","","","",""
"","S2","","html-keyboard-response","151","282480","0.0-1.0-193.0","0","0","66197","","null","","","null","21","","NaN","","","","","","","","","","","","","",""
"","response","","html-keyboard-response","152","283241","0.0-1.0-194.0-0.0","0","0","66197","","756","","","68","21","","","1","21","training","adjacent","EF","5","6","L.jpg","Q.jpg","0","1","0","",""
"","feedback","","html-keyboard-response","153","284258","0.0-1.0-195.0-0.0","0","0","66197","","null","","","null","21","","","","","","","","","","","","","","","",""
"","time_out","","html-keyboard-response","154","286270","0.0-1.0-197.0-0.0","0","0","66197","","null","","","null","21","","","","","","","","","","","","","","","",""
"","ITI","","html-keyboard-response","155","287281","0.0-1.0-198.0","0","0","66197","","null","","","null","21","","","","","","","","","","","","","","","NaN",""
"","S1","","html-keyboard-response","156","287550","0.0-1.0-200.0","0","0","66197","","null","","","null","22","","","","","","","","","","","","","","","",""
"","ISI","","html-keyboard-response","157","288570","0.0-1.0-201.0","0","0","66197","","null","","","null","22","NaN","","","","","","","","","","","","","","",""
"","S2","","html-keyboard-response","158","288837","0.0-1.0-202.0","0","0","66197","","null","","","null","22","","NaN","","","","","","","","","","","","","",""
"","response","","html-keyboard-response","159","289041","0.0-1.0-203.0-0.0","0","0","66197","","200","","","75","22","","","1","22","training","adjacent","FG","6","7","Q.jpg","N.jpg","1","1","1","",""
"","feedback","","html-keyboard-response","160","290061","0.0-1.0-204.0-0.0","0","0","66197","","null","","","null","22","","","","","","","","","","","","","","","",""
"","ITI","","html-keyboard-response","161","291073","0.0-1.0-207.0","0","0","66197","","null","","","null","22","","","","","","","","","","","","","","","NaN",""
"","S1","","html-keyboard-response","162","291352","0.0-1.0-209.0","0","0","66197","","null","","","null","23","","","","","","","","","","","","","","","",""
"","ISI","","html-keyboard-response","163","292362","0.0-1.0-210.0","0","0","66197","","null","","","null","23","NaN","","","","","","","","","","","","","","",""
"","S2","","html-keyboard-response","164","292630","0.0-1.0-211.0","0","0","66197","","null","","","null","23","","NaN","","","","","","","","","","","","","",""
"","response","","html-keyboard-response","165","293066","0.0-1.0-212.0-0.0","0","0","66197","","431","","","68","23","","","1","23","training","adjacent","BA","2","1","P.jpg","M.jpg","0","0","1","",""
"","feedback","","html-keyboard-response","166","294081","0.0-1.0-213.0-0.0","0","0","66197","","null","","","null","23","","","","","","","","","","","","","","","",""
"","ITI","","html-keyboard-response","167","295091","0.0-1.0-216.0","0","0","66197","","null","","","null","23","","","","","","","","","","","","","","","NaN",""
"","S1","","html-keyboard-response","168","295359","0.0-1.0-218.0","0","0","66197","","null","","","null","24","","","","","","","","","","","","","","","",""
"","ISI","","html-keyboard-response","169","296366","0.0-1.0-219.0","0","0","66197","","null","","","null","24","NaN","","","","","","","","","","","","","","",""
"","S2","","html-keyboard-response","170","296631","0.0-1.0-220.0","0","0","66197","","null","","","null","24","","NaN","","","","","","","","","","","","","",""
"","response","","html-keyboard-response","171","297803","0.0-1.0-221.0-0.0","0","0","66197","","1169","","","75","24","","","1","24","training","adjacent","GF","7","6","N.jpg","Q.jpg","1","0","0","",""
"","feedback","","html-keyboard-response","172","298816","0.0-1.0-222.0-0.0","0","0","66197","","null","","","null","24","","","","","","","","","","","","","","","",""
"","time_out","","html-keyboard-response","173","300833","0.0-1.0-224.0-0.0","0","0","66197","","null","","","null","24","","","","","","","","","","","","","","","",""
"","ITI","","html-keyboard-response","174","301846","0.0-1.0-225.0","0","0","66197","","null","","","null","24","","","","","","","","","","","","","","","NaN",""
"","S1","","html-keyboard-response","175","302110","0.0-1.0-227.0","0","0","66197","","null","","","null","25","","","","","","","","","","","","","","","",""
"","ISI","","html-keyboard-response","176","303120","0.0-1.0-228.0","0","0","66197","","null","","","null","25","NaN","","","","","","","","","","","","","","",""
"","S2","","html-keyboard-response","177","303384","0.0-1.0-229.0","0","0","66197","","null","","","null","25","","NaN","","","","","","","","","","","","","",""
"","response","","html-keyboard-response","178","304210","0.0-1.0-230.0-0.0","0","0","66197","","823","","","75","25","","","1","25","training","adjacent","ED","5","4","L.jpg","O.jpg","1","0","0","",""
"","feedback","","html-keyboard-response","179","305219","0.0-1.0-231.0-0.0","0","0","66197","","null","","","null","25","","","","","","","","","","","","","","","",""
"","time_out","","html-keyboard-response","180","307236","0.0-1.0-233.0-0.0","0","0","66197","","null","","","null","25","","","","","","","","","","","","","","","",""
"","ITI","","html-keyboard-response","181","308244","0.0-1.0-234.0","0","0","66197","","null","","","null","25","","","","","","","","","","","","","","","NaN",""
"","S1","","html-keyboard-response","182","308511","0.0-1.0-236.0","0","0","66197","","null","","","null","26","","","","","","","","","","","","","","","",""
"","ISI","","html-keyboard-response","183","309528","0.0-1.0-237.0","0","0","66197","","null","","","null","26","NaN","","","","","","","","","","","","","","",""
"","S2","","html-keyboard-response","184","309793","0.0-1.0-238.0","0","0","66197","","null","","","null","26","","NaN","","","","","","","","","","","","","",""
"","response","","html-keyboard-response","185","310959","0.0-1.0-239.0-0.0","0","0","66197","","1164","","","75","26","","","1","26","training","adjacent","EF","5","6","L.jpg","Q.jpg","1","1","1","",""
"","feedback","","html-keyboard-response","186","311969","0.0-1.0-240.0-0.0","0","0","66197","","null","","","null","26","","","","","","","","","","","","","","","",""
"","ITI","","html-keyboard-response","187","312981","0.0-1.0-243.0","0","0","66197","","null","","","null","26","","","","","","","","","","","","","","","NaN",""
"","S1","","html-keyboard-response","188","313241","0.0-1.0-245.0","0","0","66197","","null","","","null","27","","","","","","","","","","","","","","","",""
"","ISI","","html-keyboard-response","189","314251","0.0-1.0-246.0","0","0","66197","","null","","","null","27","NaN","","","","","","","","","","","","","","",""
"","S2","","html-keyboard-response","190","314512","0.0-1.0-247.0","0","0","66197","","null","","","null","27","","NaN","","","","","","","","","","","","","",""
"","response","","html-keyboard-response","191","315577","0.0-1.0-248.0-0.0","0","0","66197","","1063","","","68","27","","","1","27","training","adjacent","DE","4","5","O.jpg","L.jpg","0","1","0","",""
"","feedback","","html-keyboard-response","192","316592","0.0-1.0-249.0-0.0","0","0","66197","","null","","","null","27","","","","","","","","","","","","","","","",""
"","time_out","","html-keyboard-response","193","318601","0.0-1.0-251.0-0.0","0","0","66197","","null","","","null","27","","","","","","","","","","","","","","","",""
"","ITI","","html-keyboard-response","194","319616","0.0-1.0-252.0","0","0","66197","","null","","","null","27","","","","","","","","","","","","","","","NaN",""
"","S1","","html-keyboard-response","195","319881","0.0-1.0-254.0","0","0","66197","","null","","","null","28","","","","","","","","","","","","","","","",""
"","ISI","","html-keyboard-response","196","320887","0.0-1.0-255.0","0","0","66197","","null","","","null","28","NaN","","","","","","","","","","","","","","",""
"","S2","","html-keyboard-response","197","321155","0.0-1.0-256.0","0","0","66197","","null","","","null","28","","NaN","","","","","","","","","","","","","",""
"","response","","html-keyboard-response","198","321517","0.0-1.0-257.0-0.0","0","0","66197","","359","","","75","28","","","1","28","training","adjacent","FE","6","5","Q.jpg","L.jpg","1","0","0","",""
"","feedback","","html-keyboard-response","199","322525","0.0-1.0-258.0-0.0","0","0","66197","","null","","","null","28","","","","","","","","","","","","","","","",""
"","time_out","","html-keyboard-response","200","324543","0.0-1.0-260.0-0.0","0","0","66197","","null","","","null","28","","","","","","","","","","","","","","","",""
"","ITI","","html-keyboard-response","201","325560","0.0-1.0-261.0","0","0","66197","","null","","","null","28","","","","","","","","","","","","","","","NaN",""
"","S1","","html-keyboard-response","202","325829","0.0-1.0-263.0","0","0","66197","","null","","","null","29","","","","","","","","","","","","","","","",""
"","ISI","","html-keyboard-response","203","326844","0.0-1.0-264.0","0","0","66197","","null","","","null","29","NaN","","","","","","","","","","","","","","",""
"","S2","","html-keyboard-response","204","327110","0.0-1.0-265.0","0","0","66197","","null","","","null","29","","NaN","","","","","","","","","","","","","",""
"","response","","html-keyboard-response","205","328118","0.0-1.0-266.0-0.0","0","0","66197","","1004","","","68","29","","","1","29","training","adjacent","FE","6","5","Q.jpg","L.jpg","0","0","1","",""
"","feedback","","html-keyboard-response","206","329130","0.0-1.0-267.0-0.0","0","0","66197","","null","","","null","29","","","","","","","","","","","","","","","",""
"","ITI","","html-keyboard-response","207","330141","0.0-1.0-270.0","0","0","66197","","null","","","null","29","","","","","","","","","","","","","","","NaN",""
"","S1","","html-keyboard-response","208","330407","0.0-1.0-272.0","0","0","66197","","null","","","null","30","","","","","","","","","","","","","","","",""
"","ISI","","html-keyboard-response","209","331422","0.0-1.0-273.0","0","0","66197","","null","","","null","30","NaN","","","","","","","","","","","","","","",""
"","S2","","html-keyboard-response","210","331691","0.0-1.0-274.0","0","0","66197","","null","","","null","30","","NaN","","","","","","","","","","","","","",""
"","response","","html-keyboard-response","211","332989","0.0-1.0-275.0-0.0","0","0","66197","","1294","","","68","30","","","1","30","training","adjacent","AB","1","2","M.jpg","P.jpg","0","1","0","",""
"","feedback","","html-keyboard-response","212","333997","0.0-1.0-276.0-0.0","0","0","66197","","null","","","null","30","","","","","","","","","","","","","","","",""
"","time_out","","html-keyboard-response","213","336009","0.0-1.0-278.0-0.0","0","0","66197","","null","","","null","30","","","","","","","","","","","","","","","",""
"","ITI","","html-keyboard-response","214","337024","0.0-1.0-279.0","0","0","66197","","null","","","null","30","","","","","","","","","","","","","","","NaN",""
"","S1","","html-keyboard-response","215","337291","0.0-1.0-281.0","0","0","66197","","null","","","null","31","","","","","","","","","","","","","","","",""
"","ISI","","html-keyboard-response","216","338307","0.0-1.0-282.0","0","0","66197","","null","","","null","31","NaN","","","","","","","","","","","","","","",""
"","S2","","html-keyboard-response","217","338571","0.0-1.0-283.0","0","0","66197","","null","","","null","31","","NaN","","","","","","","","","","","","","",""
"","response","","html-keyboard-response","218","339483","0.0-1.0-284.0-0.0","0","0","66197","","910","","","75","31","","","1","31","training","adjacent","CD","3","4","R.jpg","O.jpg","1","1","1","",""
"","feedback","","html-keyboard-response","219","340498","0.0-1.0-285.0-0.0","0","0","66197","","null","","","null","31","","","","","","","","","","","","","","","",""
"","ITI","","html-keyboard-response","220","341518","0.0-1.0-288.0","0","0","66197","","null","","","null","31","","","","","","","","","","","","","","","NaN",""
"","S1","","html-keyboard-response","221","341780","0.0-1.0-290.0","0","0","66197","","null","","","null","32","","","","","","","","","","","","","","","",""
"","ISI","","html-keyboard-response","222","342797","0.0-1.0-291.0","0","0","66197","","null","","","null","32","NaN","","","","","","","","","","","","","","",""
"","S2","","html-keyboard-response","223","343060","0.0-1.0-292.0","0","0","66197","","null","","","null","32","","NaN","","","","","","","","","","","","","",""
"","response","","html-keyboard-response","224","343680","0.0-1.0-293.0-0.0","0","0","66197","","618","","","68","32","","","1","32","training","adjacent","BC","2","3","P.jpg","R.jpg","0","1","0","",""
"","feedback","","html-keyboard-response","225","344693","0.0-1.0-294.0-0.0","0","0","66197","","null","","","null","32","","","","","","","","","","","","","","","",""
"","time_out","","html-keyboard-response","226","346705","0.0-1.0-296.0-0.0","0","0","66197","","null","","","null","32","","","","","","","","","","","","","","","",""
"","ITI","","html-keyboard-response","227","347713","0.0-1.0-297.0","0","0","66197","","null","","","null","32","","","","","","","","","","","","","","","NaN",""
"","S1","","html-keyboard-response","228","347978","0.0-1.0-299.0","0","0","66197","","null","","","null","33","","","","","","","","","","","","","","","",""
"","ISI","","html-keyboard-response","229","348995","0.0-1.0-300.0","0","0","66197","","null","","","null","33","NaN","","","","","","","","","","","","","","",""
"","S2","","html-keyboard-response","230","349261","0.0-1.0-301.0","0","0","66197","","null","","","null","33","","NaN","","","","","","","","","","","","","",""
"","response","","html-keyboard-response","231","349691","0.0-1.0-302.0-0.0","0","0","66197","","426","","","68","33","","","1","33","training","adjacent","ED","5","4","L.jpg","O.jpg","0","0","1","",""
"","feedback","","html-keyboard-response","232","350704","0.0-1.0-303.0-0.0","0","0","66197","","null","","","null","33","","","","","","","","","","","","","","","",""
"","ITI","","html-keyboard-response","233","351717","0.0-1.0-306.0","0","0","66197","","null","","","null","33","","","","","","","","","","","","","","","NaN",""
"","S1","","html-keyboard-response","234","351982","0.0-1.0-308.0","0","0","66197","","null","","","null","34","","","","","","","","","","","","","","","",""
"","ISI","","html-keyboard-response","235","352991","0.0-1.0-309.0","0","0","66197","","null","","","null","34","NaN","","","","","","","","","","","","","","",""
"","S2","","html-keyboard-response","236","353252","0.0-1.0-310.0","0","0","66197","","null","","","null","34","","NaN","","","","","","","","","","","","","",""
"","response","","html-keyboard-response","237","353878","0.0-1.0-311.0-0.0","0","0","66197","","623","","","75","34","","","1","34","training","adjacent","BA","2","1","P.jpg","M.jpg","1","0","0","",""
"","feedback","","html-keyboard-response","238","354882","0.0-1.0-312.0-0.0","0","0","66197","","null","","","null","34","","","","","","","","","","","","","","","",""
"","time_out","","html-keyboard-response","239","356890","0.0-1.0-314.0-0.0","0","0","66197","","null","","","null","34","","","","","","","","","","","","","","","",""
"","ITI","","html-keyboard-response","240","357900","0.0-1.0-315.0","0","0","66197","","null","","","null","34","","","","","","","","","","","","","","","NaN",""
"","S1","","html-keyboard-response","241","358165","0.0-1.0-317.0","0","0","66197","","null","","","null","35","","","","","","","","","","","","","","","",""
"","ISI","","html-keyboard-response","242","359184","0.0-1.0-318.0","0","0","66197","","null","","","null","35","NaN","","","","","","","","","","","","","","",""
"","S2","","html-keyboard-response","243","359449","0.0-1.0-319.0","0","0","66197","","null","","","null","35","","NaN","","","","","","","","","","","","","",""
"","response","","html-keyboard-response","244","359800","0.0-1.0-320.0-0.0","0","0","66197","","348","","","68","35","","","1","35","training","adjacent","BC","2","3","P.jpg","R.jpg","0","1","0","",""
"","feedback","","html-keyboard-response","245","360810","0.0-1.0-321.0-0.0","0","0","66197","","null","","","null","35","","","","","","","","","","","","","","","",""
"","time_out","","html-keyboard-response","246","362822","0.0-1.0-323.0-0.0","0","0","66197","","null","","","null","35","","","","","","","","","","","","","","","",""
"","ITI","","html-keyboard-response","247","363831","0.0-1.0-324.0","0","0","66197","","null","","","null","35","","","","","","","","","","","","","","","NaN",""
"","S1","","html-keyboard-response","248","364096","0.0-1.0-326.0","0","0","66197","","null","","","null","36","","","","","","","","","","","","","","","",""
"","ISI","","html-keyboard-response","249","365104","0.0-1.0-327.0","0","0","66197","","null","","","null","36","NaN","","","","","","","","","","","","","","",""
"","S2","","html-keyboard-response","250","365369","0.0-1.0-328.0","0","0","66197","","null","","","null","36","","NaN","","","","","","","","","","","","","",""
"","response","","html-keyboard-response","251","366289","0.0-1.0-329.0-0.0","0","0","66197","","915","","","68","36","","","1","36","training","adjacent","GF","7","6","N.jpg","Q.jpg","0","0","1","",""
"","feedback","","html-keyboard-response","252","367300","0.0-1.0-330.0-0.0","0","0","66197","","null","","","null","36","","","","","","","","","","","","","","","",""
"","ITI","","html-keyboard-response","253","368313","0.0-1.0-333.0","0","0","66197","","null","","","null","36","","","","","","","","","","","","","","","NaN",""
"","S1","","html-keyboard-response","254","368581","0.0-1.0-335.0","0","0","66197","","null","","","null","37","","","","","","","","","","","","","","","",""
"","ISI","","html-keyboard-response","255","369600","0.0-1.0-336.0","0","0","66197","","null","","","null","37","NaN","","","","","","","","","","","","","","",""
"","S2","","html-keyboard-response","256","369864","0.0-1.0-337.0","0","0","66197","","null","","","null","37","","NaN","","","","","","","","","","","","","",""
"","response","","html-keyboard-response","257","370362","0.0-1.0-338.0-0.0","0","0","66197","","492","","","68","37","","","1","37","training","adjacent","GF","7","6","N.jpg","Q.jpg","0","0","1","",""
"","feedback","","html-keyboard-response","258","371374","0.0-1.0-339.0-0.0","0","0","66197","","null","","","null","37","","","","","","","","","","","","","","","",""
"","ITI","","html-keyboard-response","259","372384","0.0-1.0-342.0","0","0","66197","","null","","","null","37","","","","","","","","","","","","","","","NaN",""
"","S1","","html-keyboard-response","260","372653","0.0-1.0-344.0","0","0","66197","","null","","","null","38","","","","","","","","","","","","","","","",""
"","ISI","","html-keyboard-response","261","373668","0.0-1.0-345.0","0","0","66197","","null","","","null","38","NaN","","","","","","","","","","","","","","",""
"","S2","","html-keyboard-response","262","373931","0.0-1.0-346.0","0","0","66197","","null","","","null","38","","NaN","","","","","","","","","","","","","",""
"","response","","html-keyboard-response","263","374638","0.0-1.0-347.0-0.0","0","0","66197","","702","","","68","38","","","1","38","training","adjacent","CB","3","2","R.jpg","P.jpg","0","0","1","",""
"","feedback","","html-keyboard-response","264","375649","0.0-1.0-348.0-0.0","0","0","66197","","null","","","null","38","","","","","","","","","","","","","","","",""
"","ITI","","html-keyboard-response","265","376666","0.0-1.0-351.0","0","0","66197","","null","","","null","38","","","","","","","","","","","","","","","NaN",""
"","S1","","html-keyboard-response","266","376930","0.0-1.0-353.0","0","0","66197","","null","","","null","39","","","","","","","","","","","","","","","",""
"","ISI","","html-keyboard-response","267","377944","0.0-1.0-354.0","0","0","66197","","null","","","null","39","NaN","","","","","","","","","","","","","","",""
"","S2","","html-keyboard-response","268","378209","0.0-1.0-355.0","0","0","66197","","null","","","null","39","","NaN","","","","","","","","","","","","","",""
"","response","","html-keyboard-response","269","378558","0.0-1.0-356.0-0.0","0","0","66197","","346","","","75","39","","","1","39","training","adjacent","DC","4","3","O.jpg","R.jpg","1","0","0","",""
"","feedback","","html-keyboard-response","270","379576","0.0-1.0-357.0-0.0","0","0","66197","","null","","","null","39","","","","","","","","","","","","","","","",""
"","time_out","","html-keyboard-response","271","381582","0.0-1.0-359.0-0.0","0","0","66197","","null","","","null","39","","","","","","","","","","","","","","","",""
"","ITI","","html-keyboard-response","272","382590","0.0-1.0-360.0","0","0","66197","","null","","","null","39","","","","","","","","","","","","","","","NaN",""
"","S1","","html-keyboard-response","273","382858","0.0-1.0-362.0","0","0","66197","","null","","","null","40","","","","","","","","","","","","","","","",""
"","ISI","","html-keyboard-response","274","383870","0.0-1.0-363.0","0","0","66197","","null","","","null","40","NaN","","","","","","","","","","","","","","",""
"","S2","","html-keyboard-response","275","384133","0.0-1.0-364.0","0","0","66197","","null","","","null","40","","NaN","","","","","","","","","","","","","",""
"","response","","html-keyboard-response","276","384730","0.0-1.0-365.0-0.0","0","0","66197","","587","","","75","40","","","1","40","training","adjacent","DE","4","5","O.jpg","L.jpg","1","1","1","",""
"","feedback","","html-keyboard-response","277","385744","0.0-1.0-366.0-0.0","0","0","66197","","null","","","null","40","","","","","","","","","","","","","","","",""
"","ITI","","html-keyboard-response","278","386757","0.0-1.0-369.0","0","0","66197","","null","","","null","40","","","","","","","","","","","","","","","NaN",""
"","S1","","html-keyboard-response","279","387016","0.0-1.0-371.0","0","0","66197","","null","","","null","41","","","","","","","","","","","","","","","",""
"","ISI","","html-keyboard-response","280","388032","0.0-1.0-372.0","0","0","66197","","null","","","null","41","NaN","","","","","","","","","","","","","","",""
"","S2","","html-keyboard-response","281","388300","0.0-1.0-373.0","0","0","66197","","null","","","null","41","","NaN","","","","","","","","","","","","","",""
"","response","","html-keyboard-response","282","388685","0.0-1.0-374.0-0.0","0","0","66197","","379","","","68","41","","","1","41","training","adjacent","AB","1","2","M.jpg","P.jpg","0","1","0","",""
"","feedback","","html-keyboard-response","283","389705","0.0-1.0-375.0-0.0","0","0","66197","","null","","","null","41","","","","","","","","","","","","","","","",""
"","time_out","","html-keyboard-response","284","391723","0.0-1.0-377.0-0.0","0","0","66197","","null","","","null","41","","","","","","","","","","","","","","","",""
"","ITI","","html-keyboard-response","285","392736","0.0-1.0-378.0","0","0","66197","","null","","","null","41","","","","","","","","","","","","","","","NaN",""
"","S1","","html-keyboard-response","286","392999","0.0-1.0-380.0","0","0","66197","","null","","","null","42","","","","","","","","","","","","","","","",""
"","ISI","","html-keyboard-response","287","394011","0.0-1.0-381.0","0","0","66197","","null","","","null","42","NaN","","","","","","","","","","","","","","",""
"","S2","","html-keyboard-response","288","394274","0.0-1.0-382.0","0","0","66197","","null","","","null","42","","NaN","","","","","","","","","","","","","",""
"","response","","html-keyboard-response","289","394839","0.0-1.0-383.0-0.0","0","0","66197","","561","","","75","42","","","1","42","training","adjacent","DC","4","3","O.jpg","R.jpg","1","0","0","",""
"","feedback","","html-keyboard-response","290","395846","0.0-1.0-384.0-0.0","0","0","66197","","null","","","null","42","","","","","","","","","","","","","","","",""
"","time_out","","html-keyboard-response","291","397852","0.0-1.0-386.0-0.0","0","0","66197","","null","","","null","42","","","","","","","","","","","","","","","",""
"","ITI","","html-keyboard-response","292","398866","0.0-1.0-387.0","0","0","66197","","null","","","null","42","","","","","","","","","","","","","","","NaN",""
"","S1","","html-keyboard-response","293","399131","0.0-1.0-389.0","0","0","66197","","null","","","null","43","","","","","","","","","","","","","","","",""
"","ISI","","html-keyboard-response","294","400144","0.0-1.0-390.0","0","0","66197","","null","","","null","43","NaN","","","","","","","","","","","","","","",""
"","S2","","html-keyboard-response","295","400408","0.0-1.0-391.0","0","0","66197","","null","","","null","43","","NaN","","","","","","","","","","","","","",""
"","response","","html-keyboard-response","296","400747","0.0-1.0-392.0-0.0","0","0","66197","","334","","","68","43","","","1","43","training","adjacent","ED","5","4","L.jpg","O.jpg","0","0","1","",""
"","feedback","","html-keyboard-response","297","401763","0.0-1.0-393.0-0.0","0","0","66197","","null","","","null","43","","","","","","","","","","","","","","","",""
"","ITI","","html-keyboard-response","298","402775","0.0-1.0-396.0","0","0","66197","","null","","","null","43","","","","","","","","","","","","","","","NaN",""
"","S1","","html-keyboard-response","299","403038","0.0-1.0-398.0","0","0","66197","","null","","","null","44","","","","","","","","","","","","","","","",""
"","ISI","","html-keyboard-response","300","404048","0.0-1.0-399.0","0","0","66197","","null","","","null","44","NaN","","","","","","","","","","","","","","",""
"","S2","","html-keyboard-response","301","404314","0.0-1.0-400.0","0","0","66197","","null","","","null","44","","NaN","","","","","","","","","","","","","",""
"","response","","html-keyboard-response","302","404614","0.0-1.0-401.0-0.0","0","0","66197","","295","","","75","44","","","1","44","training","adjacent","FG","6","7","Q.jpg","N.jpg","1","1","1","",""
"","feedback","","html-keyboard-response","303","405617","0.0-1.0-402.0-0.0","0","0","66197","","null","","","null","44","","","","","","","","","","","","","","","",""
"","ITI","","html-keyboard-response","304","406633","0.0-1.0-405.0","0","0","66197","","null","","","null","44","","","","","","","","","","","","","","","NaN",""
"","S1","","html-keyboard-response","305","406896","0.0-1.0-407.0","0","0","66197","","null","","","null","45","","","","","","","","","","","","","","","",""
"","ISI","","html-keyboard-response","306","407903","0.0-1.0-408.0","0","0","66197","","null","","","null","45","NaN","","","","","","","","","","","","","","",""
"","S2","","html-keyboard-response","307","408156","0.0-1.0-409.0","0","0","66197","","null","","","null","45","","NaN","","","","","","","","","","","","","",""
"","response","","html-keyboard-response","308","408649","0.0-1.0-410.0-0.0","0","0","66197","","488","","","75","45","","","1","45","training","adjacent","CB","3","2","R.jpg","P.jpg","1","0","0","",""
"","feedback","","html-keyboard-response","309","409663","0.0-1.0-411.0-0.0","0","0","66197","","null","","","null","45","","","","","","","","","","","","","","","",""
"","time_out","","html-keyboard-response","310","411680","0.0-1.0-413.0-0.0","0","0","66197","","null","","","null","45","","","","","","","","","","","","","","","",""
"","ITI","","html-keyboard-response","311","412696","0.0-1.0-414.0","0","0","66197","","null","","","null","45","","","","","","","","","","","","","","","NaN",""
"","S1","","html-keyboard-response","312","412952","0.0-1.0-416.0","0","0","66197","","null","","","null","46","","","","","","","","","","","","","","","",""
"","ISI","","html-keyboard-response","313","413958","0.0-1.0-417.0","0","0","66197","","null","","","null","46","NaN","","","","","","","","","","","","","","",""
"","S2","","html-keyboard-response","314","414224","0.0-1.0-418.0","0","0","66197","","null","","","null","46","","NaN","","","","","","","","","","","","","",""
"","response","","html-keyboard-response","315","414288","0.0-1.0-419.0-0.0","0","0","66197","","59","","","68","46","","","1","46","training","adjacent","ED","5","4","L.jpg","O.jpg","0","0","1","",""
"","feedback","","html-keyboard-response","316","415296","0.0-1.0-420.0-0.0","0","0","66197","","null","","","null","46","","","","","","","","","","","","","","","",""
"","ITI","","html-keyboard-response","317","416304","0.0-1.0-423.0","0","0","66197","","null","","","null","46","","","","","","","","","","","","","","","NaN",""
"","S1","","html-keyboard-response","318","416567","0.0-1.0-425.0","0","0","66197","","null","","","null","47","","","","","","","","","","","","","","","",""
"","ISI","","html-keyboard-response","319","417583","0.0-1.0-426.0","0","0","66197","","null","","","null","47","NaN","","","","","","","","","","","","","","",""
"","S2","","html-keyboard-response","320","417850","0.0-1.0-427.0","0","0","66197","","null","","","null","47","","NaN","","","","","","","","","","","","","",""
"","response","","html-keyboard-response","321","418310","0.0-1.0-428.0-0.0","0","0","66197","","455","","","75","47","","","1","47","training","adjacent","CB","3","2","R.jpg","P.jpg","1","0","0","",""
"","feedback","","html-keyboard-response","322","419320","0.0-1.0-429.0-0.0","0","0","66197","","null","","","null","47","","","","","","","","","","","","","","","",""
"","time_out","","html-keyboard-response","323","421325","0.0-1.0-431.0-0.0","0","0","66197","","null","","","null","47","","","","","","","","","","","","","","","",""
"","ITI","","html-keyboard-response","324","422330","0.0-1.0-432.0","0","0","66197","","null","","","null","47","","","","","","","","","","","","","","","NaN",""
"","block_over","","html-keyboard-response","325","425254","0.0-1.0-433.0-0.0","0","0","66197","","2918","","","32","47","","","","","","","","","","","","","","","",""
"","S1","","html-keyboard-response","326","425520","0.0-1.0-434.0","0","0","66197","","null","","","null","48","","","","","","","","","","","","","","","",""
"","ISI","","html-keyboard-response","327","426529","0.0-1.0-435.0","0","0","66197","","null","","","null","48","NaN","","","","","","","","","","","","","","",""
"","S2","","html-keyboard-response","328","426795","0.0-1.0-436.0","0","0","66197","","null","","","null","48","","NaN","","","","","","","","","","","","","",""
"","response","","html-keyboard-response","329","427391","0.0-1.0-437.0-0.0","0","0","66197","","590","","","75","48","","","2","48","training","adjacent","AB","1","2","M.jpg","P.jpg","1","1","1","",""
"","feedback","","html-keyboard-response","330","428411","0.0-1.0-438.0-0.0","0","0","66197","","null","","","null","48","","","","","","","","","","","","","","","",""
"","ITI","","html-keyboard-response","331","429421","0.0-1.0-441.0","0","0","66197","","null","","","null","48","","","","","","","","","","","","","","","NaN",""
"","S1","","html-keyboard-response","332","429687","0.0-1.0-443.0","0","0","66197","","null","","","null","49","","","","","","","","","","","","","","","",""
"","ISI","","html-keyboard-response","333","430697","0.0-1.0-444.0","0","0","66197","","null","","","null","49","NaN","","","","","","","","","","","","","","",""
"","S2","","html-keyboard-response","334","430960","0.0-1.0-445.0","0","0","66197","","null","","","null","49","","NaN","","","","","","","","","","","","","",""
"","response","","html-keyboard-response","335","431377","0.0-1.0-446.0-0.0","0","0","66197","","412","","","68","49","","","2","49","training","adjacent","CD","3","4","R.jpg","O.jpg","0","1","0","",""
"","feedback","","html-keyboard-response","336","432386","0.0-1.0-447.0-0.0","0","0","66197","","null","","","null","49","","","","","","","","","","","","","","","",""
"","time_out","","html-keyboard-response","337","434394","0.0-1.0-449.0-0.0","0","0","66197","","null","","","null","49","","","","","","","","","","","","","","","",""
"","ITI","","html-keyboard-response","338","435405","0.0-1.0-450.0","0","0","66197","","null","","","null","49","","","","","","","","","","","","","","","NaN",""
"","S1","","html-keyboard-response","339","435661","0.0-1.0-452.0","0","0","66197","","null","","","null","50","","","","","","","","","","","","","","","",""
"","ISI","","html-keyboard-response","340","436676","0.0-1.0-453.0","0","0","66197","","null","","","null","50","NaN","","","","","","","","","","","","","","",""
"","S2","","html-keyboard-response","341","436940","0.0-1.0-454.0","0","0","66197","","null","","","null","50","","NaN","","","","","","","","","","","","","",""
"","response","","html-keyboard-response","342","437503","0.0-1.0-455.0-0.0","0","0","66197","","558","","","75","50","","","2","50","training","adjacent","EF","5","6","L.jpg","Q.jpg","1","1","1","",""
"","feedback","","html-keyboard-response","343","438515","0.0-1.0-456.0-0.0","0","0","66197","","null","","","null","50","","","","","","","","","","","","","","","",""
"","ITI","","html-keyboard-response","344","439524","0.0-1.0-459.0","0","0","66197","","null","","","null","50","","","","","","","","","","","","","","","NaN",""
"","S1","","html-keyboard-response","345","439790","0.0-1.0-461.0","0","0","66197","","null","","","null","51","","","","","","","","","","","","","","","",""
"","ISI","","html-keyboard-response","346","440803","0.0-1.0-462.0","0","0","66197","","null","","","null","51","NaN","","","","","","","","","","","","","","",""
"","S2","","html-keyboard-response","347","441069","0.0-1.0-463.0","0","0","66197","","null","","","null","51","","NaN","","","","","","","","","","","","","",""
"","response","","html-keyboard-response","348","441688","0.0-1.0-464.0-0.0","0","0","66197","","613","","","68","51","","","2","51","training","adjacent","CB","3","2","R.jpg","P.jpg","0","0","1","",""
"","feedback","","html-keyboard-response","349","442694","0.0-1.0-465.0-0.0","0","0","66197","","null","","","null","51","","","","","","","","","","","","","","","",""
"","ITI","","html-keyboard-response","350","443706","0.0-1.0-468.0","0","0","66197","","null","","","null","51","","","","","","","","","","","","","","","NaN",""
"","S1","","html-keyboard-response","351","443969","0.0-1.0-470.0","0","0","66197","","null","","","null","52","","","","","","","","","","","","","","","",""
"","ISI","","html-keyboard-response","352","444976","0.0-1.0-471.0","0","0","66197","","null","","","null","52","NaN","","","","","","","","","","","","","","",""
"","S2","","html-keyboard-response","353","445232","0.0-1.0-472.0","0","0","66197","","null","","","null","52","","NaN","","","","","","","","","","","","","",""
"","response","","html-keyboard-response","354","445912","0.0-1.0-473.0-0.0","0","0","66197","","675","","","68","52","","","2","52","training","adjacent","BA","2","1","P.jpg","M.jpg","0","0","1","",""
"","feedback","","html-keyboard-response","355","446928","0.0-1.0-474.0-0.0","0","0","66197","","null","","","null","52","","","","","","","","","","","","","","","",""
"","ITI","","html-keyboard-response","356","447938","0.0-1.0-477.0","0","0","66197","","null","","","null","52","","","","","","","","","","","","","","","NaN",""
"","S1","","html-keyboard-response","357","448196","0.0-1.0-479.0","0","0","66197","","null","","","null","53","","","","","","","","","","","","","","","",""
"","ISI","","html-keyboard-response","358","449210","0.0-1.0-480.0","0","0","66197","","null","","","null","53","NaN","","","","","","","","","","","","","","",""
"","S2","","html-keyboard-response","359","449476","0.0-1.0-481.0","0","0","66197","","null","","","null","53","","NaN","","","","","","","","","","","","","",""
"","response","","html-keyboard-response","360","450021","0.0-1.0-482.0-0.0","0","0","66197","","540","","","68","53","","","2","53","training","adjacent","DE","4","5","O.jpg","L.jpg","0","1","0","",""
"","feedback","","html-keyboard-response","361","451030","0.0-1.0-483.0-0.0","0","0","66197","","null","","","null","53","","","","","","","","","","","","","","","",""
"","time_out","","html-keyboard-response","362","453041","0.0-1.0-485.0-0.0","0","0","66197","","null","","","null","53","","","","","","","","","","","","","","","",""
"","ITI","","html-keyboard-response","363","454058","0.0-1.0-486.0","0","0","66197","","null","","","null","53","","","","","","","","","","","","","","","NaN",""
"","S1","","html-keyboard-response","364","454323","0.0-1.0-488.0","0","0","66197","","null","","","null","54","","","","","","","","","","","","","","","",""
"","ISI","","html-keyboard-response","365","455340","0.0-1.0-489.0","0","0","66197","","null","","","null","54","NaN","","","","","","","","","","","","","","",""
"","S2","","html-keyboard-response","366","455605","0.0-1.0-490.0","0","0","66197","","null","","","null","54","","NaN","","","","","","","","","","","","","",""
"","response","","html-keyboard-response","367","455962","0.0-1.0-491.0-0.0","0","0","66197","","355","","","75","54","","","2","54","training","adjacent","DE","4","5","O.jpg","L.jpg","1","1","1","",""
"","feedback","","html-keyboard-response","368","456983","0.0-1.0-492.0-0.0","0","0","66197","","null","","","null","54","","","","","","","","","","","","","","","",""
"","ITI","","html-keyboard-response","369","458001","0.0-1.0-495.0","0","0","66197","","null","","","null","54","","","","","","","","","","","","","","","NaN",""
"","S1","","html-keyboard-response","370","458269","0.0-1.0-497.0","0","0","66197","","null","","","null","55","","","","","","","","","","","","","","","",""
"","ISI","","html-keyboard-response","371","459286","0.0-1.0-498.0","0","0","66197","","null","","","null","55","NaN","","","","","","","","","","","","","","",""
"","S2","","html-keyboard-response","372","459551","0.0-1.0-499.0","0","0","66197","","null","","","null","55","","NaN","","","","","","","","","","","","","",""
"","response","","html-keyboard-response","373","460171","0.0-1.0-500.0-0.0","0","0","66197","","617","","","68","55","","","2","55","training","adjacent","CD","3","4","R.jpg","O.jpg","0","1","0","",""
"","feedback","","html-keyboard-response","374","461185","0.0-1.0-501.0-0.0","0","0","66197","","null","","","null","55","","","","","","","","","","","","","","","",""
"","time_out","","html-keyboard-response","375","463204","0.0-1.0-503.0-0.0","0","0","66197","","null","","","null","55","","","","","","","","","","","","","","","",""
"","ITI","","html-keyboard-response","376","464220","0.0-1.0-504.0","0","0","66197","","null","","","null","55","","","","","","","","","","","","","","","NaN",""
"","S1","","html-keyboard-response","377","464485","0.0-1.0-506.0","0","0","66197","","null","","","null","56","","","","","","","","","","","","","","","",""
"","ISI","","html-keyboard-response","378","465497","0.0-1.0-507.0","0","0","66197","","null","","","null","56","NaN","","","","","","","","","","","","","","",""
"","S2","","html-keyboard-response","379","465762","0.0-1.0-508.0","0","0","66197","","null","","","null","56","","NaN","","","","","","","","","","","","","",""
"","response","","html-keyboard-response","380","466557","0.0-1.0-509.0-0.0","0","0","66197","","790","","","68","56","","","2","56","training","adjacent","FG","6","7","Q.jpg","N.jpg","0","1","0","",""
"","feedback","","html-keyboard-response","381","467565","0.0-1.0-510.0-0.0","0","0","66197","","null","","","null","56","","","","","","","","","","","","","","","",""
"","time_out","","html-keyboard-response","382","469581","0.0-1.0-512.0-0.0","0","0","66197","","null","","","null","56","","","","","","","","","","","","","","","",""
"","ITI","","html-keyboard-response","383","470598","0.0-1.0-513.0","0","0","66197","","null","","","null","56","","","","","","","","","","","","","","","NaN",""
"","S1","","html-keyboard-response","384","470865","0.0-1.0-515.0","0","0","66197","","null","","","null","57","","","","","","","","","","","","","","","",""
"","ISI","","html-keyboard-response","385","471869","0.0-1.0-516.0","0","0","66197","","null","","","null","57","NaN","","","","","","","","","","","","","","",""
"","S2","","html-keyboard-response","386","472135","0.0-1.0-517.0","0","0","66197","","null","","","null","57","","NaN","","","","","","","","","","","","","",""
"","response","","html-keyboard-response","387","472630","0.0-1.0-518.0-0.0","0","0","66197","","493","","","68","57","","","2","57","training","adjacent","CD","3","4","R.jpg","O.jpg","0","1","0","",""
"","feedback","","html-keyboard-response","388","473640","0.0-1.0-519.0-0.0","0","0","66197","","null","","","null","57","","","","","","","","","","","","","","","",""
"","time_out","","html-keyboard-response","389","475644","0.0-1.0-521.0-0.0","0","0","66197","","null","","","null","57","","","","","","","","","","","","","","","",""
"","ITI","","html-keyboard-response","390","476661","0.0-1.0-522.0","0","0","66197","","null","","","null","57","","","","","","","","","","","","","","","NaN",""
"","S1","","html-keyboard-response","391","476930","0.0-1.0-524.0","0","0","66197","","null","","","null","58","","","","","","","","","","","","","","","",""
"","ISI","","html-keyboard-response","392","477947","0.0-1.0-525.0","0","0","66197","","null","","","null","58","NaN","","","","","","","","","","","","","","",""
"","S2","","html-keyboard-response","393","478213","0.0-1.0-526.0","0","0","66197","","null","","","null","58","","NaN","","","","","","","","","","","","","",""
"","response","","html-keyboard-response","394","478801","0.0-1.0-527.0-0.0","0","0","66197","","582","","","75","58","","","2","58","training","adjacent","BC","2","3","P.jpg","R.jpg","1","1","1","",""
"","feedback","","html-keyboard-response","395","479817","0.0-1.0-528.0-0.0","0","0","66197","","null","","","null","58","","","","","","","","","","","","","","","",""
"","ITI","","html-keyboard-response","396","480825","0.0-1.0-531.0","0","0","66197","","null","","","null","58","","","","","","","","","","","","","","","NaN",""
"","S1","","html-keyboard-response","397","481089","0.0-1.0-533.0","0","0","66197","","null","","","null","59","","","","","","","","","","","","","","","",""
"","ISI","","html-keyboard-response","398","482103","0.0-1.0-534.0","0","0","66197","","null","","","null","59","NaN","","","","","","","","","","","","","","",""
"","S2","","html-keyboard-response","399","482367","0.0-1.0-535.0","0","0","66197","","null","","","null","59","","NaN","","","","","","","","","","","","","",""
"","response","","html-keyboard-response","400","482793","0.0-1.0-536.0-0.0","0","0","66197","","423","","","68","59","","","2","59","training","adjacent","DE","4","5","O.jpg","L.jpg","0","1","0","",""
"","feedback","","html-keyboard-response","401","483804","0.0-1.0-537.0-0.0","0","0","66197","","null","","","null","59","","","","","","","","","","","","","","","",""
"","time_out","","html-keyboard-response","402","485826","0.0-1.0-539.0-0.0","0","0","66197","","null","","","null","59","","","","","","","","","","","","","","","",""
"","ITI","","html-keyboard-response","403","486837","0.0-1.0-540.0","0","0","66197","","null","","","null","59","","","","","","","","","","","","","","","NaN",""
"","S1","","html-keyboard-response","404","487100","0.0-1.0-542.0","0","0","66197","","null","","","null","60","","","","","","","","","","","","","","","",""
"","ISI","","html-keyboard-response","405","488108","0.0-1.0-543.0","0","0","66197","","null","","","null","60","NaN","","","","","","","","","","","","","","",""
"","S2","","html-keyboard-response","406","488375","0.0-1.0-544.0","0","0","66197","","null","","","null","60","","NaN","","","","","","","","","","","","","",""
"","response","","html-keyboard-response","407","489118","0.0-1.0-545.0-0.0","0","0","66197","","741","","","68","60","","","2","60","training","adjacent","DE","4","5","O.jpg","L.jpg","0","1","0","",""
"","feedback","","html-keyboard-response","408","490133","0.0-1.0-546.0-0.0","0","0","66197","","null","","","null","60","","","","","","","","","","","","","","","",""
"","time_out","","html-keyboard-response","409","492146","0.0-1.0-548.0-0.0","0","0","66197","","null","","","null","60","","","","","","","","","","","","","","","",""
"","ITI","","html-keyboard-response","410","493155","0.0-1.0-549.0","0","0","66197","","null","","","null","60","","","","","","","","","","","","","","","NaN",""
"","S1","","html-keyboard-response","411","493419","0.0-1.0-551.0","0","0","66197","","null","","","null","61","","","","","","","","","","","","","","","",""
"","ISI","","html-keyboard-response","412","494436","0.0-1.0-552.0","0","0","66197","","null","","","null","61","NaN","","","","","","","","","","","","","","",""
"","S2","","html-keyboard-response","413","494698","0.0-1.0-553.0","0","0","66197","","null","","","null","61","","NaN","","","","","","","","","","","","","",""
"","response","","html-keyboard-response","414","495150","0.0-1.0-554.0-0.0","0","0","66197","","446","","","75","61","","","2","61","training","adjacent","ED","5","4","L.jpg","O.jpg","1","0","0","",""
"","feedback","","html-keyboard-response","415","496166","0.0-1.0-555.0-0.0","0","0","66197","","null","","","null","61","","","","","","","","","","","","","","","",""
"","time_out","","html-keyboard-response","416","498186","0.0-1.0-557.0-0.0","0","0","66197","","null","","","null","61","","","","","","","","","","","","","","","",""
"","ITI","","html-keyboard-response","417","499202","0.0-1.0-558.0","0","0","66197","","null","","","null","61","","","","","","","","","","","","","","","NaN",""
"","S1","","html-keyboard-response","418","499465","0.0-1.0-560.0","0","0","66197","","null","","","null","62","","","","","","","","","","","","","","","",""
"","ISI","","html-keyboard-response","419","500477","0.0-1.0-561.0","0","0","66197","","null","","","null","62","NaN","","","","","","","","","","","","","","",""
"","S2","","html-keyboard-response","420","500739","0.0-1.0-562.0","0","0","66197","","null","","","null","62","","NaN","","","","","","","","","","","","","",""
"","response","","html-keyboard-response","421","501334","0.0-1.0-563.0-0.0","0","0","66197","","591","","","75","62","","","2","62","training","adjacent","AB","1","2","M.jpg","P.jpg","1","1","1","",""
"","feedback","","html-keyboard-response","422","502350","0.0-1.0-564.0-0.0","0","0","66197","","null","","","null","62","","","","","","","","","","","","","","","",""
"","ITI","","html-keyboard-response","423","503364","0.0-1.0-567.0","0","0","66197","","null","","","null","62","","","","","","","","","","","","","","","NaN",""
"","S1","","html-keyboard-response","424","503628","0.0-1.0-569.0","0","0","66197","","null","","","null","63","","","","","","","","","","","","","","","",""
"","ISI","","html-keyboard-response","425","504648","0.0-1.0-570.0","0","0","66197","","null","","","null","63","NaN","","","","","","","","","","","","","","",""
"","S2","","html-keyboard-response","426","504909","0.0-1.0-571.0","0","0","66197","","null","","","null","63","","NaN","","","","","","","","","","","","","",""
"","response","","html-keyboard-response","427","505424","0.0-1.0-572.0-0.0","0","0","66197","","511","","","75","63","","","2","63","training","adjacent","AB","1","2","M.jpg","P.jpg","1","1","1","",""
"","feedback","","html-keyboard-response","428","506436","0.0-1.0-573.0-0.0","0","0","66197","","null","","","null","63","","","","","","","","","","","","","","","",""
"","ITI","","html-keyboard-response","429","507446","0.0-1.0-576.0","0","0","66197","","null","","","null","63","","","","","","","","","","","","","","","NaN",""
"","S1","","html-keyboard-response","430","507710","0.0-1.0-578.0","0","0","66197","","null","","","null","64","","","","","","","","","","","","","","","",""
"","ISI","","html-keyboard-response","431","508720","0.0-1.0-579.0","0","0","66197","","null","","","null","64","NaN","","","","","","","","","","","","","","",""
"","S2","","html-keyboard-response","432","508986","0.0-1.0-580.0","0","0","66197","","null","","","null","64","","NaN","","","","","","","","","","","","","",""
"","response","","html-keyboard-response","433","509511","0.0-1.0-581.0-0.0","0","0","66197","","518","","","68","64","","","2","64","training","adjacent","FG","6","7","Q.jpg","N.jpg","0","1","0","",""
"","feedback","","html-keyboard-response","434","510517","0.0-1.0-582.0-0.0","0","0","66197","","null","","","null","64","","","","","","","","","","","","","","","",""
"","time_out","","html-keyboard-response","435","512534","0.0-1.0-584.0-0.0","0","0","66197","","null","","","null","64","","","","","","","","","","","","","","","",""
"","ITI","","html-keyboard-response","436","513547","0.0-1.0-585.0","0","0","66197","","null","","","null","64","","","","","","","","","","","","","","","NaN",""
"","S1","","html-keyboard-response","437","513812","0.0-1.0-587.0","0","0","66197","","null","","","null","65","","","","","","","","","","","","","","","",""
"","ISI","","html-keyboard-response","438","514823","0.0-1.0-588.0","0","0","66197","","null","","","null","65","NaN","","","","","","","","","","","","","","",""
"","S2","","html-keyboard-response","439","515090","0.0-1.0-589.0","0","0","66197","","null","","","null","65","","NaN","","","","","","","","","","","","","",""
"","response","","html-keyboard-response","440","515737","0.0-1.0-590.0-0.0","0","0","66197","","641","","","68","65","","","2","65","training","adjacent","AB","1","2","M.jpg","P.jpg","0","1","0","",""
"","feedback","","html-keyboard-response","441","516757","0.0-1.0-591.0-0.0","0","0","66197","","null","","","null","65","","","","","","","","","","","","","","","",""
"","time_out","","html-keyboard-response","442","518766","0.0-1.0-593.0-0.0","0","0","66197","","null","","","null","65","","","","","","","","","","","","","","","",""
"","ITI","","html-keyboard-response","443","519775","0.0-1.0-594.0","0","0","66197","","null","","","null","65","","","","","","","","","","","","","","","NaN",""
"","S1","","html-keyboard-response","444","520040","0.0-1.0-596.0","0","0","66197","","null","","","null","66","","","","","","","","","","","","","","","",""
"","ISI","","html-keyboard-response","445","521044","0.0-1.0-597.0","0","0","66197","","null","","","null","66","NaN","","","","","","","","","","","","","","",""
"","S2","","html-keyboard-response","446","521312","0.0-1.0-598.0","0","0","66197","","null","","","null","66","","NaN","","","","","","","","","","","","","",""
"","response","","html-keyboard-response","447","522069","0.0-1.0-599.0-0.0","0","0","66197","","751","","","68","66","","","2","66","training","adjacent","CD","3","4","R.jpg","O.jpg","0","1","0","",""
"","feedback","","html-keyboard-response","448","523088","0.0-1.0-600.0-0.0","0","0","66197","","null","","","null","66","","","","","","","","","","","","","","","",""
"","time_out","","html-keyboard-response","449","525107","0.0-1.0-602.0-0.0","0","0","66197","","null","","","null","66","","","","","","","","","","","","","","","",""
"","ITI","","html-keyboard-response","450","526120","0.0-1.0-603.0","0","0","66197","","null","","","null","66","","","","","","","","","","","","","","","NaN",""
"","S1","","html-keyboard-response","451","526382","0.0-1.0-605.0","0","0","66197","","null","","","null","67","","","","","","","","","","","","","","","",""
"","ISI","","html-keyboard-response","452","527397","0.0-1.0-606.0","0","0","66197","","null","","","null","67","NaN","","","","","","","","","","","","","","",""
"","S2","","html-keyboard-response","453","527660","0.0-1.0-607.0","0","0","66197","","null","","","null","67","","NaN","","","","","","","","","","","","","",""
"","response","","html-keyboard-response","454","528745","0.0-1.0-608.0-0.0","0","0","66197","","1082","","","68","67","","","2","67","training","adjacent","FG","6","7","Q.jpg","N.jpg","0","1","0","",""
"","feedback","","html-keyboard-response","455","529762","0.0-1.0-609.0-0.0","0","0","66197","","null","","","null","67","","","","","","","","","","","","","","","",""
"","time_out","","html-keyboard-response","456","531783","0.0-1.0-611.0-0.0","0","0","66197","","null","","","null","67","","","","","","","","","","","","","","","",""
"","ITI","","html-keyboard-response","457","532794","0.0-1.0-612.0","0","0","66197","","null","","","null","67","","","","","","","","","","","","","","","NaN",""
"","S1","","html-keyboard-response","458","533059","0.0-1.0-614.0","0","0","66197","","null","","","null","68","","","","","","","","","","","","","","","",""
"","ISI","","html-keyboard-response","459","534067","0.0-1.0-615.0","0","0","66197","","null","","","null","68","NaN","","","","","","","","","","","","","","",""
"","S2","","html-keyboard-response","460","534336","0.0-1.0-616.0","0","0","66197","","null","","","null","68","","NaN","","","","","","","","","","","","","",""
"","response","","html-keyboard-response","461","535579","0.0-1.0-617.0-0.0","0","0","66197","","1238","","","68","68","","","2","68","training","adjacent","GF","7","6","N.jpg","Q.jpg","0","0","1","",""
"","feedback","","html-keyboard-response","462","536597","0.0-1.0-618.0-0.0","0","0","66197","","null","","","null","68","","","","","","","","","","","","","","","",""
"","ITI","","html-keyboard-response","463","537604","0.0-1.0-621.0","0","0","66197","","null","","","null","68","","","","","","","","","","","","","","","NaN",""
"","S1","","html-keyboard-response","464","537869","0.0-1.0-623.0","0","0","66197","","null","","","null","69","","","","","","","","","","","","","","","",""
"","ISI","","html-keyboard-response","465","538879","0.0-1.0-624.0","0","0","66197","","null","","","null","69","NaN","","","","","","","","","","","","","","",""
"","S2","","html-keyboard-response","466","539144","0.0-1.0-625.0","0","0","66197","","null","","","null","69","","NaN","","","","","","","","","","","","","",""
"","response","","html-keyboard-response","467","540045","0.0-1.0-626.0-0.0","0","0","66197","","897","","","75","69","","","2","69","training","adjacent","BA","2","1","P.jpg","M.jpg","1","0","0","",""
"","feedback","","html-keyboard-response","468","541058","0.0-1.0-627.0-0.0","0","0","66197","","null","","","null","69","","","","","","","","","","","","","","","",""
"","time_out","","html-keyboard-response","469","543068","0.0-1.0-629.0-0.0","0","0","66197","","null","","","null","69","","","","","","","","","","","","","","","",""
"","ITI","","html-keyboard-response","470","544076","0.0-1.0-630.0","0","0","66197","","null","","","null","69","","","","","","","","","","","","","","","NaN",""
"","S1","","html-keyboard-response","471","544341","0.0-1.0-632.0","0","0","66197","","null","","","null","70","","","","","","","","","","","","","","","",""
"","ISI","","html-keyboard-response","472","545358","0.0-1.0-633.0","0","0","66197","","null","","","null","70","NaN","","","","","","","","","","","","","","",""
"","S2","","html-keyboard-response","473","545622","0.0-1.0-634.0","0","0","66197","","null","","","null","70","","NaN","","","","","","","","","","","","","",""
"","response","","html-keyboard-response","474","546693","0.0-1.0-635.0-0.0","0","0","66197","","1066","","","68","70","","","2","70","training","adjacent","FE","6","5","Q.jpg","L.jpg","0","0","1","",""
"","feedback","","html-keyboard-response","475","547707","0.0-1.0-636.0-0.0","0","0","66197","","null","","","null","70","","","","","","","","","","","","","","","",""
"","ITI","","html-keyboard-response","476","548722","0.0-1.0-639.0","0","0","66197","","null","","","null","70","","","","","","","","","","","","","","","NaN",""
"","S1","","html-keyboard-response","477","548984","0.0-1.0-641.0","0","0","66197","","null","","","null","71","","","","","","","","","","","","","","","",""
"","ISI","","html-keyboard-response","478","549993","0.0-1.0-642.0","0","0","66197","","null","","","null","71","NaN","","","","","","","","","","","","","","",""
"","S2","","html-keyboard-response","479","550250","0.0-1.0-643.0","0","0","66197","","null","","","null","71","","NaN","","","","","","","","","","","","","",""
"","response","","html-keyboard-response","480","551309","0.0-1.0-644.0-0.0","0","0","66197","","1053","","","68","71","","","2","71","training","adjacent","CB","3","2","R.jpg","P.jpg","0","0","1","",""
"","feedback","","html-keyboard-response","481","552322","0.0-1.0-645.0-0.0","0","0","66197","","null","","","null","71","","","","","","","","","","","","","","","",""
"","ITI","","html-keyboard-response","482","553334","0.0-1.0-648.0","0","0","66197","","null","","","null","71","","","","","","","","","","","","","","","NaN",""
"","S1","","html-keyboard-response","483","553598","0.0-1.0-650.0","0","0","66197","","null","","","null","72","","","","","","","","","","","","","","","",""
"","ISI","","html-keyboard-response","484","554604","0.0-1.0-651.0","0","0","66197","","null","","","null","72","NaN","","","","","","","","","","","","","","",""
"","S2","","html-keyboard-response","485","554866","0.0-1.0-652.0","0","0","66197","","null","","","null","72","","NaN","","","","","","","","","","","","","",""
"","response","","html-keyboard-response","486","555564","0.0-1.0-653.0-0.0","0","0","66197","","695","","","68","72","","","2","72","training","adjacent","DC","4","3","O.jpg","R.jpg","0","0","1","",""
"","feedback","","html-keyboard-response","487","556584","0.0-1.0-654.0-0.0","0","0","66197","","null","","","null","72","","","","","","","","","","","","","","","",""
"","ITI","","html-keyboard-response","488","557601","0.0-1.0-657.0","0","0","66197","","null","","","null","72","","","","","","","","","","","","","","","NaN",""
"","S1","","html-keyboard-response","489","557864","0.0-1.0-659.0","0","0","66197","","null","","","null","73","","","","","","","","","","","","","","","",""
"","ISI","","html-keyboard-response","490","558877","0.0-1.0-660.0","0","0","66197","","null","","","null","73","NaN","","","","","","","","","","","","","","",""
"","S2","","html-keyboard-response","491","559141","0.0-1.0-661.0","0","0","66197","","null","","","null","73","","NaN","","","","","","","","","","","","","",""
"","response","","html-keyboard-response","492","559925","0.0-1.0-662.0-0.0","0","0","66197","","779","","","68","73","","","2","73","training","adjacent","FE","6","5","Q.jpg","L.jpg","0","0","1","",""
"","feedback","","html-keyboard-response","493","560945","0.0-1.0-663.0-0.0","0","0","66197","","null","","","null","73","","","","","","","","","","","","","","","",""
"","ITI","","html-keyboard-response","494","561963","0.0-1.0-666.0","0","0","66197","","null","","","null","73","","","","","","","","","","","","","","","NaN",""
"","S1","","html-keyboard-response","495","562225","0.0-1.0-668.0","0","0","66197","","null","","","null","74","","","","","","","","","","","","","","","",""
"","ISI","","html-keyboard-response","496","563234","0.0-1.0-669.0","0","0","66197","","null","","","null","74","NaN","","","","","","","","","","","","","","",""
"","S2","","html-keyboard-response","497","563498","0.0-1.0-670.0","0","0","66197","","null","","","null","74","","NaN","","","","","","","","","","","","","",""
"","response","","html-keyboard-response","498","564128","0.0-1.0-671.0-0.0","0","0","66197","","623","","","75","74","","","2","74","training","adjacent","DC","4","3","O.jpg","R.jpg","1","0","0","",""
"","feedback","","html-keyboard-response","499","565136","0.0-1.0-672.0-0.0","0","0","66197","","null","","","null","74","","","","","","","","","","","","","","","",""
"","time_out","","html-keyboard-response","500","567156","0.0-1.0-674.0-0.0","0","0","66197","","null","","","null","74","","","","","","","","","","","","","","","",""
"","ITI","","html-keyboard-response","501","568167","0.0-1.0-675.0","0","0","66197","","null","","","null","74","","","","","","","","","","","","","","","NaN",""
"","S1","","html-keyboard-response","502","568432","0.0-1.0-677.0","0","0","66197","","null","","","null","75","","","","","","","","","","","","","","","",""
"","ISI","","html-keyboard-response","503","569451","0.0-1.0-678.0","0","0","66197","","null","","","null","75","NaN","","","","","","","","","","","","","","",""
"","S2","","html-keyboard-response","504","569714","0.0-1.0-679.0","0","0","66197","","null","","","null","75","","NaN","","","","","","","","","","","","","",""
"","response","","html-keyboard-response","505","570806","0.0-1.0-680.0-0.0","0","0","66197","","1086","","","75","75","","","2","75","training","adjacent","BC","2","3","P.jpg","R.jpg","1","1","1","",""
"","feedback","","html-keyboard-response","506","571817","0.0-1.0-681.0-0.0","0","0","66197","","null","","","null","75","","","","","","","","","","","","","","","",""
"","ITI","","html-keyboard-response","507","572826","0.0-1.0-684.0","0","0","66197","","null","","","null","75","","","","","","","","","","","","","","","NaN",""
"","S1","","html-keyboard-response","508","573092","0.0-1.0-686.0","0","0","66197","","null","","","null","76","","","","","","","","","","","","","","","",""
"","ISI","","html-keyboard-response","509","574106","0.0-1.0-687.0","0","0","66197","","null","","","null","76","NaN","","","","","","","","","","","","","","",""
"","S2","","html-keyboard-response","510","574369","0.0-1.0-688.0","0","0","66197","","null","","","null","76","","NaN","","","","","","","","","","","","","",""
"","response","","html-keyboard-response","511","574999","0.0-1.0-689.0-0.0","0","0","66197","","627","","","68","76","","","2","76","training","adjacent","GF","7","6","N.jpg","Q.jpg","0","0","1","",""
"","feedback","","html-keyboard-response","512","576014","0.0-1.0-690.0-0.0","0","0","66197","","null","","","null","76","","","","","","","","","","","","","","","",""
"","ITI","","html-keyboard-response","513","577030","0.0-1.0-693.0","0","0","66197","","null","","","null","76","","","","","","","","","","","","","","","NaN",""
"","S1","","html-keyboard-response","514","577294","0.0-1.0-695.0","0","0","66197","","null","","","null","77","","","","","","","","","","","","","","","",""
"","ISI","","html-keyboard-response","515","578308","0.0-1.0-696.0","0","0","66197","","null","","","null","77","NaN","","","","","","","","","","","","","","",""
"","S2","","html-keyboard-response","516","578569","0.0-1.0-697.0","0","0","66197","","null","","","null","77","","NaN","","","","","","","","","","","","","",""
"","response","","html-keyboard-response","517","579331","0.0-1.0-698.0-0.0","0","0","66197","","757","","","75","77","","","2","77","training","adjacent","ED","5","4","L.jpg","O.jpg","1","0","0","",""
"","feedback","","html-keyboard-response","518","580342","0.0-1.0-699.0-0.0","0","0","66197","","null","","","null","77","","","","","","","","","","","","","","","",""
"","time_out","","html-keyboard-response","519","582353","0.0-1.0-701.0-0.0","0","0","66197","","null","","","null","77","","","","","","","","","","","","","","","",""
"","ITI","","html-keyboard-response","520","583361","0.0-1.0-702.0","0","0","66197","","null","","","null","77","","","","","","","","","","","","","","","NaN",""
"","S1","","html-keyboard-response","521","583624","0.0-1.0-704.0","0","0","66197","","null","","","null","78","","","","","","","","","","","","","","","",""
"","ISI","","html-keyboard-response","522","584644","0.0-1.0-705.0","0","0","66197","","null","","","null","78","NaN","","","","","","","","","","","","","","",""
"","S2","","html-keyboard-response","523","584907","0.0-1.0-706.0","0","0","66197","","null","","","null","78","","NaN","","","","","","","","","","","","","",""
"","response","","html-keyboard-response","524","585504","0.0-1.0-707.0-0.0","0","0","66197","","591","","","75","78","","","2","78","training","adjacent","BC","2","3","P.jpg","R.jpg","1","1","1","",""
"","feedback","","html-keyboard-response","525","586510","0.0-1.0-708.0-0.0","0","0","66197","","null","","","null","78","","","","","","","","","","","","","","","",""
"","ITI","","html-keyboard-response","526","587526","0.0-1.0-711.0","0","0","66197","","null","","","null","78","","","","","","","","","","","","","","","NaN",""
"","S1","","html-keyboard-response","527","587790","0.0-1.0-713.0","0","0","66197","","null","","","null","79","","","","","","","","","","","","","","","",""
"","ISI","","html-keyboard-response","528","588801","0.0-1.0-714.0","0","0","66197","","null","","","null","79","NaN","","","","","","","","","","","","","","",""
"","S2","","html-keyboard-response","529","589066","0.0-1.0-715.0","0","0","66197","","null","","","null","79","","NaN","","","","","","","","","","","","","",""
"","response","","html-keyboard-response","530","589576","0.0-1.0-716.0-0.0","0","0","66197","","505","","","68","79","","","2","79","training","adjacent","EF","5","6","L.jpg","Q.jpg","0","1","0","",""
"","feedback","","html-keyboard-response","531","590595","0.0-1.0-717.0-0.0","0","0","66197","","null","","","null","79","","","","","","","","","","","","","","","",""
"","time_out","","html-keyboard-response","532","592598","0.0-1.0-719.0-0.0","0","0","66197","","null","","","null","79","","","","","","","","","","","","","","","",""
"","ITI","","html-keyboard-response","533","593616","0.0-1.0-720.0","0","0","66197","","null","","","null","79","","","","","","","","","","","","","","","NaN",""
"","S1","","html-keyboard-response","534","593880","0.0-1.0-722.0","0","0","66197","","null","","","null","80","","","","","","","","","","","","","","","",""
"","ISI","","html-keyboard-response","535","594884","0.0-1.0-723.0","0","0","66197","","null","","","null","80","NaN","","","","","","","","","","","","","","",""
"","S2","","html-keyboard-response","536","595149","0.0-1.0-724.0","0","0","66197","","null","","","null","80","","NaN","","","","","","","","","","","","","",""
"","response","","html-keyboard-response","537","595701","0.0-1.0-725.0-0.0","0","0","66197","","548","","","68","80","","","2","80","training","adjacent","FG","6","7","Q.jpg","N.jpg","0","1","0","",""
"","feedback","","html-keyboard-response","538","596718","0.0-1.0-726.0-0.0","0","0","66197","","null","","","null","80","","","","","","","","","","","","","","","",""
"","time_out","","html-keyboard-response","539","598738","0.0-1.0-728.0-0.0","0","0","66197","","null","","","null","80","","","","","","","","","","","","","","","",""
"","ITI","","html-keyboard-response","540","599743","0.0-1.0-729.0","0","0","66197","","null","","","null","80","","","","","","","","","","","","","","","NaN",""
"","S1","","html-keyboard-response","541","600005","0.0-1.0-731.0","0","0","66197","","null","","","null","81","","","","","","","","","","","","","","","",""
"","ISI","","html-keyboard-response","542","601015","0.0-1.0-732.0","0","0","66197","","null","","","null","81","NaN","","","","","","","","","","","","","","",""
"","S2","","html-keyboard-response","543","601279","0.0-1.0-733.0","0","0","66197","","null","","","null","81","","NaN","","","","","","","","","","","","","",""
"","response","","html-keyboard-response","544","601756","0.0-1.0-734.0-0.0","0","0","66197","","472","","","75","81","","","2","81","training","adjacent","BC","2","3","P.jpg","R.jpg","1","1","1","",""
"","feedback","","html-keyboard-response","545","602776","0.0-1.0-735.0-0.0","0","0","66197","","null","","","null","81","","","","","","","","","","","","","","","",""
"","ITI","","html-keyboard-response","546","603785","0.0-1.0-738.0","0","0","66197","","null","","","null","81","","","","","","","","","","","","","","","NaN",""
"","S1","","html-keyboard-response","547","604049","0.0-1.0-740.0","0","0","66197","","null","","","null","82","","","","","","","","","","","","","","","",""
"","ISI","","html-keyboard-response","548","605055","0.0-1.0-741.0","0","0","66197","","null","","","null","82","NaN","","","","","","","","","","","","","","",""
"","S2","","html-keyboard-response","549","605319","0.0-1.0-742.0","0","0","66197","","null","","","null","82","","NaN","","","","","","","","","","","","","",""
"","response","","html-keyboard-response","550","605936","0.0-1.0-743.0-0.0","0","0","66197","","612","","","75","82","","","2","82","training","adjacent","ED","5","4","L.jpg","O.jpg","1","0","0","",""
"","feedback","","html-keyboard-response","551","606954","0.0-1.0-744.0-0.0","0","0","66197","","null","","","null","82","","","","","","","","","","","","","","","",""
"","time_out","","html-keyboard-response","552","608966","0.0-1.0-746.0-0.0","0","0","66197","","null","","","null","82","","","","","","","","","","","","","","","",""
"","ITI","","html-keyboard-response","553","609984","0.0-1.0-747.0","0","0","66197","","null","","","null","82","","","","","","","","","","","","","","","NaN",""
"","S1","","html-keyboard-response","554","610245","0.0-1.0-749.0","0","0","66197","","null","","","null","83","","","","","","","","","","","","","","","",""
"","ISI","","html-keyboard-response","555","611254","0.0-1.0-750.0","0","0","66197","","null","","","null","83","NaN","","","","","","","","","","","","","","",""
"","S2","","html-keyboard-response","556","611514","0.0-1.0-751.0","0","0","66197","","null","","","null","83","","NaN","","","","","","","","","","","","","",""
"","response","","html-keyboard-response","557","611944","0.0-1.0-752.0-0.0","0","0","66197","","427","","","68","83","","","2","83","training","adjacent","FE","6","5","Q.jpg","L.jpg","0","0","1","",""
"","feedback","","html-keyboard-response","558","612957","0.0-1.0-753.0-0.0","0","0","66197","","null","","","null","83","","","","","","","","","","","","","","","",""
"","ITI","","html-keyboard-response","559","613967","0.0-1.0-756.0","0","0","66197","","null","","","null","83","","","","","","","","","","","","","","","NaN",""
"","S1","","html-keyboard-response","560","614233","0.0-1.0-758.0","0","0","66197","","null","","","null","84","","","","","","","","","","","","","","","",""
"","ISI","","html-keyboard-response","561","615245","0.0-1.0-759.0","0","0","66197","","null","","","null","84","NaN","","","","","","","","","","","","","","",""
"","S2","","html-keyboard-response","562","615510","0.0-1.0-760.0","0","0","66197","","null","","","null","84","","NaN","","","","","","","","","","","","","",""
"","response","","html-keyboard-response","563","616003","0.0-1.0-761.0-0.0","0","0","66197","","490","","","75","84","","","2","84","training","adjacent","BA","2","1","P.jpg","M.jpg","1","0","0","",""
"","feedback","","html-keyboard-response","564","617028","0.0-1.0-762.0-0.0","0","0","66197","","null","","","null","84","","","","","","","","","","","","","","","",""
"","time_out","","html-keyboard-response","565","619033","0.0-1.0-764.0-0.0","0","0","66197","","null","","","null","84","","","","","","","","","","","","","","","",""
"","ITI","","html-keyboard-response","566","620042","0.0-1.0-765.0","0","0","66197","","null","","","null","84","","","","","","","","","","","","","","","NaN",""
"","S1","","html-keyboard-response","567","620308","0.0-1.0-767.0","0","0","66197","","null","","","null","85","","","","","","","","","","","","","","","",""
"","ISI","","html-keyboard-response","568","621320","0.0-1.0-768.0","0","0","66197","","null","","","null","85","NaN","","","","","","","","","","","","","","",""
"","S2","","html-keyboard-response","569","621583","0.0-1.0-769.0","0","0","66197","","null","","","null","85","","NaN","","","","","","","","","","","","","",""
"","response","","html-keyboard-response","570","622141","0.0-1.0-770.0-0.0","0","0","66197","","554","","","68","85","","","2","85","training","adjacent","DC","4","3","O.jpg","R.jpg","0","0","1","",""
"","feedback","","html-keyboard-response","571","623154","0.0-1.0-771.0-0.0","0","0","66197","","null","","","null","85","","","","","","","","","","","","","","","",""
"","ITI","","html-keyboard-response","572","624161","0.0-1.0-774.0","0","0","66197","","null","","","null","85","","","","","","","","","","","","","","","NaN",""
"","S1","","html-keyboard-response","573","624424","0.0-1.0-776.0","0","0","66197","","null","","","null","86","","","","","","","","","","","","","","","",""
"","ISI","","html-keyboard-response","574","625429","0.0-1.0-777.0","0","0","66197","","null","","","null","86","NaN","","","","","","","","","","","","","","",""
"","S2","","html-keyboard-response","575","625693","0.0-1.0-778.0","0","0","66197","","null","","","null","86","","NaN","","","","","","","","","","","","","",""
"","response","","html-keyboard-response","576","626222","0.0-1.0-779.0-0.0","0","0","66197","","520","","","68","86","","","2","86","training","adjacent","EF","5","6","L.jpg","Q.jpg","0","1","0","",""
"","feedback","","html-keyboard-response","577","627231","0.0-1.0-780.0-0.0","0","0","66197","","null","","","null","86","","","","","","","","","","","","","","","",""
"","time_out","","html-keyboard-response","578","629237","0.0-1.0-782.0-0.0","0","0","66197","","null","","","null","86","","","","","","","","","","","","","","","",""
"","ITI","","html-keyboard-response","579","630251","0.0-1.0-783.0","0","0","66197","","null","","","null","86","","","","","","","","","","","","","","","NaN",""
"","S1","","html-keyboard-response","580","630519","0.0-1.0-785.0","0","0","66197","","null","","","null","87","","","","","","","","","","","","","","","",""
