"success","ttype","start_time","trial_type","trial_index","time_elapsed","internal_node_id","warning","missed_checkup","PID","view_history","rt","responses","repeat_instructions","key_press","index","keypress_isi","keypress_S2","block","trial_num","phase","group_type","pair_type","S1_stim","S2_stim","S1_img","S2_img","S1_chosen","S1_higher","accuracy","keypress_iti","total_bonus_tally"
"true","full_screen","d04152023hr0333","fullscreen","0","17640","0.0-0.0","0","0","62724","","","","","","","","","","","","","","","","","","","","","",""
"","instructions","","instructions","1","74070","0.0-1.0-0.0-0.0","0","0","62724","[{""page_index"":0,""viewing_time"":7355},{""page_index"":1,""viewing_time"":29956},{""page_index"":2,""viewing_time"":16080},{""page_index"":3,""viewing_time"":3034}]","56425","","","","","","","","","","","","","","","","","","","",""
"","comprehension_check","","survey-multi-choice","2","108970","0.0-1.0-0.0-1.0","0","0","62724","","34896","{""Q0"":""True"",""Q1"":""D"",""Q2"":""Only while the second image is shown"",""Q3"":""Green mark"",""Q4"":""either D or K""}","1","","","","","","","","","","","","","","","","","",""
"","missed_instruction_checkup","","html-keyboard-response","3","111434","0.0-1.0-0.0-2.0-0.0","0","1","62724","","2462","","","32","","","","","","","","","","","","","","","","",""
"","instructions","","instructions","4","120469","0.0-1.0-0.1-0.1","0","0","62724","[{""page_index"":0,""viewing_time"":1630},{""page_index"":1,""viewing_time"":1417},{""page_index"":2,""viewing_time"":1876},{""page_index"":1,""viewing_time"":2525},{""page_index"":2,""viewing_time"":444},{""page_index"":3,""viewing_time"":1141}]","9033","","","","","","","","","","","","","","","","","","","",""
"","comprehension_check","","survey-multi-choice","5","136204","0.0-1.0-0.1-1.1","0","0","62724","","15732","{""Q0"":""True"",""Q1"":""D"",""Q2"":""Once the second image appears and while the screen 'MAKE A CHOICE' is shown"",""Q3"":""Green mark"",""Q4"":""either D or K""}","0","","","","","","","","","","","","","","","","","",""
"","start_exp","","html-keyboard-response","6","137961","0.0-1.0-1.0","0","0","62724","","1753","","","32","","","","","","","","","","","","","","","","",""
"","S1","","html-keyboard-response","7","138228","0.0-1.0-2.0","0","0","62724","","null","","","null","0","","","","","","","","","","","","","","","",""
"","ISI","","html-keyboard-response","8","139232","0.0-1.0-3.0","0","0","62724","","null","","","null","0","NaN","","","","","","","","","","","","","","",""
"","S2","","html-keyboard-response","9","139499","0.0-1.0-4.0","0","0","62724","","null","","","null","0","","NaN","","","","","","","","","","","","","",""
"","response","","html-keyboard-response","10","140858","0.0-1.0-5.0-0.0","0","0","62724","","1357","","","68","0","","","1","0","training","adjacent","EF","5","6","L.jpg","N.jpg","1","1","1","",""
"","feedback","","html-keyboard-response","11","141862","0.0-1.0-6.0-0.0","0","0","62724","","null","","","null","0","","","","","","","","","","","","","","","",""
"","ITI","","html-keyboard-response","12","142874","0.0-1.0-9.0","0","0","62724","","null","","","null","0","","","","","","","","","","","","","","","NaN",""
"","S1","","html-keyboard-response","13","143142","0.0-1.0-11.0","0","0","62724","","null","","","null","1","","","","","","","","","","","","","","","",""
"","ISI","","html-keyboard-response","14","144156","0.0-1.0-12.0","0","0","62724","","null","","","null","1","NaN","","","","","","","","","","","","","","",""
"","S2","","html-keyboard-response","15","144414","0.0-1.0-13.0","0","0","62724","","null","","","null","1","","NaN","","","","","","","","","","","","","",""
"","response","","html-keyboard-response","16","144864","0.0-1.0-14.0-0.0","0","0","62724","","448","","","75","1","","","1","1","training","adjacent","DE","4","5","O.jpg","L.jpg","0","1","0","",""
"","feedback","","html-keyboard-response","17","145877","0.0-1.0-15.0-0.0","0","0","62724","","null","","","null","1","","","","","","","","","","","","","","","",""
"","time_out","","html-keyboard-response","18","147885","0.0-1.0-17.0-0.0","0","0","62724","","null","","","null","1","","","","","","","","","","","","","","","",""
"","ITI","","html-keyboard-response","19","148901","0.0-1.0-18.0","0","0","62724","","null","","","null","1","","","","","","","","","","","","","","","NaN",""
"","S1","","html-keyboard-response","20","149166","0.0-1.0-20.0","0","0","62724","","null","","","null","2","","","","","","","","","","","","","","","",""
"","ISI","","html-keyboard-response","21","150183","0.0-1.0-21.0","0","0","62724","","null","","","null","2","NaN","","","","","","","","","","","","","","",""
"","S2","","html-keyboard-response","22","150443","0.0-1.0-22.0","0","0","62724","","null","","","null","2","","NaN","","","","","","","","","","","","","",""
"","response","","html-keyboard-response","23","151163","0.0-1.0-23.0-0.0","0","0","62724","","720","","","75","2","","","1","2","training","adjacent","GF","7","6","P.jpg","N.jpg","0","0","1","",""
"","feedback","","html-keyboard-response","24","152172","0.0-1.0-24.0-0.0","0","0","62724","","null","","","null","2","","","","","","","","","","","","","","","",""
"","ITI","","html-keyboard-response","25","153176","0.0-1.0-27.0","0","0","62724","","null","","","null","2","","","","","","","","","","","","","","","NaN",""
"","S1","","html-keyboard-response","26","153439","0.0-1.0-29.0","0","0","62724","","null","","","null","3","","","","","","","","","","","","","","","",""
"","ISI","","html-keyboard-response","27","154443","0.0-1.0-30.0","0","0","62724","","null","","","null","3","NaN","","","","","","","","","","","","","","",""
"","S2","","html-keyboard-response","28","154711","0.0-1.0-31.0","0","0","62724","","null","","","null","3","","NaN","","","","","","","","","","","","","",""
"","response","","html-keyboard-response","29","155394","0.0-1.0-32.0-0.0","0","0","62724","","681","","","75","3","","","1","3","training","adjacent","DE","4","5","O.jpg","L.jpg","0","1","0","",""
"","feedback","","html-keyboard-response","30","156403","0.0-1.0-33.0-0.0","0","0","62724","","null","","","null","3","","","","","","","","","","","","","","","",""
"","time_out","","html-keyboard-response","31","158416","0.0-1.0-35.0-0.0","0","0","62724","","null","","","null","3","","","","","","","","","","","","","","","",""
"","ITI","","html-keyboard-response","32","159431","0.0-1.0-36.0","0","0","62724","","null","","","null","3","","","","","","","","","","","","","","","NaN",""
"","S1","","html-keyboard-response","33","159698","0.0-1.0-38.0","0","0","62724","","null","","","null","4","","","","","","","","","","","","","","","",""
"","ISI","","html-keyboard-response","34","160711","0.0-1.0-39.0","0","0","62724","","null","","","null","4","NaN","","","","","","","","","","","","","","",""
"","S2","","html-keyboard-response","35","160971","0.0-1.0-40.0","0","0","62724","","null","","","null","4","","NaN","","","","","","","","","","","","","",""
"","response","","html-keyboard-response","36","161513","0.0-1.0-41.0-0.0","0","0","62724","","541","","","75","4","","","1","4","training","adjacent","AB","1","2","M.jpg","Q.jpg","0","1","0","",""
"","feedback","","html-keyboard-response","37","162531","0.0-1.0-42.0-0.0","0","0","62724","","null","","","null","4","","","","","","","","","","","","","","","",""
"","time_out","","html-keyboard-response","38","164547","0.0-1.0-44.0-0.0","0","0","62724","","null","","","null","4","","","","","","","","","","","","","","","",""
"","ITI","","html-keyboard-response","39","165549","0.0-1.0-45.0","0","0","62724","","null","","","null","4","","","","","","","","","","","","","","","NaN",""
"","S1","","html-keyboard-response","40","165803","0.0-1.0-47.0","0","0","62724","","null","","","null","5","","","","","","","","","","","","","","","",""
"","ISI","","html-keyboard-response","41","166814","0.0-1.0-48.0","0","0","62724","","null","","","null","5","NaN","","","","","","","","","","","","","","",""
"","S2","","html-keyboard-response","42","167073","0.0-1.0-49.0","0","0","62724","","null","","","null","5","","NaN","","","","","","","","","","","","","",""
"","response","","html-keyboard-response","43","167635","0.0-1.0-50.0-0.0","0","0","62724","","561","","","68","5","","","1","5","training","adjacent","FG","6","7","N.jpg","P.jpg","1","1","1","",""
"","feedback","","html-keyboard-response","44","168645","0.0-1.0-51.0-0.0","0","0","62724","","null","","","null","5","","","","","","","","","","","","","","","",""
"","ITI","","html-keyboard-response","45","169662","0.0-1.0-54.0","0","0","62724","","null","","","null","5","","","","","","","","","","","","","","","NaN",""
"","S1","","html-keyboard-response","46","169925","0.0-1.0-56.0","0","0","62724","","null","","","null","6","","","","","","","","","","","","","","","",""
"","ISI","","html-keyboard-response","47","170941","0.0-1.0-57.0","0","0","62724","","null","","","null","6","NaN","","","","","","","","","","","","","","",""
"","S2","","html-keyboard-response","48","171203","0.0-1.0-58.0","0","0","62724","","null","","","null","6","","NaN","","","","","","","","","","","","","",""
"","response","","html-keyboard-response","49","171594","0.0-1.0-59.0-0.0","0","0","62724","","389","","","68","6","","","1","6","training","adjacent","FG","6","7","N.jpg","P.jpg","1","1","1","",""
"","feedback","","html-keyboard-response","50","172601","0.0-1.0-60.0-0.0","0","0","62724","","null","","","null","6","","","","","","","","","","","","","","","",""
"","ITI","","html-keyboard-response","51","173615","0.0-1.0-63.0","0","0","62724","","null","","","null","6","","","","","","","","","","","","","","","NaN",""
"","S1","","html-keyboard-response","52","173875","0.0-1.0-65.0","0","0","62724","","null","","","null","7","","","","","","","","","","","","","","","",""
"","ISI","","html-keyboard-response","53","174881","0.0-1.0-66.0","0","0","62724","","null","","","null","7","NaN","","","","","","","","","","","","","","",""
"","S2","","html-keyboard-response","54","175148","0.0-1.0-67.0","0","0","62724","","null","","","null","7","","NaN","","","","","","","","","","","","","",""
"","response","","html-keyboard-response","55","175645","0.0-1.0-68.0-0.0","0","0","62724","","496","","","75","7","","","1","7","training","adjacent","CB","3","2","R.jpg","Q.jpg","0","0","1","",""
"","feedback","","html-keyboard-response","56","176658","0.0-1.0-69.0-0.0","0","0","62724","","null","","","null","7","","","","","","","","","","","","","","","",""
"","ITI","","html-keyboard-response","57","177669","0.0-1.0-72.0","0","0","62724","","null","","","null","7","","","","","","","","","","","","","","","NaN",""
"","S1","","html-keyboard-response","58","177930","0.0-1.0-74.0","0","0","62724","","null","","","null","8","","","","","","","","","","","","","","","",""
"","ISI","","html-keyboard-response","59","178947","0.0-1.0-75.0","0","0","62724","","null","","","null","8","NaN","","","","","","","","","","","","","","",""
"","S2","","html-keyboard-response","60","179213","0.0-1.0-76.0","0","0","62724","","null","","","null","8","","NaN","","","","","","","","","","","","","",""
"","response","","html-keyboard-response","61","179378","0.0-1.0-77.0-0.0","0","0","62724","","164","","","75","8","","","1","8","training","adjacent","ED","5","4","L.jpg","O.jpg","0","0","1","",""
"","feedback","","html-keyboard-response","62","180381","0.0-1.0-78.0-0.0","0","0","62724","","null","","","null","8","","","","","","","","","","","","","","","",""
"","ITI","","html-keyboard-response","63","181397","0.0-1.0-81.0","0","0","62724","","null","","","null","8","","","","","","","","","","","","","","","NaN",""
"","S1","","html-keyboard-response","64","181664","0.0-1.0-83.0","0","0","62724","","null","","","null","9","","","","","","","","","","","","","","","",""
"","ISI","","html-keyboard-response","65","182678","0.0-1.0-84.0","0","0","62724","","null","","","null","9","NaN","","","","","","","","","","","","","","",""
"","S2","","html-keyboard-response","66","182947","0.0-1.0-85.0","0","0","62724","","null","","","null","9","","NaN","","","","","","","","","","","","","",""
"","response","","html-keyboard-response","67","183497","0.0-1.0-86.0-0.0","0","0","62724","","549","","","68","9","","","1","9","training","adjacent","BA","2","1","Q.jpg","M.jpg","1","0","0","",""
"","feedback","","html-keyboard-response","68","184513","0.0-1.0-87.0-0.0","0","0","62724","","null","","","null","9","","","","","","","","","","","","","","","",""
"","time_out","","html-keyboard-response","69","186524","0.0-1.0-89.0-0.0","0","0","62724","","null","","","null","9","","","","","","","","","","","","","","","",""
"","ITI","","html-keyboard-response","70","187537","0.0-1.0-90.0","0","0","62724","","null","","","null","9","","","","","","","","","","","","","","","NaN",""
"","S1","","html-keyboard-response","71","187801","0.0-1.0-92.0","0","0","62724","","null","","","null","10","","","","","","","","","","","","","","","",""
"","ISI","","html-keyboard-response","72","188818","0.0-1.0-93.0","0","0","62724","","null","","","null","10","NaN","","","","","","","","","","","","","","",""
"","S2","","html-keyboard-response","73","189081","0.0-1.0-94.0","0","0","62724","","null","","","null","10","","NaN","","","","","","","","","","","","","",""
"","response","","html-keyboard-response","74","189707","0.0-1.0-95.0-0.0","0","0","62724","","624","","","68","10","","","1","10","training","adjacent","BC","2","3","Q.jpg","R.jpg","1","1","1","",""
"","feedback","","html-keyboard-response","75","190723","0.0-1.0-96.0-0.0","0","0","62724","","null","","","null","10","","","","","","","","","","","","","","","",""
"","ITI","","html-keyboard-response","76","191737","0.0-1.0-99.0","0","0","62724","","null","","","null","10","","","","","","","","","","","","","","","NaN",""
"","S1","","html-keyboard-response","77","191995","0.0-1.0-101.0","0","0","62724","","null","","","null","11","","","","","","","","","","","","","","","",""
"","ISI","","html-keyboard-response","78","193008","0.0-1.0-102.0","0","0","62724","","null","","","null","11","NaN","","","","","","","","","","","","","","",""
"","S2","","html-keyboard-response","79","193272","0.0-1.0-103.0","0","0","62724","","null","","","null","11","","NaN","","","","","","","","","","","","","",""
"","response","","html-keyboard-response","80","193821","0.0-1.0-104.0-0.0","0","0","62724","","548","","","75","11","","","1","11","training","adjacent","FG","6","7","N.jpg","P.jpg","0","1","0","",""
"","feedback","","html-keyboard-response","81","194836","0.0-1.0-105.0-0.0","0","0","62724","","null","","","null","11","","","","","","","","","","","","","","","",""
"","time_out","","html-keyboard-response","82","196838","0.0-1.0-107.0-0.0","0","0","62724","","null","","","null","11","","","","","","","","","","","","","","","",""
"","ITI","","html-keyboard-response","83","197843","0.0-1.0-108.0","0","0","62724","","null","","","null","11","","","","","","","","","","","","","","","NaN",""
"","S1","","html-keyboard-response","84","198095","0.0-1.0-110.0","0","0","62724","","null","","","null","12","","","","","","","","","","","","","","","",""
"","ISI","","html-keyboard-response","85","199110","0.0-1.0-111.0","0","0","62724","","null","","","null","12","NaN","","","","","","","","","","","","","","",""
"","S2","","html-keyboard-response","86","199374","0.0-1.0-112.0","0","0","62724","","null","","","null","12","","NaN","","","","","","","","","","","","","",""
"","response","","html-keyboard-response","87","199517","0.0-1.0-113.0-0.0","0","0","62724","","142","","","75","12","","","1","12","training","adjacent","ED","5","4","L.jpg","O.jpg","0","0","1","",""
"","feedback","","html-keyboard-response","88","200521","0.0-1.0-114.0-0.0","0","0","62724","","null","","","null","12","","","","","","","","","","","","","","","",""
"","ITI","","html-keyboard-response","89","201534","0.0-1.0-117.0","0","0","62724","","null","","","null","12","","","","","","","","","","","","","","","NaN",""
"","S1","","html-keyboard-response","90","201794","0.0-1.0-119.0","0","0","62724","","null","","","null","13","","","","","","","","","","","","","","","",""
"","ISI","","html-keyboard-response","91","202799","0.0-1.0-120.0","0","0","62724","","null","","","null","13","NaN","","","","","","","","","","","","","","",""
"","S2","","html-keyboard-response","92","203065","0.0-1.0-121.0","0","0","62724","","null","","","null","13","","NaN","","","","","","","","","","","","","",""
"","response","","html-keyboard-response","93","203500","0.0-1.0-122.0-0.0","0","0","62724","","433","","","68","13","","","1","13","training","adjacent","BC","2","3","Q.jpg","R.jpg","1","1","1","",""
"","feedback","","html-keyboard-response","94","204511","0.0-1.0-123.0-0.0","0","0","62724","","null","","","null","13","","","","","","","","","","","","","","","",""
"","ITI","","html-keyboard-response","95","205524","0.0-1.0-126.0","0","0","62724","","null","","","null","13","","","","","","","","","","","","","","","NaN",""
"","S1","","html-keyboard-response","96","205787","0.0-1.0-128.0","0","0","62724","","null","","","null","14","","","","","","","","","","","","","","","",""
"","ISI","","html-keyboard-response","97","206804","0.0-1.0-129.0","0","0","62724","","null","","","null","14","NaN","","","","","","","","","","","","","","",""
"","S2","","html-keyboard-response","98","207066","0.0-1.0-130.0","0","0","62724","","null","","","null","14","","NaN","","","","","","","","","","","","","",""
"","response","","html-keyboard-response","99","207504","0.0-1.0-131.0-0.0","0","0","62724","","436","","","75","14","","","1","14","training","adjacent","CD","3","4","R.jpg","O.jpg","0","1","0","",""
"","feedback","","html-keyboard-response","100","208509","0.0-1.0-132.0-0.0","0","0","62724","","null","","","null","14","","","","","","","","","","","","","","","",""
"","time_out","","html-keyboard-response","101","210512","0.0-1.0-134.0-0.0","0","0","62724","","null","","","null","14","","","","","","","","","","","","","","","",""
"","ITI","","html-keyboard-response","102","211515","0.0-1.0-135.0","0","0","62724","","null","","","null","14","","","","","","","","","","","","","","","NaN",""
"","S1","","html-keyboard-response","103","211789","0.0-1.0-137.0","0","0","62724","","null","","","null","15","","","","","","","","","","","","","","","",""
"","ISI","","html-keyboard-response","104","212808","0.0-1.0-138.0","0","0","62724","","null","","","null","15","NaN","","","","","","","","","","","","","","",""
"","S2","","html-keyboard-response","105","213073","0.0-1.0-139.0","0","0","62724","","null","","","null","15","","NaN","","","","","","","","","","","","","",""
"","response","","html-keyboard-response","106","213174","0.0-1.0-140.0-0.0","0","0","62724","","98","","","75","15","","","1","15","training","adjacent","EF","5","6","L.jpg","N.jpg","0","1","0","",""
"","feedback","","html-keyboard-response","107","214186","0.0-1.0-141.0-0.0","0","0","62724","","null","","","null","15","","","","","","","","","","","","","","","",""
"","time_out","","html-keyboard-response","108","216192","0.0-1.0-143.0-0.0","0","0","62724","","null","","","null","15","","","","","","","","","","","","","","","",""
"","ITI","","html-keyboard-response","109","217205","0.0-1.0-144.0","0","0","62724","","null","","","null","15","","","","","","","","","","","","","","","NaN",""
"","S1","","html-keyboard-response","110","217466","0.0-1.0-146.0","0","0","62724","","null","","","null","16","","","","","","","","","","","","","","","",""
"","ISI","","html-keyboard-response","111","218477","0.0-1.0-147.0","0","0","62724","","null","","","null","16","NaN","","","","","","","","","","","","","","",""
"","S2","","html-keyboard-response","112","218731","0.0-1.0-148.0","0","0","62724","","null","","","null","16","","NaN","","","","","","","","","","","","","",""
"","response","","html-keyboard-response","113","219543","0.0-1.0-149.0-0.0","0","0","62724","","810","","","68","16","","","1","16","training","adjacent","FE","6","5","N.jpg","L.jpg","1","0","0","",""
"","feedback","","html-keyboard-response","114","220551","0.0-1.0-150.0-0.0","0","0","62724","","null","","","null","16","","","","","","","","","","","","","","","",""
"","time_out","","html-keyboard-response","115","222567","0.0-1.0-152.0-0.0","0","0","62724","","null","","","null","16","","","","","","","","","","","","","","","",""
"","ITI","","html-keyboard-response","116","223581","0.0-1.0-153.0","0","0","62724","","null","","","null","16","","","","","","","","","","","","","","","NaN",""
"","S1","","html-keyboard-response","117","223846","0.0-1.0-155.0","0","0","62724","","null","","","null","17","","","","","","","","","","","","","","","",""
"","ISI","","html-keyboard-response","118","224847","0.0-1.0-156.0","0","0","62724","","null","","","null","17","NaN","","","","","","","","","","","","","","",""
"","S2","","html-keyboard-response","119","225101","0.0-1.0-157.0","0","0","62724","","null","","","null","17","","NaN","","","","","","","","","","","","","",""
"","response","","html-keyboard-response","120","225572","0.0-1.0-158.0-0.0","0","0","62724","","469","","","75","17","","","1","17","training","adjacent","AB","1","2","M.jpg","Q.jpg","0","1","0","",""
"","feedback","","html-keyboard-response","121","226582","0.0-1.0-159.0-0.0","0","0","62724","","null","","","null","17","","","","","","","","","","","","","","","",""
"","time_out","","html-keyboard-response","122","228598","0.0-1.0-161.0-0.0","0","0","62724","","null","","","null","17","","","","","","","","","","","","","","","",""
"","ITI","","html-keyboard-response","123","229613","0.0-1.0-162.0","0","0","62724","","null","","","null","17","","","","","","","","","","","","","","","NaN",""
"","S1","","html-keyboard-response","124","229876","0.0-1.0-164.0","0","0","62724","","null","","","null","18","","","","","","","","","","","","","","","",""
"","ISI","","html-keyboard-response","125","230886","0.0-1.0-165.0","0","0","62724","","null","","","null","18","NaN","","","","","","","","","","","","","","",""
"","S2","","html-keyboard-response","126","231142","0.0-1.0-166.0","0","0","62724","","null","","","null","18","","NaN","","","","","","","","","","","","","",""
"","response","","html-keyboard-response","127","231512","0.0-1.0-167.0-0.0","0","0","62724","","369","","","68","18","","","1","18","training","adjacent","FE","6","5","N.jpg","L.jpg","1","0","0","",""
"","feedback","","html-keyboard-response","128","232516","0.0-1.0-168.0-0.0","0","0","62724","","null","","","null","18","","","","","","","","","","","","","","","",""
"","time_out","","html-keyboard-response","129","234535","0.0-1.0-170.0-0.0","0","0","62724","","null","","","null","18","","","","","","","","","","","","","","","",""
"","ITI","","html-keyboard-response","130","235548","0.0-1.0-171.0","0","0","62724","","null","","","null","18","","","","","","","","","","","","","","","NaN",""
"","S1","","html-keyboard-response","131","235805","0.0-1.0-173.0","0","0","62724","","null","","","null","19","","","","","","","","","","","","","","","",""
"","ISI","","html-keyboard-response","132","236813","0.0-1.0-174.0","0","0","62724","","null","","","null","19","NaN","","","","","","","","","","","","","","",""
"","S2","","html-keyboard-response","133","237080","0.0-1.0-175.0","0","0","62724","","null","","","null","19","","NaN","","","","","","","","","","","","","",""
"","response","","html-keyboard-response","134","237588","0.0-1.0-176.0-0.0","0","0","62724","","507","","","75","19","","","1","19","training","adjacent","EF","5","6","L.jpg","N.jpg","0","1","0","",""
"","feedback","","html-keyboard-response","135","238592","0.0-1.0-177.0-0.0","0","0","62724","","null","","","null","19","","","","","","","","","","","","","","","",""
"","time_out","","html-keyboard-response","136","240599","0.0-1.0-179.0-0.0","0","0","62724","","null","","","null","19","","","","","","","","","","","","","","","",""
"","ITI","","html-keyboard-response","137","241604","0.0-1.0-180.0","0","0","62724","","null","","","null","19","","","","","","","","","","","","","","","NaN",""
"","S1","","html-keyboard-response","138","241861","0.0-1.0-182.0","0","0","62724","","null","","","null","20","","","","","","","","","","","","","","","",""
"","ISI","","html-keyboard-response","139","242868","0.0-1.0-183.0","0","0","62724","","null","","","null","20","NaN","","","","","","","","","","","","","","",""
"","S2","","html-keyboard-response","140","243130","0.0-1.0-184.0","0","0","62724","","null","","","null","20","","NaN","","","","","","","","","","","","","",""
"","response","","html-keyboard-response","141","243324","0.0-1.0-185.0-0.0","0","0","62724","","192","","","75","20","","","1","20","training","adjacent","CD","3","4","R.jpg","O.jpg","0","1","0","",""
"","feedback","","html-keyboard-response","142","244341","0.0-1.0-186.0-0.0","0","0","62724","","null","","","null","20","","","","","","","","","","","","","","","",""
"","time_out","","html-keyboard-response","143","246358","0.0-1.0-188.0-0.0","0","0","62724","","null","","","null","20","","","","","","","","","","","","","","","",""
"","ITI","","html-keyboard-response","144","247378","0.0-1.0-189.0","0","0","62724","","null","","","null","20","","","","","","","","","","","","","","","NaN",""
"","S1","","html-keyboard-response","145","247643","0.0-1.0-191.0","0","0","62724","","null","","","null","21","","","","","","","","","","","","","","","",""
"","ISI","","html-keyboard-response","146","248660","0.0-1.0-192.0","0","0","62724","","null","","","null","21","NaN","","","","","","","","","","","","","","",""
"","S2","","html-keyboard-response","147","248920","0.0-1.0-193.0","0","0","62724","","null","","","null","21","","NaN","","","","","","","","","","","","","",""
"","response","","html-keyboard-response","148","249489","0.0-1.0-194.0-0.0","0","0","62724","","568","","","75","21","","","1","21","training","adjacent","DC","4","3","O.jpg","R.jpg","0","0","1","",""
"","feedback","","html-keyboard-response","149","250495","0.0-1.0-195.0-0.0","0","0","62724","","null","","","null","21","","","","","","","","","","","","","","","",""
"","ITI","","html-keyboard-response","150","251498","0.0-1.0-198.0","0","0","62724","","null","","","null","21","","","","","","","","","","","","","","","NaN",""
"","S1","","html-keyboard-response","151","251766","0.0-1.0-200.0","0","0","62724","","null","","","null","22","","","","","","","","","","","","","","","",""
"","ISI","","html-keyboard-response","152","252771","0.0-1.0-201.0","0","0","62724","","null","","","null","22","NaN","","","","","","","","","","","","","","",""
"","S2","","html-keyboard-response","153","253032","0.0-1.0-202.0","0","0","62724","","null","","","null","22","","NaN","","","","","","","","","","","","","",""
"","response","","html-keyboard-response","154","253630","0.0-1.0-203.0-0.0","0","0","62724","","596","","","68","22","","","1","22","training","adjacent","AB","1","2","M.jpg","Q.jpg","1","1","1","",""
"","feedback","","html-keyboard-response","155","254639","0.0-1.0-204.0-0.0","0","0","62724","","null","","","null","22","","","","","","","","","","","","","","","",""
"","ITI","","html-keyboard-response","156","255642","0.0-1.0-207.0","0","0","62724","","null","","","null","22","","","","","","","","","","","","","","","NaN",""
"","S1","","html-keyboard-response","157","255907","0.0-1.0-209.0","0","0","62724","","null","","","null","23","","","","","","","","","","","","","","","",""
"","ISI","","html-keyboard-response","158","256918","0.0-1.0-210.0","0","0","62724","","null","","","null","23","NaN","","","","","","","","","","","","","","",""
"","S2","","html-keyboard-response","159","257179","0.0-1.0-211.0","0","0","62724","","null","","","null","23","","NaN","","","","","","","","","","","","","",""
"","response","","html-keyboard-response","160","257634","0.0-1.0-212.0-0.0","0","0","62724","","452","","","68","23","","","1","23","training","adjacent","AB","1","2","M.jpg","Q.jpg","1","1","1","",""
"","feedback","","html-keyboard-response","161","258643","0.0-1.0-213.0-0.0","0","0","62724","","null","","","null","23","","","","","","","","","","","","","","","",""
"","ITI","","html-keyboard-response","162","259657","0.0-1.0-216.0","0","0","62724","","null","","","null","23","","","","","","","","","","","","","","","NaN",""
"","S1","","html-keyboard-response","163","259922","0.0-1.0-218.0","0","0","62724","","null","","","null","24","","","","","","","","","","","","","","","",""
"","ISI","","html-keyboard-response","164","260926","0.0-1.0-219.0","0","0","62724","","null","","","null","24","NaN","","","","","","","","","","","","","","",""
"","S2","","html-keyboard-response","165","261185","0.0-1.0-220.0","0","0","62724","","null","","","null","24","","NaN","","","","","","","","","","","","","",""
"","response","","html-keyboard-response","166","261302","0.0-1.0-221.0-0.0","0","0","62724","","115","","","75","24","","","1","24","training","adjacent","BC","2","3","Q.jpg","R.jpg","0","1","0","",""
"","feedback","","html-keyboard-response","167","262312","0.0-1.0-222.0-0.0","0","0","62724","","null","","","null","24","","","","","","","","","","","","","","","",""
"","time_out","","html-keyboard-response","168","264330","0.0-1.0-224.0-0.0","0","0","62724","","null","","","null","24","","","","","","","","","","","","","","","",""
"","ITI","","html-keyboard-response","169","265337","0.0-1.0-225.0","0","0","62724","","null","","","null","24","","","","","","","","","","","","","","","NaN",""
"","S1","","html-keyboard-response","170","265603","0.0-1.0-227.0","0","0","62724","","null","","","null","25","","","","","","","","","","","","","","","",""
"","ISI","","html-keyboard-response","171","266606","0.0-1.0-228.0","0","0","62724","","null","","","null","25","NaN","","","","","","","","","","","","","","",""
"","S2","","html-keyboard-response","172","266864","0.0-1.0-229.0","0","0","62724","","null","","","null","25","","NaN","","","","","","","","","","","","","",""
"","response","","html-keyboard-response","173","267491","0.0-1.0-230.0-0.0","0","0","62724","","625","","","68","25","","","1","25","training","adjacent","BA","2","1","Q.jpg","M.jpg","1","0","0","",""
"","feedback","","html-keyboard-response","174","268502","0.0-1.0-231.0-0.0","0","0","62724","","null","","","null","25","","","","","","","","","","","","","","","",""
"","time_out","","html-keyboard-response","175","270510","0.0-1.0-233.0-0.0","0","0","62724","","null","","","null","25","","","","","","","","","","","","","","","",""
"","ITI","","html-keyboard-response","176","271516","0.0-1.0-234.0","0","0","62724","","null","","","null","25","","","","","","","","","","","","","","","NaN",""
"","S1","","html-keyboard-response","177","271779","0.0-1.0-236.0","0","0","62724","","null","","","null","26","","","","","","","","","","","","","","","",""
"","ISI","","html-keyboard-response","178","272789","0.0-1.0-237.0","0","0","62724","","null","","","null","26","NaN","","","","","","","","","","","","","","",""
"","S2","","html-keyboard-response","179","273042","0.0-1.0-238.0","0","0","62724","","null","","","null","26","","NaN","","","","","","","","","","","","","",""
"","response","","html-keyboard-response","180","273678","0.0-1.0-239.0-0.0","0","0","62724","","634","","","68","26","","","1","26","training","adjacent","CD","3","4","R.jpg","O.jpg","1","1","1","",""
"","feedback","","html-keyboard-response","181","274688","0.0-1.0-240.0-0.0","0","0","62724","","null","","","null","26","","","","","","","","","","","","","","","",""
"","ITI","","html-keyboard-response","182","275693","0.0-1.0-243.0","0","0","62724","","null","","","null","26","","","","","","","","","","","","","","","NaN",""
"","S1","","html-keyboard-response","183","275954","0.0-1.0-245.0","0","0","62724","","null","","","null","27","","","","","","","","","","","","","","","",""
"","ISI","","html-keyboard-response","184","276956","0.0-1.0-246.0","0","0","62724","","null","","","null","27","NaN","","","","","","","","","","","","","","",""
"","S2","","html-keyboard-response","185","277221","0.0-1.0-247.0","0","0","62724","","null","","","null","27","","NaN","","","","","","","","","","","","","",""
"","response","","html-keyboard-response","186","277728","0.0-1.0-248.0-0.0","0","0","62724","","506","","","68","27","","","1","27","training","adjacent","FG","6","7","N.jpg","P.jpg","1","1","1","",""
"","feedback","","html-keyboard-response","187","278733","0.0-1.0-249.0-0.0","0","0","62724","","null","","","null","27","","","","","","","","","","","","","","","",""
"","ITI","","html-keyboard-response","188","279741","0.0-1.0-252.0","0","0","62724","","null","","","null","27","","","","","","","","","","","","","","","NaN",""
"","S1","","html-keyboard-response","189","280005","0.0-1.0-254.0","0","0","62724","","null","","","null","28","","","","","","","","","","","","","","","",""
"","ISI","","html-keyboard-response","190","281020","0.0-1.0-255.0","0","0","62724","","null","","","null","28","NaN","","","","","","","","","","","","","","",""
"","S2","","html-keyboard-response","191","281284","0.0-1.0-256.0","0","0","62724","","null","","","null","28","","NaN","","","","","","","","","","","","","",""
"","response","","html-keyboard-response","192","281732","0.0-1.0-257.0-0.0","0","0","62724","","447","","","68","28","","","1","28","training","adjacent","CB","3","2","R.jpg","Q.jpg","1","0","0","",""
"","feedback","","html-keyboard-response","193","282736","0.0-1.0-258.0-0.0","0","0","62724","","null","","","null","28","","","","","","","","","","","","","","","",""
"","time_out","","html-keyboard-response","194","284742","0.0-1.0-260.0-0.0","0","0","62724","","null","","","null","28","","","","","","","","","","","","","","","",""
"","ITI","","html-keyboard-response","195","285751","0.0-1.0-261.0","0","0","62724","","null","","","null","28","","","","","","","","","","","","","","","NaN",""
"","S1","","html-keyboard-response","196","286018","0.0-1.0-263.0","0","0","62724","","null","","","null","29","","","","","","","","","","","","","","","",""
"","ISI","","html-keyboard-response","197","287030","0.0-1.0-264.0","0","0","62724","","null","","","null","29","NaN","","","","","","","","","","","","","","",""
"","S2","","html-keyboard-response","198","287295","0.0-1.0-265.0","0","0","62724","","null","","","null","29","","NaN","","","","","","","","","","","","","",""
"","response","","html-keyboard-response","199","287854","0.0-1.0-266.0-0.0","0","0","62724","","557","","","75","29","","","1","29","training","adjacent","BA","2","1","Q.jpg","M.jpg","0","0","1","",""
"","feedback","","html-keyboard-response","200","288862","0.0-1.0-267.0-0.0","0","0","62724","","null","","","null","29","","","","","","","","","","","","","","","",""
"","ITI","","html-keyboard-response","201","289869","0.0-1.0-270.0","0","0","62724","","null","","","null","29","","","","","","","","","","","","","","","NaN",""
"","S1","","html-keyboard-response","202","290135","0.0-1.0-272.0","0","0","62724","","null","","","null","30","","","","","","","","","","","","","","","",""
"","ISI","","html-keyboard-response","203","291139","0.0-1.0-273.0","0","0","62724","","null","","","null","30","NaN","","","","","","","","","","","","","","",""
"","S2","","html-keyboard-response","204","291395","0.0-1.0-274.0","0","0","62724","","null","","","null","30","","NaN","","","","","","","","","","","","","",""
"","response","","html-keyboard-response","205","291926","0.0-1.0-275.0-0.0","0","0","62724","","529","","","75","30","","","1","30","training","adjacent","GF","7","6","P.jpg","N.jpg","0","0","1","",""
"","feedback","","html-keyboard-response","206","292940","0.0-1.0-276.0-0.0","0","0","62724","","null","","","null","30","","","","","","","","","","","","","","","",""
"","ITI","","html-keyboard-response","207","293958","0.0-1.0-279.0","0","0","62724","","null","","","null","30","","","","","","","","","","","","","","","NaN",""
"","S1","","html-keyboard-response","208","294237","0.0-1.0-281.0","0","0","62724","","null","","","null","31","","","","","","","","","","","","","","","",""
"","ISI","","html-keyboard-response","209","295249","0.0-1.0-282.0","0","0","62724","","null","","","null","31","NaN","","","","","","","","","","","","","","",""
"","S2","","html-keyboard-response","210","295516","0.0-1.0-283.0","0","0","62724","","null","","","null","31","","NaN","","","","","","","","","","","","","",""
"","response","","html-keyboard-response","211","295679","0.0-1.0-284.0-0.0","0","0","62724","","162","","","75","31","","","1","31","training","adjacent","BA","2","1","Q.jpg","M.jpg","0","0","1","",""
"","feedback","","html-keyboard-response","212","296694","0.0-1.0-285.0-0.0","0","0","62724","","null","","","null","31","","","","","","","","","","","","","","","",""
"","ITI","","html-keyboard-response","213","297710","0.0-1.0-288.0","0","0","62724","","null","","","null","31","","","","","","","","","","","","","","","NaN",""
"","S1","","html-keyboard-response","214","297966","0.0-1.0-290.0","0","0","62724","","null","","","null","32","","","","","","","","","","","","","","","",""
"","ISI","","html-keyboard-response","215","298978","0.0-1.0-291.0","0","0","62724","","null","","","null","32","NaN","","","","","","","","","","","","","","",""
"","S2","","html-keyboard-response","216","299244","0.0-1.0-292.0","0","0","62724","","null","","","null","32","","NaN","","","","","","","","","","","","","",""
"","response","","html-keyboard-response","217","299800","0.0-1.0-293.0-0.0","0","0","62724","","554","","","68","32","","","1","32","training","adjacent","ED","5","4","L.jpg","O.jpg","1","0","0","",""
"","feedback","","html-keyboard-response","218","300809","0.0-1.0-294.0-0.0","0","0","62724","","null","","","null","32","","","","","","","","","","","","","","","",""
"","time_out","","html-keyboard-response","219","302821","0.0-1.0-296.0-0.0","0","0","62724","","null","","","null","32","","","","","","","","","","","","","","","",""
"","ITI","","html-keyboard-response","220","303826","0.0-1.0-297.0","0","0","62724","","null","","","null","32","","","","","","","","","","","","","","","NaN",""
"","S1","","html-keyboard-response","221","304081","0.0-1.0-299.0","0","0","62724","","null","","","null","33","","","","","","","","","","","","","","","",""
"","ISI","","html-keyboard-response","222","305097","0.0-1.0-300.0","0","0","62724","","null","","","null","33","NaN","","","","","","","","","","","","","","",""
"","S2","","html-keyboard-response","223","305358","0.0-1.0-301.0","0","0","62724","","null","","","null","33","","NaN","","","","","","","","","","","","","",""
"","response","","html-keyboard-response","224","305873","0.0-1.0-302.0-0.0","0","0","62724","","513","","","75","33","","","1","33","training","adjacent","DC","4","3","O.jpg","R.jpg","0","0","1","",""
"","feedback","","html-keyboard-response","225","306887","0.0-1.0-303.0-0.0","0","0","62724","","null","","","null","33","","","","","","","","","","","","","","","",""
"","ITI","","html-keyboard-response","226","307894","0.0-1.0-306.0","0","0","62724","","null","","","null","33","","","","","","","","","","","","","","","NaN",""
"","S1","","html-keyboard-response","227","308153","0.0-1.0-308.0","0","0","62724","","null","","","null","34","","","","","","","","","","","","","","","",""
"","ISI","","html-keyboard-response","228","309156","0.0-1.0-309.0","0","0","62724","","null","","","null","34","NaN","","","","","","","","","","","","","","",""
"","S2","","html-keyboard-response","229","309422","0.0-1.0-310.0","0","0","62724","","null","","","null","34","","NaN","","","","","","","","","","","","","",""
"","response","","html-keyboard-response","230","310059","0.0-1.0-311.0-0.0","0","0","62724","","635","","","68","34","","","1","34","training","adjacent","CB","3","2","R.jpg","Q.jpg","1","0","0","",""
"","feedback","","html-keyboard-response","231","311074","0.0-1.0-312.0-0.0","0","0","62724","","null","","","null","34","","","","","","","","","","","","","","","",""
"","time_out","","html-keyboard-response","232","313089","0.0-1.0-314.0-0.0","0","0","62724","","null","","","null","34","","","","","","","","","","","","","","","",""
"","ITI","","html-keyboard-response","233","314096","0.0-1.0-315.0","0","0","62724","","null","","","null","34","","","","","","","","","","","","","","","NaN",""
"","S1","","html-keyboard-response","234","314359","0.0-1.0-317.0","0","0","62724","","null","","","null","35","","","","","","","","","","","","","","","",""
"","ISI","","html-keyboard-response","235","315367","0.0-1.0-318.0","0","0","62724","","null","","","null","35","NaN","","","","","","","","","","","","","","",""
"","S2","","html-keyboard-response","236","315623","0.0-1.0-319.0","0","0","62724","","null","","","null","35","","NaN","","","","","","","","","","","","","",""
"","response","","html-keyboard-response","237","316271","0.0-1.0-320.0-0.0","0","0","62724","","646","","","75","35","","","1","35","training","adjacent","DC","4","3","O.jpg","R.jpg","0","0","1","",""
"","feedback","","html-keyboard-response","238","317284","0.0-1.0-321.0-0.0","0","0","62724","","null","","","null","35","","","","","","","","","","","","","","","",""
"","ITI","","html-keyboard-response","239","318292","0.0-1.0-324.0","0","0","62724","","null","","","null","35","","","","","","","","","","","","","","","NaN",""
"","S1","","html-keyboard-response","240","318557","0.0-1.0-326.0","0","0","62724","","null","","","null","36","","","","","","","","","","","","","","","",""
"","ISI","","html-keyboard-response","241","319560","0.0-1.0-327.0","0","0","62724","","null","","","null","36","NaN","","","","","","","","","","","","","","",""
"","S2","","html-keyboard-response","242","319825","0.0-1.0-328.0","0","0","62724","","null","","","null","36","","NaN","","","","","","","","","","","","","",""
"","response","","html-keyboard-response","243","320614","0.0-1.0-329.0-0.0","0","0","62724","","787","","","75","36","","","1","36","training","adjacent","EF","5","6","L.jpg","N.jpg","0","1","0","",""
"","feedback","","html-keyboard-response","244","321631","0.0-1.0-330.0-0.0","0","0","62724","","null","","","null","36","","","","","","","","","","","","","","","",""
"","time_out","","html-keyboard-response","245","323638","0.0-1.0-332.0-0.0","0","0","62724","","null","","","null","36","","","","","","","","","","","","","","","",""
"","ITI","","html-keyboard-response","246","324653","0.0-1.0-333.0","0","0","62724","","null","","","null","36","","","","","","","","","","","","","","","NaN",""
"","S1","","html-keyboard-response","247","324916","0.0-1.0-335.0","0","0","62724","","null","","","null","37","","","","","","","","","","","","","","","",""
"","ISI","","html-keyboard-response","248","325924","0.0-1.0-336.0","0","0","62724","","null","","","null","37","NaN","","","","","","","","","","","","","","",""
"","S2","","html-keyboard-response","249","326191","0.0-1.0-337.0","0","0","62724","","null","","","null","37","","NaN","","","","","","","","","","","","","",""
"","response","","html-keyboard-response","250","326892","0.0-1.0-338.0-0.0","0","0","62724","","700","","","68","37","","","1","37","training","adjacent","CD","3","4","R.jpg","O.jpg","1","1","1","",""
"","feedback","","html-keyboard-response","251","327907","0.0-1.0-339.0-0.0","0","0","62724","","null","","","null","37","","","","","","","","","","","","","","","",""
"","ITI","","html-keyboard-response","252","328923","0.0-1.0-342.0","0","0","62724","","null","","","null","37","","","","","","","","","","","","","","","NaN",""
"","S1","","html-keyboard-response","253","329185","0.0-1.0-344.0","0","0","62724","","null","","","null","38","","","","","","","","","","","","","","","",""
"","ISI","","html-keyboard-response","254","330189","0.0-1.0-345.0","0","0","62724","","null","","","null","38","NaN","","","","","","","","","","","","","","",""
"","S2","","html-keyboard-response","255","330449","0.0-1.0-346.0","0","0","62724","","null","","","null","38","","NaN","","","","","","","","","","","","","",""
"","response","","html-keyboard-response","256","331299","0.0-1.0-347.0-0.0","0","0","62724","","848","","","75","38","","","1","38","training","adjacent","DE","4","5","O.jpg","L.jpg","0","1","0","",""
"","feedback","","html-keyboard-response","257","332309","0.0-1.0-348.0-0.0","0","0","62724","","null","","","null","38","","","","","","","","","","","","","","","",""
"","time_out","","html-keyboard-response","258","334326","0.0-1.0-350.0-0.0","0","0","62724","","null","","","null","38","","","","","","","","","","","","","","","",""
"","ITI","","html-keyboard-response","259","335331","0.0-1.0-351.0","0","0","62724","","null","","","null","38","","","","","","","","","","","","","","","NaN",""
"","S1","","html-keyboard-response","260","335599","0.0-1.0-353.0","0","0","62724","","null","","","null","39","","","","","","","","","","","","","","","",""
"","ISI","","html-keyboard-response","261","336605","0.0-1.0-354.0","0","0","62724","","null","","","null","39","NaN","","","","","","","","","","","","","","",""
"","S2","","html-keyboard-response","262","336867","0.0-1.0-355.0","0","0","62724","","null","","","null","39","","NaN","","","","","","","","","","","","","",""
"","response","","html-keyboard-response","263","337196","0.0-1.0-356.0-0.0","0","0","62724","","328","","","75","39","","","1","39","training","adjacent","GF","7","6","P.jpg","N.jpg","0","0","1","",""
"","feedback","","html-keyboard-response","264","338210","0.0-1.0-357.0-0.0","0","0","62724","","null","","","null","39","","","","","","","","","","","","","","","",""
"","ITI","","html-keyboard-response","265","339217","0.0-1.0-360.0","0","0","62724","","null","","","null","39","","","","","","","","","","","","","","","NaN",""
"","S1","","html-keyboard-response","266","339483","0.0-1.0-362.0","0","0","62724","","null","","","null","40","","","","","","","","","","","","","","","",""
"","ISI","","html-keyboard-response","267","340486","0.0-1.0-363.0","0","0","62724","","null","","","null","40","NaN","","","","","","","","","","","","","","",""
"","S2","","html-keyboard-response","268","340740","0.0-1.0-364.0","0","0","62724","","null","","","null","40","","NaN","","","","","","","","","","","","","",""
"","response","","html-keyboard-response","269","341243","0.0-1.0-365.0-0.0","0","0","62724","","501","","","68","40","","","1","40","training","adjacent","CB","3","2","R.jpg","Q.jpg","1","0","0","",""
"","feedback","","html-keyboard-response","270","342252","0.0-1.0-366.0-0.0","0","0","62724","","null","","","null","40","","","","","","","","","","","","","","","",""
"","time_out","","html-keyboard-response","271","344266","0.0-1.0-368.0-0.0","0","0","62724","","null","","","null","40","","","","","","","","","","","","","","","",""
"","ITI","","html-keyboard-response","272","345283","0.0-1.0-369.0","0","0","62724","","null","","","null","40","","","","","","","","","","","","","","","NaN",""
"","S1","","html-keyboard-response","273","345546","0.0-1.0-371.0","0","0","62724","","null","","","null","41","","","","","","","","","","","","","","","",""
"","ISI","","html-keyboard-response","274","346556","0.0-1.0-372.0","0","0","62724","","null","","","null","41","NaN","","","","","","","","","","","","","","",""
"","S2","","html-keyboard-response","275","346824","0.0-1.0-373.0","0","0","62724","","null","","","null","41","","NaN","","","","","","","","","","","","","",""
"","response","","html-keyboard-response","276","347591","0.0-1.0-374.0-0.0","0","0","62724","","765","","","68","41","","","1","41","training","adjacent","FE","6","5","N.jpg","L.jpg","1","0","0","",""
"","feedback","","html-keyboard-response","277","348606","0.0-1.0-375.0-0.0","0","0","62724","","null","","","null","41","","","","","","","","","","","","","","","",""
"","time_out","","html-keyboard-response","278","350610","0.0-1.0-377.0-0.0","0","0","62724","","null","","","null","41","","","","","","","","","","","","","","","",""
"","ITI","","html-keyboard-response","279","351625","0.0-1.0-378.0","0","0","62724","","null","","","null","41","","","","","","","","","","","","","","","NaN",""
"","S1","","html-keyboard-response","280","351888","0.0-1.0-380.0","0","0","62724","","null","","","null","42","","","","","","","","","","","","","","","",""
"","ISI","","html-keyboard-response","281","352905","0.0-1.0-381.0","0","0","62724","","null","","","null","42","NaN","","","","","","","","","","","","","","",""
"","S2","","html-keyboard-response","282","353171","0.0-1.0-382.0","0","0","62724","","null","","","null","42","","NaN","","","","","","","","","","","","","",""
"","response","","html-keyboard-response","283","353690","0.0-1.0-383.0-0.0","0","0","62724","","518","","","75","42","","","1","42","training","adjacent","ED","5","4","L.jpg","O.jpg","0","0","1","",""
"","feedback","","html-keyboard-response","284","354702","0.0-1.0-384.0-0.0","0","0","62724","","null","","","null","42","","","","","","","","","","","","","","","",""
"","ITI","","html-keyboard-response","285","355710","0.0-1.0-387.0","0","0","62724","","null","","","null","42","","","","","","","","","","","","","","","NaN",""
"","S1","","html-keyboard-response","286","355975","0.0-1.0-389.0","0","0","62724","","null","","","null","43","","","","","","","","","","","","","","","",""
"","ISI","","html-keyboard-response","287","356993","0.0-1.0-390.0","0","0","62724","","null","","","null","43","NaN","","","","","","","","","","","","","","",""
"","S2","","html-keyboard-response","288","357261","0.0-1.0-391.0","0","0","62724","","null","","","null","43","","NaN","","","","","","","","","","","","","",""
"","response","","html-keyboard-response","289","357805","0.0-1.0-392.0-0.0","0","0","62724","","543","","","75","43","","","1","43","training","adjacent","DC","4","3","O.jpg","R.jpg","0","0","1","",""
"","feedback","","html-keyboard-response","290","358818","0.0-1.0-393.0-0.0","0","0","62724","","null","","","null","43","","","","","","","","","","","","","","","",""
"","ITI","","html-keyboard-response","291","359833","0.0-1.0-396.0","0","0","62724","","null","","","null","43","","","","","","","","","","","","","","","NaN",""
"","S1","","html-keyboard-response","292","360099","0.0-1.0-398.0","0","0","62724","","null","","","null","44","","","","","","","","","","","","","","","",""
"","ISI","","html-keyboard-response","293","361102","0.0-1.0-399.0","0","0","62724","","null","","","null","44","NaN","","","","","","","","","","","","","","",""
"","S2","","html-keyboard-response","294","361365","0.0-1.0-400.0","0","0","62724","","null","","","null","44","","NaN","","","","","","","","","","","","","",""
"","response","","html-keyboard-response","295","362037","0.0-1.0-401.0-0.0","0","0","62724","","669","","","68","44","","","1","44","training","adjacent","FE","6","5","N.jpg","L.jpg","1","0","0","",""
"","feedback","","html-keyboard-response","296","363042","0.0-1.0-402.0-0.0","0","0","62724","","null","","","null","44","","","","","","","","","","","","","","","",""
"","time_out","","html-keyboard-response","297","365046","0.0-1.0-404.0-0.0","0","0","62724","","null","","","null","44","","","","","","","","","","","","","","","",""
"","ITI","","html-keyboard-response","298","366064","0.0-1.0-405.0","0","0","62724","","null","","","null","44","","","","","","","","","","","","","","","NaN",""
"","S1","","html-keyboard-response","299","366328","0.0-1.0-407.0","0","0","62724","","null","","","null","45","","","","","","","","","","","","","","","",""
"","ISI","","html-keyboard-response","300","367343","0.0-1.0-408.0","0","0","62724","","null","","","null","45","NaN","","","","","","","","","","","","","","",""
"","S2","","html-keyboard-response","301","367596","0.0-1.0-409.0","0","0","62724","","null","","","null","45","","NaN","","","","","","","","","","","","","",""
"","response","","html-keyboard-response","302","368769","0.0-1.0-410.0-0.0","0","0","62724","","1171","","","75","45","","","1","45","training","adjacent","DE","4","5","O.jpg","L.jpg","0","1","0","",""
"","feedback","","html-keyboard-response","303","369782","0.0-1.0-411.0-0.0","0","0","62724","","null","","","null","45","","","","","","","","","","","","","","","",""
"","time_out","","html-keyboard-response","304","371785","0.0-1.0-413.0-0.0","0","0","62724","","null","","","null","45","","","","","","","","","","","","","","","",""
"","ITI","","html-keyboard-response","305","372789","0.0-1.0-414.0","0","0","62724","","null","","","null","45","","","","","","","","","","","","","","","NaN",""
"","S1","","html-keyboard-response","306","373053","0.0-1.0-416.0","0","0","62724","","null","","","null","46","","","","","","","","","","","","","","","",""
"","ISI","","html-keyboard-response","307","374059","0.0-1.0-417.0","0","0","62724","","null","","","null","46","NaN","","","","","","","","","","","","","","",""
"","S2","","html-keyboard-response","308","374315","0.0-1.0-418.0","0","0","62724","","null","","","null","46","","NaN","","","","","","","","","","","","","",""
"","response","","html-keyboard-response","309","374839","0.0-1.0-419.0-0.0","0","0","62724","","523","","","75","46","","","1","46","training","adjacent","GF","7","6","P.jpg","N.jpg","0","0","1","",""
"","feedback","","html-keyboard-response","310","375843","0.0-1.0-420.0-0.0","0","0","62724","","null","","","null","46","","","","","","","","","","","","","","","",""
"","ITI","","html-keyboard-response","311","376857","0.0-1.0-423.0","0","0","62724","","null","","","null","46","","","","","","","","","","","","","","","NaN",""
"","S1","","html-keyboard-response","312","377124","0.0-1.0-425.0","0","0","62724","","null","","","null","47","","","","","","","","","","","","","","","",""
"","ISI","","html-keyboard-response","313","378131","0.0-1.0-426.0","0","0","62724","","null","","","null","47","NaN","","","","","","","","","","","","","","",""
"","S2","","html-keyboard-response","314","378389","0.0-1.0-427.0","0","0","62724","","null","","","null","47","","NaN","","","","","","","","","","","","","",""
"","response","","html-keyboard-response","315","378822","0.0-1.0-428.0-0.0","0","0","62724","","432","","","75","47","","","1","47","training","adjacent","BC","2","3","Q.jpg","R.jpg","0","1","0","",""
"","feedback","","html-keyboard-response","316","379838","0.0-1.0-429.0-0.0","0","0","62724","","null","","","null","47","","","","","","","","","","","","","","","",""
"","time_out","","html-keyboard-response","317","381846","0.0-1.0-431.0-0.0","0","0","62724","","null","","","null","47","","","","","","","","","","","","","","","",""
"","ITI","","html-keyboard-response","318","382850","0.0-1.0-432.0","0","0","62724","","null","","","null","47","","","","","","","","","","","","","","","NaN",""
"","block_over","","html-keyboard-response","319","387213","0.0-1.0-433.0-0.0","0","0","62724","","4360","","","32","47","","","","","","","","","","","","","","","",""
"","S1","","html-keyboard-response","320","387475","0.0-1.0-434.0","0","0","62724","","null","","","null","48","","","","","","","","","","","","","","","",""
"","ISI","","html-keyboard-response","321","388492","0.0-1.0-435.0","0","0","62724","","null","","","null","48","NaN","","","","","","","","","","","","","","",""
"","S2","","html-keyboard-response","322","388753","0.0-1.0-436.0","0","0","62724","","null","","","null","48","","NaN","","","","","","","","","","","","","",""
"","response","","html-keyboard-response","323","389268","0.0-1.0-437.0-0.0","0","0","62724","","513","","","68","48","","","2","48","training","adjacent","AB","1","2","M.jpg","Q.jpg","1","1","1","",""
"","feedback","","html-keyboard-response","324","390271","0.0-1.0-438.0-0.0","0","0","62724","","null","","","null","48","","","","","","","","","","","","","","","",""
"","ITI","","html-keyboard-response","325","391286","0.0-1.0-441.0","0","0","62724","","null","","","null","48","","","","","","","","","","","","","","","NaN",""
"","S1","","html-keyboard-response","326","391553","0.0-1.0-443.0","0","0","62724","","null","","","null","49","","","","","","","","","","","","","","","",""
"","ISI","","html-keyboard-response","327","392557","0.0-1.0-444.0","0","0","62724","","null","","","null","49","NaN","","","","","","","","","","","","","","",""
"","S2","","html-keyboard-response","328","392821","0.0-1.0-445.0","0","0","62724","","null","","","null","49","","NaN","","","","","","","","","","","","","",""
"","response","","html-keyboard-response","329","393222","0.0-1.0-446.0-0.0","0","0","62724","","399","","","75","49","","","2","49","training","adjacent","GF","7","6","P.jpg","N.jpg","0","0","1","",""
"","feedback","","html-keyboard-response","330","394237","0.0-1.0-447.0-0.0","0","0","62724","","null","","","null","49","","","","","","","","","","","","","","","",""
"","ITI","","html-keyboard-response","331","395239","0.0-1.0-450.0","0","0","62724","","null","","","null","49","","","","","","","","","","","","","","","NaN",""
"","S1","","html-keyboard-response","332","395502","0.0-1.0-452.0","0","0","62724","","null","","","null","50","","","","","","","","","","","","","","","",""
"","ISI","","html-keyboard-response","333","396511","0.0-1.0-453.0","0","0","62724","","null","","","null","50","NaN","","","","","","","","","","","","","","",""
"","S2","","html-keyboard-response","334","396776","0.0-1.0-454.0","0","0","62724","","null","","","null","50","","NaN","","","","","","","","","","","","","",""
"","response","","html-keyboard-response","335","397566","0.0-1.0-455.0-0.0","0","0","62724","","788","","","75","50","","","2","50","training","adjacent","DE","4","5","O.jpg","L.jpg","0","1","0","",""
"","feedback","","html-keyboard-response","336","398574","0.0-1.0-456.0-0.0","0","0","62724","","null","","","null","50","","","","","","","","","","","","","","","",""
"","time_out","","html-keyboard-response","337","400577","0.0-1.0-458.0-0.0","0","0","62724","","null","","","null","50","","","","","","","","","","","","","","","",""
"","ITI","","html-keyboard-response","338","401582","0.0-1.0-459.0","0","0","62724","","null","","","null","50","","","","","","","","","","","","","","","NaN",""
"","S1","","html-keyboard-response","339","401846","0.0-1.0-461.0","0","0","62724","","null","","","null","51","","","","","","","","","","","","","","","",""
"","ISI","","html-keyboard-response","340","402864","0.0-1.0-462.0","0","0","62724","","null","","","null","51","NaN","","","","","","","","","","","","","","",""
"","S2","","html-keyboard-response","341","403129","0.0-1.0-463.0","0","0","62724","","null","","","null","51","","NaN","","","","","","","","","","","","","",""
"","response","","html-keyboard-response","342","403642","0.0-1.0-464.0-0.0","0","0","62724","","510","","","68","51","","","2","51","training","adjacent","DE","4","5","O.jpg","L.jpg","1","1","1","",""
"","feedback","","html-keyboard-response","343","404659","0.0-1.0-465.0-0.0","0","0","62724","","null","","","null","51","","","","","","","","","","","","","","","",""
"","ITI","","html-keyboard-response","344","405663","0.0-1.0-468.0","0","0","62724","","null","","","null","51","","","","","","","","","","","","","","","NaN",""
"","S1","","html-keyboard-response","345","405917","0.0-1.0-470.0","0","0","62724","","null","","","null","52","","","","","","","","","","","","","","","",""
"","ISI","","html-keyboard-response","346","406920","0.0-1.0-471.0","0","0","62724","","null","","","null","52","NaN","","","","","","","","","","","","","","",""
"","S2","","html-keyboard-response","347","407185","0.0-1.0-472.0","0","0","62724","","null","","","null","52","","NaN","","","","","","","","","","","","","",""
"","response","","html-keyboard-response","348","407419","0.0-1.0-473.0-0.0","0","0","62724","","232","","","75","52","","","2","52","training","adjacent","EF","5","6","L.jpg","N.jpg","0","1","0","",""
"","feedback","","html-keyboard-response","349","408435","0.0-1.0-474.0-0.0","0","0","62724","","null","","","null","52","","","","","","","","","","","","","","","",""
"","time_out","","html-keyboard-response","350","410444","0.0-1.0-476.0-0.0","0","0","62724","","null","","","null","52","","","","","","","","","","","","","","","",""
"","ITI","","html-keyboard-response","351","411458","0.0-1.0-477.0","0","0","62724","","null","","","null","52","","","","","","","","","","","","","","","NaN",""
"","S1","","html-keyboard-response","352","411711","0.0-1.0-479.0","0","0","62724","","null","","","null","53","","","","","","","","","","","","","","","",""
"","ISI","","html-keyboard-response","353","412729","0.0-1.0-480.0","0","0","62724","","null","","","null","53","NaN","","","","","","","","","","","","","","",""
"","S2","","html-keyboard-response","354","412995","0.0-1.0-481.0","0","0","62724","","null","","","null","53","","NaN","","","","","","","","","","","","","",""
"","response","","html-keyboard-response","355","413877","0.0-1.0-482.0-0.0","0","0","62724","","880","","","68","53","","","2","53","training","adjacent","FG","6","7","N.jpg","P.jpg","1","1","1","",""
"","feedback","","html-keyboard-response","356","414890","0.0-1.0-483.0-0.0","0","0","62724","","null","","","null","53","","","","","","","","","","","","","","","",""
"","ITI","","html-keyboard-response","357","415908","0.0-1.0-486.0","0","0","62724","","null","","","null","53","","","","","","","","","","","","","","","NaN",""
"","S1","","html-keyboard-response","358","416169","0.0-1.0-488.0","0","0","62724","","null","","","null","54","","","","","","","","","","","","","","","",""
"","ISI","","html-keyboard-response","359","417180","0.0-1.0-489.0","0","0","62724","","null","","","null","54","NaN","","","","","","","","","","","","","","",""
"","S2","","html-keyboard-response","360","417441","0.0-1.0-490.0","0","0","62724","","null","","","null","54","","NaN","","","","","","","","","","","","","",""
"","response","","html-keyboard-response","361","418062","0.0-1.0-491.0-0.0","0","0","62724","","620","","","68","54","","","2","54","training","adjacent","AB","1","2","M.jpg","Q.jpg","1","1","1","",""
"","feedback","","html-keyboard-response","362","419068","0.0-1.0-492.0-0.0","0","0","62724","","null","","","null","54","","","","","","","","","","","","","","","",""
"","ITI","","html-keyboard-response","363","420083","0.0-1.0-495.0","0","0","62724","","null","","","null","54","","","","","","","","","","","","","","","NaN",""
"","S1","","html-keyboard-response","364","420347","0.0-1.0-497.0","0","0","62724","","null","","","null","55","","","","","","","","","","","","","","","",""
"","ISI","","html-keyboard-response","365","421361","0.0-1.0-498.0","0","0","62724","","null","","","null","55","NaN","","","","","","","","","","","","","","",""
"","S2","","html-keyboard-response","366","421626","0.0-1.0-499.0","0","0","62724","","null","","","null","55","","NaN","","","","","","","","","","","","","",""
"","response","","html-keyboard-response","367","421952","0.0-1.0-500.0-0.0","0","0","62724","","325","","","68","55","","","2","55","training","adjacent","CB","3","2","R.jpg","Q.jpg","1","0","0","",""
"","feedback","","html-keyboard-response","368","422966","0.0-1.0-501.0-0.0","0","0","62724","","null","","","null","55","","","","","","","","","","","","","","","",""
"","time_out","","html-keyboard-response","369","424982","0.0-1.0-503.0-0.0","0","0","62724","","null","","","null","55","","","","","","","","","","","","","","","",""
"","ITI","","html-keyboard-response","370","425997","0.0-1.0-504.0","0","0","62724","","null","","","null","55","","","","","","","","","","","","","","","NaN",""
"","S1","","html-keyboard-response","371","426263","0.0-1.0-506.0","0","0","62724","","null","","","null","56","","","","","","","","","","","","","","","",""
"","ISI","","html-keyboard-response","372","427276","0.0-1.0-507.0","0","0","62724","","null","","","null","56","NaN","","","","","","","","","","","","","","",""
"","S2","","html-keyboard-response","373","427540","0.0-1.0-508.0","0","0","62724","","null","","","null","56","","NaN","","","","","","","","","","","","","",""
"","response","","html-keyboard-response","374","427715","0.0-1.0-509.0-0.0","0","0","62724","","174","","","75","56","","","2","56","training","adjacent","BA","2","1","Q.jpg","M.jpg","0","0","1","",""
"","feedback","","html-keyboard-response","375","428733","0.0-1.0-510.0-0.0","0","0","62724","","null","","","null","56","","","","","","","","","","","","","","","",""
"","ITI","","html-keyboard-response","376","429740","0.0-1.0-513.0","0","0","62724","","null","","","null","56","","","","","","","","","","","","","","","NaN",""
"","S1","","html-keyboard-response","377","430004","0.0-1.0-515.0","0","0","62724","","null","","","null","57","","","","","","","","","","","","","","","",""
"","ISI","","html-keyboard-response","378","431010","0.0-1.0-516.0","0","0","62724","","null","","","null","57","NaN","","","","","","","","","","","","","","",""
"","S2","","html-keyboard-response","379","431269","0.0-1.0-517.0","0","0","62724","","null","","","null","57","","NaN","","","","","","","","","","","","","",""
"","response","","html-keyboard-response","380","431718","0.0-1.0-518.0-0.0","0","0","62724","","448","","","68","57","","","2","57","training","adjacent","BC","2","3","Q.jpg","R.jpg","1","1","1","",""
"","feedback","","html-keyboard-response","381","432732","0.0-1.0-519.0-0.0","0","0","62724","","null","","","null","57","","","","","","","","","","","","","","","",""
"","ITI","","html-keyboard-response","382","433744","0.0-1.0-522.0","0","0","62724","","null","","","null","57","","","","","","","","","","","","","","","NaN",""
"","S1","","html-keyboard-response","383","434007","0.0-1.0-524.0","0","0","62724","","null","","","null","58","","","","","","","","","","","","","","","",""
"","ISI","","html-keyboard-response","384","435011","0.0-1.0-525.0","0","0","62724","","null","","","null","58","NaN","","","","","","","","","","","","","","",""
"","S2","","html-keyboard-response","385","435273","0.0-1.0-526.0","0","0","62724","","null","","","null","58","","NaN","","","","","","","","","","","","","",""
"","response","","html-keyboard-response","386","435881","0.0-1.0-527.0-0.0","0","0","62724","","607","","","75","58","","","2","58","training","adjacent","DC","4","3","O.jpg","R.jpg","0","0","1","",""
"","feedback","","html-keyboard-response","387","436893","0.0-1.0-528.0-0.0","0","0","62724","","null","","","null","58","","","","","","","","","","","","","","","",""
"","ITI","","html-keyboard-response","388","437909","0.0-1.0-531.0","0","0","62724","","null","","","null","58","","","","","","","","","","","","","","","NaN",""
"","S1","","html-keyboard-response","389","438169","0.0-1.0-533.0","0","0","62724","","null","","","null","59","","","","","","","","","","","","","","","",""
"","ISI","","html-keyboard-response","390","439187","0.0-1.0-534.0","0","0","62724","","null","","","null","59","NaN","","","","","","","","","","","","","","",""
"","S2","","html-keyboard-response","391","439447","0.0-1.0-535.0","0","0","62724","","null","","","null","59","","NaN","","","","","","","","","","","","","",""
"","response","","html-keyboard-response","392","439887","0.0-1.0-536.0-0.0","0","0","62724","","437","","","68","59","","","2","59","training","adjacent","FG","6","7","N.jpg","P.jpg","1","1","1","",""
"","feedback","","html-keyboard-response","393","440903","0.0-1.0-537.0-0.0","0","0","62724","","null","","","null","59","","","","","","","","","","","","","","","",""
"","ITI","","html-keyboard-response","394","441907","0.0-1.0-540.0","0","0","62724","","null","","","null","59","","","","","","","","","","","","","","","NaN",""
"","S1","","html-keyboard-response","395","442175","0.0-1.0-542.0","0","0","62724","","null","","","null","60","","","","","","","","","","","","","","","",""
"","ISI","","html-keyboard-response","396","443192","0.0-1.0-543.0","0","0","62724","","null","","","null","60","NaN","","","","","","","","","","","","","","",""
"","S2","","html-keyboard-response","397","443454","0.0-1.0-544.0","0","0","62724","","null","","","null","60","","NaN","","","","","","","","","","","","","",""
"","response","","html-keyboard-response","398","443916","0.0-1.0-545.0-0.0","0","0","62724","","461","","","75","60","","","2","60","training","adjacent","BA","2","1","Q.jpg","M.jpg","0","0","1","",""
"","feedback","","html-keyboard-response","399","444929","0.0-1.0-546.0-0.0","0","0","62724","","null","","","null","60","","","","","","","","","","","","","","","",""
"","ITI","","html-keyboard-response","400","445933","0.0-1.0-549.0","0","0","62724","","null","","","null","60","","","","","","","","","","","","","","","NaN",""
"","S1","","html-keyboard-response","401","446201","0.0-1.0-551.0","0","0","62724","","null","","","null","61","","","","","","","","","","","","","","","",""
"","ISI","","html-keyboard-response","402","447219","0.0-1.0-552.0","0","0","62724","","null","","","null","61","NaN","","","","","","","","","","","","","","",""
"","S2","","html-keyboard-response","403","447475","0.0-1.0-553.0","0","0","62724","","null","","","null","61","","NaN","","","","","","","","","","","","","",""
"","response","","html-keyboard-response","404","447939","0.0-1.0-554.0-0.0","0","0","62724","","463","","","75","61","","","2","61","training","adjacent","CB","3","2","R.jpg","Q.jpg","0","0","1","",""
"","feedback","","html-keyboard-response","405","448952","0.0-1.0-555.0-0.0","0","0","62724","","null","","","null","61","","","","","","","","","","","","","","","",""
"","ITI","","html-keyboard-response","406","449963","0.0-1.0-558.0","0","0","62724","","null","","","null","61","","","","","","","","","","","","","","","NaN",""
"","S1","","html-keyboard-response","407","450222","0.0-1.0-560.0","0","0","62724","","null","","","null","62","","","","","","","","","","","","","","","",""
"","ISI","","html-keyboard-response","408","451227","0.0-1.0-561.0","0","0","62724","","null","","","null","62","NaN","","","","","","","","","","","","","","",""
"","S2","","html-keyboard-response","409","451493","0.0-1.0-562.0","0","0","62724","","null","","","null","62","","NaN","","","","","","","","","","","","","",""
"","response","","html-keyboard-response","410","451857","0.0-1.0-563.0-0.0","0","0","62724","","362","","","75","62","","","2","62","training","adjacent","EF","5","6","L.jpg","N.jpg","0","1","0","",""
"","feedback","","html-keyboard-response","411","452864","0.0-1.0-564.0-0.0","0","0","62724","","null","","","null","62","","","","","","","","","","","","","","","",""
"","time_out","","html-keyboard-response","412","454869","0.0-1.0-566.0-0.0","0","0","62724","","null","","","null","62","","","","","","","","","","","","","","","",""
"","ITI","","html-keyboard-response","413","455879","0.0-1.0-567.0","0","0","62724","","null","","","null","62","","","","","","","","","","","","","","","NaN",""
"","S1","","html-keyboard-response","414","456141","0.0-1.0-569.0","0","0","62724","","null","","","null","63","","","","","","","","","","","","","","","",""
"","ISI","","html-keyboard-response","415","457157","0.0-1.0-570.0","0","0","62724","","null","","","null","63","NaN","","","","","","","","","","","","","","",""
"","S2","","html-keyboard-response","416","457421","0.0-1.0-571.0","0","0","62724","","null","","","null","63","","NaN","","","","","","","","","","","","","",""
"","response","","html-keyboard-response","417","457843","0.0-1.0-572.0-0.0","0","0","62724","","421","","","75","63","","","2","63","training","adjacent","BA","2","1","Q.jpg","M.jpg","0","0","1","",""
"","feedback","","html-keyboard-response","418","458857","0.0-1.0-573.0-0.0","0","0","62724","","null","","","null","63","","","","","","","","","","","","","","","",""
"","ITI","","html-keyboard-response","419","459874","0.0-1.0-576.0","0","0","62724","","null","","","null","63","","","","","","","","","","","","","","","NaN",""
"","S1","","html-keyboard-response","420","460140","0.0-1.0-578.0","0","0","62724","","null","","","null","64","","","","","","","","","","","","","","","",""
"","ISI","","html-keyboard-response","421","461156","0.0-1.0-579.0","0","0","62724","","null","","","null","64","NaN","","","","","","","","","","","","","","",""
"","S2","","html-keyboard-response","422","461410","0.0-1.0-580.0","0","0","62724","","null","","","null","64","","NaN","","","","","","","","","","","","","",""
"","response","","html-keyboard-response","423","461870","0.0-1.0-581.0-0.0","0","0","62724","","459","","","75","64","","","2","64","training","adjacent","BC","2","3","Q.jpg","R.jpg","0","1","0","",""
"","feedback","","html-keyboard-response","424","462886","0.0-1.0-582.0-0.0","0","0","62724","","null","","","null","64","","","","","","","","","","","","","","","",""
"","time_out","","html-keyboard-response","425","464903","0.0-1.0-584.0-0.0","0","0","62724","","null","","","null","64","","","","","","","","","","","","","","","",""
"","ITI","","html-keyboard-response","426","465918","0.0-1.0-585.0","0","0","62724","","null","","","null","64","","","","","","","","","","","","","","","NaN",""
"","S1","","html-keyboard-response","427","466183","0.0-1.0-587.0","0","0","62724","","null","","","null","65","","","","","","","","","","","","","","","",""
"","ISI","","html-keyboard-response","428","467186","0.0-1.0-588.0","0","0","62724","","null","","","null","65","NaN","","","","","","","","","","","","","","",""
"","S2","","html-keyboard-response","429","467447","0.0-1.0-589.0","0","0","62724","","null","","","null","65","","NaN","","","","","","","","","","","","","",""
"","response","","html-keyboard-response","430","467989","0.0-1.0-590.0-0.0","0","0","62724","","540","","","68","65","","","2","65","training","adjacent","FG","6","7","N.jpg","P.jpg","1","1","1","",""
"","feedback","","html-keyboard-response","431","468996","0.0-1.0-591.0-0.0","0","0","62724","","null","","","null","65","","","","","","","","","","","","","","","",""
"","ITI","","html-keyboard-response","432","470010","0.0-1.0-594.0","0","0","62724","","null","","","null","65","","","","","","","","","","","","","","","NaN",""
"","S1","","html-keyboard-response","433","470274","0.0-1.0-596.0","0","0","62724","","null","","","null","66","","","","","","","","","","","","","","","",""
"","ISI","","html-keyboard-response","434","471276","0.0-1.0-597.0","0","0","62724","","null","","","null","66","NaN","","","","","","","","","","","","","","",""
"","S2","","html-keyboard-response","435","471531","0.0-1.0-598.0","0","0","62724","","null","","","null","66","","NaN","","","","","","","","","","","","","",""
"","response","","html-keyboard-response","436","472220","0.0-1.0-599.0-0.0","0","0","62724","","687","","","75","66","","","2","66","training","adjacent","CB","3","2","R.jpg","Q.jpg","0","0","1","",""
"","feedback","","html-keyboard-response","437","473226","0.0-1.0-600.0-0.0","0","0","62724","","null","","","null","66","","","","","","","","","","","","","","","",""
"","ITI","","html-keyboard-response","438","474230","0.0-1.0-603.0","0","0","62724","","null","","","null","66","","","","","","","","","","","","","","","NaN",""
"","S1","","html-keyboard-response","439","474486","0.0-1.0-605.0","0","0","62724","","null","","","null","67","","","","","","","","","","","","","","","",""
"","ISI","","html-keyboard-response","440","475503","0.0-1.0-606.0","0","0","62724","","null","","","null","67","NaN","","","","","","","","","","","","","","",""
"","S2","","html-keyboard-response","441","475765","0.0-1.0-607.0","0","0","62724","","null","","","null","67","","NaN","","","","","","","","","","","","","",""
"","response","","html-keyboard-response","442","476382","0.0-1.0-608.0-0.0","0","0","62724","","616","","","75","67","","","2","67","training","adjacent","CD","3","4","R.jpg","O.jpg","0","1","0","",""
"","feedback","","html-keyboard-response","443","477389","0.0-1.0-609.0-0.0","0","0","62724","","null","","","null","67","","","","","","","","","","","","","","","",""
"","time_out","","html-keyboard-response","444","479405","0.0-1.0-611.0-0.0","0","0","62724","","null","","","null","67","","","","","","","","","","","","","","","",""
"","ITI","","html-keyboard-response","445","480417","0.0-1.0-612.0","0","0","62724","","null","","","null","67","","","","","","","","","","","","","","","NaN",""
"","S1","","html-keyboard-response","446","480680","0.0-1.0-614.0","0","0","62724","","null","","","null","68","","","","","","","","","","","","","","","",""
"","ISI","","html-keyboard-response","447","481697","0.0-1.0-615.0","0","0","62724","","null","","","null","68","NaN","","","","","","","","","","","","","","",""
"","S2","","html-keyboard-response","448","481961","0.0-1.0-616.0","0","0","62724","","null","","","null","68","","NaN","","","","","","","","","","","","","",""
"","response","","html-keyboard-response","449","482570","0.0-1.0-617.0-0.0","0","0","62724","","608","","","75","68","","","2","68","training","adjacent","ED","5","4","L.jpg","O.jpg","0","0","1","",""
"","feedback","","html-keyboard-response","450","483582","0.0-1.0-618.0-0.0","0","0","62724","","null","","","null","68","","","","","","","","","","","","","","","",""
"","ITI","","html-keyboard-response","451","484595","0.0-1.0-621.0","0","0","62724","","null","","","null","68","","","","","","","","","","","","","","","NaN",""
"","S1","","html-keyboard-response","452","484862","0.0-1.0-623.0","0","0","62724","","null","","","null","69","","","","","","","","","","","","","","","",""
"","ISI","","html-keyboard-response","453","485875","0.0-1.0-624.0","0","0","62724","","null","","","null","69","NaN","","","","","","","","","","","","","","",""
"","S2","","html-keyboard-response","454","486135","0.0-1.0-625.0","0","0","62724","","null","","","null","69","","NaN","","","","","","","","","","","","","",""
"","response","","html-keyboard-response","455","486664","0.0-1.0-626.0-0.0","0","0","62724","","527","","","75","69","","","2","69","training","adjacent","DC","4","3","O.jpg","R.jpg","0","0","1","",""
"","feedback","","html-keyboard-response","456","487679","0.0-1.0-627.0-0.0","0","0","62724","","null","","","null","69","","","","","","","","","","","","","","","",""
"","ITI","","html-keyboard-response","457","488696","0.0-1.0-630.0","0","0","62724","","null","","","null","69","","","","","","","","","","","","","","","NaN",""
"","S1","","html-keyboard-response","458","488958","0.0-1.0-632.0","0","0","62724","","null","","","null","70","","","","","","","","","","","","","","","",""
"","ISI","","html-keyboard-response","459","489961","0.0-1.0-633.0","0","0","62724","","null","","","null","70","NaN","","","","","","","","","","","","","","",""
"","S2","","html-keyboard-response","460","490225","0.0-1.0-634.0","0","0","62724","","null","","","null","70","","NaN","","","","","","","","","","","","","",""
"","response","","html-keyboard-response","461","490603","0.0-1.0-635.0-0.0","0","0","62724","","377","","","75","70","","","2","70","training","adjacent","EF","5","6","L.jpg","N.jpg","0","1","0","",""
"","feedback","","html-keyboard-response","462","491615","0.0-1.0-636.0-0.0","0","0","62724","","null","","","null","70","","","","","","","","","","","","","","","",""
"","time_out","","html-keyboard-response","463","493620","0.0-1.0-638.0-0.0","0","0","62724","","null","","","null","70","","","","","","","","","","","","","","","",""
"","ITI","","html-keyboard-response","464","494634","0.0-1.0-639.0","0","0","62724","","null","","","null","70","","","","","","","","","","","","","","","NaN",""
"","S1","","html-keyboard-response","465","494891","0.0-1.0-641.0","0","0","62724","","null","","","null","71","","","","","","","","","","","","","","","",""
"","ISI","","html-keyboard-response","466","495908","0.0-1.0-642.0","0","0","62724","","null","","","null","71","NaN","","","","","","","","","","","","","","",""
"","S2","","html-keyboard-response","467","496175","0.0-1.0-643.0","0","0","62724","","null","","","null","71","","NaN","","","","","","","","","","","","","",""
"","response","","html-keyboard-response","468","496746","0.0-1.0-644.0-0.0","0","0","62724","","570","","","75","71","","","2","71","training","adjacent","CD","3","4","R.jpg","O.jpg","0","1","0","",""
"","feedback","","html-keyboard-response","469","497762","0.0-1.0-645.0-0.0","0","0","62724","","null","","","null","71","","","","","","","","","","","","","","","",""
"","time_out","","html-keyboard-response","470","499776","0.0-1.0-647.0-0.0","0","0","62724","","null","","","null","71","","","","","","","","","","","","","","","",""
"","ITI","","html-keyboard-response","471","500789","0.0-1.0-648.0","0","0","62724","","null","","","null","71","","","","","","","","","","","","","","","NaN",""
"","S1","","html-keyboard-response","472","501057","0.0-1.0-650.0","0","0","62724","","null","","","null","72","","","","","","","","","","","","","","","",""
"","ISI","","html-keyboard-response","473","502063","0.0-1.0-651.0","0","0","62724","","null","","","null","72","NaN","","","","","","","","","","","","","","",""
"","S2","","html-keyboard-response","474","502328","0.0-1.0-652.0","0","0","62724","","null","","","null","72","","NaN","","","","","","","","","","","","","",""
"","response","","html-keyboard-response","475","502933","0.0-1.0-653.0-0.0","0","0","62724","","602","","","75","72","","","2","72","training","adjacent","FE","6","5","N.jpg","L.jpg","0","0","1","",""
"","feedback","","html-keyboard-response","476","503945","0.0-1.0-654.0-0.0","0","0","62724","","null","","","null","72","","","","","","","","","","","","","","","",""
"","ITI","","html-keyboard-response","477","504955","0.0-1.0-657.0","0","0","62724","","null","","","null","72","","","","","","","","","","","","","","","NaN",""
"","S1","","html-keyboard-response","478","505221","0.0-1.0-659.0","0","0","62724","","null","","","null","73","","","","","","","","","","","","","","","",""
"","ISI","","html-keyboard-response","479","506237","0.0-1.0-660.0","0","0","62724","","null","","","null","73","NaN","","","","","","","","","","","","","","",""
"","S2","","html-keyboard-response","480","506503","0.0-1.0-661.0","0","0","62724","","null","","","null","73","","NaN","","","","","","","","","","","","","",""
"","response","","html-keyboard-response","481","507275","0.0-1.0-662.0-0.0","0","0","62724","","771","","","75","73","","","2","73","training","adjacent","ED","5","4","L.jpg","O.jpg","0","0","1","",""
"","feedback","","html-keyboard-response","482","508283","0.0-1.0-663.0-0.0","0","0","62724","","null","","","null","73","","","","","","","","","","","","","","","",""
"","ITI","","html-keyboard-response","483","509293","0.0-1.0-666.0","0","0","62724","","null","","","null","73","","","","","","","","","","","","","","","NaN",""
"","S1","","html-keyboard-response","484","509554","0.0-1.0-668.0","0","0","62724","","null","","","null","74","","","","","","","","","","","","","","","",""
"","ISI","","html-keyboard-response","485","510572","0.0-1.0-669.0","0","0","62724","","null","","","null","74","NaN","","","","","","","","","","","","","","",""
"","S2","","html-keyboard-response","486","510841","0.0-1.0-670.0","0","0","62724","","null","","","null","74","","NaN","","","","","","","","","","","","","",""
"","response","","html-keyboard-response","487","511393","0.0-1.0-671.0-0.0","0","0","62724","","552","","","68","74","","","2","74","training","adjacent","CB","3","2","R.jpg","Q.jpg","1","0","0","",""
"","feedback","","html-keyboard-response","488","512406","0.0-1.0-672.0-0.0","0","0","62724","","null","","","null","74","","","","","","","","","","","","","","","",""
"","time_out","","html-keyboard-response","489","514418","0.0-1.0-674.0-0.0","0","0","62724","","null","","","null","74","","","","","","","","","","","","","","","",""
"","ITI","","html-keyboard-response","490","515426","0.0-1.0-675.0","0","0","62724","","null","","","null","74","","","","","","","","","","","","","","","NaN",""
"","S1","","html-keyboard-response","491","515692","0.0-1.0-677.0","0","0","62724","","null","","","null","75","","","","","","","","","","","","","","","",""
"","ISI","","html-keyboard-response","492","516710","0.0-1.0-678.0","0","0","62724","","null","","","null","75","NaN","","","","","","","","","","","","","","",""
"","S2","","html-keyboard-response","493","516974","0.0-1.0-679.0","0","0","62724","","null","","","null","75","","NaN","","","","","","","","","","","","","",""
"","response","","html-keyboard-response","494","517603","0.0-1.0-680.0-0.0","0","0","62724","","627","","","68","75","","","2","75","training","adjacent","AB","1","2","M.jpg","Q.jpg","1","1","1","",""
"","feedback","","html-keyboard-response","495","518618","0.0-1.0-681.0-0.0","0","0","62724","","null","","","null","75","","","","","","","","","","","","","","","",""
"","ITI","","html-keyboard-response","496","519625","0.0-1.0-684.0","0","0","62724","","null","","","null","75","","","","","","","","","","","","","","","NaN",""
"","S1","","html-keyboard-response","497","519884","0.0-1.0-686.0","0","0","62724","","null","","","null","76","","","","","","","","","","","","","","","",""
"","ISI","","html-keyboard-response","498","520899","0.0-1.0-687.0","0","0","62724","","null","","","null","76","NaN","","","","","","","","","","","","","","",""
"","S2","","html-keyboard-response","499","521168","0.0-1.0-688.0","0","0","62724","","null","","","null","76","","NaN","","","","","","","","","","","","","",""
"","response","","html-keyboard-response","500","521965","0.0-1.0-689.0-0.0","0","0","62724","","795","","","75","76","","","2","76","training","adjacent","ED","5","4","L.jpg","O.jpg","0","0","1","",""
"","feedback","","html-keyboard-response","501","522980","0.0-1.0-690.0-0.0","0","0","62724","","null","","","null","76","","","","","","","","","","","","","","","",""
"","ITI","","html-keyboard-response","502","523996","0.0-1.0-693.0","0","0","62724","","null","","","null","76","","","","","","","","","","","","","","","NaN",""
"","S1","","html-keyboard-response","503","524258","0.0-1.0-695.0","0","0","62724","","null","","","null","77","","","","","","","","","","","","","","","",""
"","ISI","","html-keyboard-response","504","525268","0.0-1.0-696.0","0","0","62724","","null","","","null","77","NaN","","","","","","","","","","","","","","",""
"","S2","","html-keyboard-response","505","525534","0.0-1.0-697.0","0","0","62724","","null","","","null","77","","NaN","","","","","","","","","","","","","",""
"","response","","html-keyboard-response","506","526535","0.0-1.0-698.0-0.0","0","0","62724","","999","","","75","77","","","2","77","training","adjacent","BA","2","1","Q.jpg","M.jpg","0","0","1","",""
"","feedback","","html-keyboard-response","507","527545","0.0-1.0-699.0-0.0","0","0","62724","","null","","","null","77","","","","","","","","","","","","","","","",""
"","ITI","","html-keyboard-response","508","528553","0.0-1.0-702.0","0","0","62724","","null","","","null","77","","","","","","","","","","","","","","","NaN",""
"","S1","","html-keyboard-response","509","528825","0.0-1.0-704.0","0","0","62724","","null","","","null","78","","","","","","","","","","","","","","","",""
"","ISI","","html-keyboard-response","510","529837","0.0-1.0-705.0","0","0","62724","","null","","","null","78","NaN","","","","","","","","","","","","","","",""
"","S2","","html-keyboard-response","511","530102","0.0-1.0-706.0","0","0","62724","","null","","","null","78","","NaN","","","","","","","","","","","","","",""
"","response","","html-keyboard-response","512","530925","0.0-1.0-707.0-0.0","0","0","62724","","820","","","75","78","","","2","78","training","adjacent","EF","5","6","L.jpg","N.jpg","0","1","0","",""
"","feedback","","html-keyboard-response","513","531935","0.0-1.0-708.0-0.0","0","0","62724","","null","","","null","78","","","","","","","","","","","","","","","",""
"","time_out","","html-keyboard-response","514","533944","0.0-1.0-710.0-0.0","0","0","62724","","null","","","null","78","","","","","","","","","","","","","","","",""
"","ITI","","html-keyboard-response","515","534960","0.0-1.0-711.0","0","0","62724","","null","","","null","78","","","","","","","","","","","","","","","NaN",""
"","S1","","html-keyboard-response","516","535213","0.0-1.0-713.0","0","0","62724","","null","","","null","79","","","","","","","","","","","","","","","",""
"","ISI","","html-keyboard-response","517","536226","0.0-1.0-714.0","0","0","62724","","null","","","null","79","NaN","","","","","","","","","","","","","","",""
"","S2","","html-keyboard-response","518","536484","0.0-1.0-715.0","0","0","62724","","null","","","null","79","","NaN","","","","","","","","","","","","","",""
"","response","","html-keyboard-response","519","537022","0.0-1.0-716.0-0.0","0","0","62724","","537","","","68","79","","","2","79","training","adjacent","AB","1","2","M.jpg","Q.jpg","1","1","1","",""
"","feedback","","html-keyboard-response","520","538031","0.0-1.0-717.0-0.0","0","0","62724","","null","","","null","79","","","","","","","","","","","","","","","",""
"","ITI","","html-keyboard-response","521","539050","0.0-1.0-720.0","0","0","62724","","null","","","null","79","","","","","","","","","","","","","","","NaN",""
"","S1","","html-keyboard-response","522","539313","0.0-1.0-722.0","0","0","62724","","null","","","null","80","","","","","","","","","","","","","","","",""
"","ISI","","html-keyboard-response","523","540330","0.0-1.0-723.0","0","0","62724","","null","","","null","80","NaN","","","","","","","","","","","","","","",""
"","S2","","html-keyboard-response","524","540592","0.0-1.0-724.0","0","0","62724","","null","","","null","80","","NaN","","","","","","","","","","","","","",""
"","response","","html-keyboard-response","525","541386","0.0-1.0-725.0-0.0","0","0","62724","","792","","","68","80","","","2","80","training","adjacent","DC","4","3","O.jpg","R.jpg","1","0","0","",""
"","feedback","","html-keyboard-response","526","542402","0.0-1.0-726.0-0.0","0","0","62724","","null","","","null","80","","","","","","","","","","","","","","","",""
"","time_out","","html-keyboard-response","527","544415","0.0-1.0-728.0-0.0","0","0","62724","","null","","","null","80","","","","","","","","","","","","","","","",""
"","ITI","","html-keyboard-response","528","545428","0.0-1.0-729.0","0","0","62724","","null","","","null","80","","","","","","","","","","","","","","","NaN",""
"","S1","","html-keyboard-response","529","545696","0.0-1.0-731.0","0","0","62724","","null","","","null","81","","","","","","","","","","","","","","","",""
"","ISI","","html-keyboard-response","530","546712","0.0-1.0-732.0","0","0","62724","","null","","","null","81","NaN","","","","","","","","","","","","","","",""
"","S2","","html-keyboard-response","531","546975","0.0-1.0-733.0","0","0","62724","","null","","","null","81","","NaN","","","","","","","","","","","","","",""
"","response","","html-keyboard-response","532","547551","0.0-1.0-734.0-0.0","0","0","62724","","574","","","68","81","","","2","81","training","adjacent","DC","4","3","O.jpg","R.jpg","1","0","0","",""
"","feedback","","html-keyboard-response","533","548556","0.0-1.0-735.0-0.0","0","0","62724","","null","","","null","81","","","","","","","","","","","","","","","",""
"","time_out","","html-keyboard-response","534","550571","0.0-1.0-737.0-0.0","0","0","62724","","null","","","null","81","","","","","","","","","","","","","","","",""
"","ITI","","html-keyboard-response","535","551586","0.0-1.0-738.0","0","0","62724","","null","","","null","81","","","","","","","","","","","","","","","NaN",""
"","S1","","html-keyboard-response","536","551845","0.0-1.0-740.0","0","0","62724","","null","","","null","82","","","","","","","","","","","","","","","",""
"","ISI","","html-keyboard-response","537","552859","0.0-1.0-741.0","0","0","62724","","null","","","null","82","NaN","","","","","","","","","","","","","","",""
"","S2","","html-keyboard-response","538","553112","0.0-1.0-742.0","0","0","62724","","null","","","null","82","","NaN","","","","","","","","","","","","","",""
"","response","","html-keyboard-response","539","553828","0.0-1.0-743.0-0.0","0","0","62724","","714","","","68","82","","","2","82","training","adjacent","CD","3","4","R.jpg","O.jpg","1","1","1","",""
"","feedback","","html-keyboard-response","540","554830","0.0-1.0-744.0-0.0","0","0","62724","","null","","","null","82","","","","","","","","","","","","","","","",""
"","ITI","","html-keyboard-response","541","555845","0.0-1.0-747.0","0","0","62724","","null","","","null","82","","","","","","","","","","","","","","","NaN",""
"","S1","","html-keyboard-response","542","556110","0.0-1.0-749.0","0","0","62724","","null","","","null","83","","","","","","","","","","","","","","","",""
"","ISI","","html-keyboard-response","543","557113","0.0-1.0-750.0","0","0","62724","","null","","","null","83","NaN","","","","","","","","","","","","","","",""
"","S2","","html-keyboard-response","544","557370","0.0-1.0-751.0","0","0","62724","","null","","","null","83","","NaN","","","","","","","","","","","","","",""
"","response","","html-keyboard-response","545","557834","0.0-1.0-752.0-0.0","0","0","62724","","462","","","68","83","","","2","83","training","adjacent","CD","3","4","R.jpg","O.jpg","1","1","1","",""
"","feedback","","html-keyboard-response","546","558850","0.0-1.0-753.0-0.0","0","0","62724","","null","","","null","83","","","","","","","","","","","","","","","",""
"","ITI","","html-keyboard-response","547","559854","0.0-1.0-756.0","0","0","62724","","null","","","null","83","","","","","","","","","","","","","","","NaN",""
"","S1","","html-keyboard-response","548","560118","0.0-1.0-758.0","0","0","62724","","null","","","null","84","","","","","","","","","","","","","","","",""
"","ISI","","html-keyboard-response","549","561123","0.0-1.0-759.0","0","0","62724","","null","","","null","84","NaN","","","","","","","","","","","","","","",""
"","S2","","html-keyboard-response","550","561382","0.0-1.0-760.0","0","0","62724","","null","","","null","84","","NaN","","","","","","","","","","","","","",""
"","response","","html-keyboard-response","551","562785","0.0-1.0-761.0-0.0","0","0","62724","","1400","","","75","84","","","2","84","training","adjacent","DE","4","5","O.jpg","L.jpg","0","1","0","",""
"","feedback","","html-keyboard-response","552","563801","0.0-1.0-762.0-0.0","0","0","62724","","null","","","null","84","","","","","","","","","","","","","","","",""
"","time_out","","html-keyboard-response","553","565820","0.0-1.0-764.0-0.0","0","0","62724","","null","","","null","84","","","","","","","","","","","","","","","",""
"","ITI","","html-keyboard-response","554","566837","0.0-1.0-765.0","0","0","62724","","null","","","null","84","","","","","","","","","","","","","","","NaN",""
"","S1","","html-keyboard-response","555","567093","0.0-1.0-767.0","0","0","62724","","null","","","null","85","","","","","","","","","","","","","","","",""
"","ISI","","html-keyboard-response","556","568108","0.0-1.0-768.0","0","0","62724","","null","","","null","85","NaN","","","","","","","","","","","","","","",""
"","S2","","html-keyboard-response","557","568371","0.0-1.0-769.0","0","0","62724","","null","","","null","85","","NaN","","","","","","","","","","","","","",""
"","response","","html-keyboard-response","558","569017","0.0-1.0-770.0-0.0","0","0","62724","","643","","","68","85","","","2","85","training","adjacent","FG","6","7","N.jpg","P.jpg","1","1","1","",""
"","feedback","","html-keyboard-response","559","570021","0.0-1.0-771.0-0.0","0","0","62724","","null","","","null","85","","","","","","","","","","","","","","","",""
"","ITI","","html-keyboard-response","560","571028","0.0-1.0-774.0","0","0","62724","","null","","","null","85","","","","","","","","","","","","","","","NaN",""
"","S1","","html-keyboard-response","561","571290","0.0-1.0-776.0","0","0","62724","","null","","","null","86","","","","","","","","","","","","","","","",""
"","ISI","","html-keyboard-response","562","572293","0.0-1.0-777.0","0","0","62724","","null","","","null","86","NaN","","","","","","","","","","","","","","",""
"","S2","","html-keyboard-response","563","572555","0.0-1.0-778.0","0","0","62724","","null","","","null","86","","NaN","","","","","","","","","","","","","",""
"","response","","html-keyboard-response","564","573270","0.0-1.0-779.0-0.0","0","0","62724","","713","","","68","86","","","2","86","training","adjacent","BC","2","3","Q.jpg","R.jpg","1","1","1","",""
"","feedback","","html-keyboard-response","565","574286","0.0-1.0-780.0-0.0","0","0","62724","","null","","","null","86","","","","","","","","","","","","","","","",""
"","ITI","","html-keyboard-response","566","575297","0.0-1.0-783.0","0","0","62724","","null","","","null","86","","","","","","","","","","","","","","","NaN",""
"","S1","","html-keyboard-response","567","575565","0.0-1.0-785.0","0","0","62724","","null","","","null","87","","","","","","","","","","","","","","","",""
"","ISI","","html-keyboard-response","568","576577","0.0-1.0-786.0","0","0","62724","","null","","","null","87","NaN","","","","","","","","","","","","","","",""
"","S2","","html-keyboard-response","569","576839","0.0-1.0-787.0","0","0","62724","","null","","","null","87","","NaN","","","","","","","","","","","","","",""
"","response","","html-keyboard-response","570","577546","0.0-1.0-788.0-0.0","0","0","62724","","703","","","75","87","","","2","87","training","adjacent","FE","6","5","N.jpg","L.jpg","0","0","1","",""
"","feedback","","html-keyboard-response","571","578557","0.0-1.0-789.0-0.0","0","0","62724","","null","","","null","87","","","","","","","","","","","","","","","",""
"","ITI","","html-keyboard-response","572","579561","0.0-1.0-792.0","0","0","62724","","null","","","null","87","","","","","","","","","","","","","","","NaN",""
"","S1","","html-keyboard-response","573","579818","0.0-1.0-794.0","0","0","62724","","null","","","null","88","","","","","","","","","","","","","","","",""
"","ISI","","html-keyboard-response","574","580822","0.0-1.0-795.0","0","0","62724","","null","","","null","88","NaN","","","","","","","","","","","","","","",""
"","S2","","html-keyboard-response","575","581088","0.0-1.0-796.0","0","0","62724","","null","","","null","88","","NaN","","","","","","","","","","","","","",""
"","response","","html-keyboard-response","576","581572","0.0-1.0-797.0-0.0","0","0","62724","","483","","","75","88","","","2","88","training","adjacent","FE","6","5","N.jpg","L.jpg","0","0","1","",""
"","feedback","","html-keyboard-response","577","582584","0.0-1.0-798.0-0.0","0","0","62724","","null","","","null","88","","","","","","","","","","","","","","","",""
"","ITI","","html-keyboard-response","578","583597","0.0-1.0-801.0","0","0","62724","","null","","","null","88","","","","","","","","","","","","","","","NaN",""
"","S1","","html-keyboard-response","579","583858","0.0-1.0-803.0","0","0","62724","","null","","","null","89","","","","","","","","","","","","","","","",""
"","ISI","","html-keyboard-response","580","584861","0.0-1.0-804.0","0","0","62724","","null","","","null","89","NaN","","","","","","","","","","","","","","",""
