"success","ttype","start_time","trial_type","trial_index","time_elapsed","internal_node_id","warning","missed_checkup","PID","view_history","rt","responses","repeat_instructions","key_press","index","keypress_isi","keypress_S2","block","trial_num","phase","group_type","pair_type","S1_stim","S2_stim","S1_img","S2_img","S1_chosen","S1_higher","accuracy","keypress_iti","total_bonus_tally"
"true","full_screen","d07282022hr1807","fullscreen","0","8568","0.0-0.0","0","0","76981","","","","","","","","","","","","","","","","","","","","","",""
"","instructions","","instructions","1","72348","0.0-1.0-0.0-0.0","0","0","76981","[{""page_index"":0,""viewing_time"":4148},{""page_index"":1,""viewing_time"":50225},{""page_index"":2,""viewing_time"":7130},{""page_index"":3,""viewing_time"":2273}]","63778","","","","","","","","","","","","","","","","","","","",""
"","comprehension_check","","survey-multi-choice","2","103525","0.0-1.0-0.0-1.0","0","0","76981","","31172","{""Q0"":""True"",""Q1"":""True"",""Q2"":""When you see the prompt 'MAKE A CHOICE' after the second image was presented"",""Q3"":""Green mark"",""Q4"":""either D or K""}","0","","","","","","","","","","","","","","","","","",""
"","start_exp","","html-keyboard-response","3","105403","0.0-1.0-1.0","0","0","76981","","1874","","","32","","","","","","","","","","","","","","","","",""
"","S1","","html-keyboard-response","4","105656","0.0-1.0-2.0","0","0","76981","","null","","","null","0","","","","","","","","","","","","","","","",""
"","ISI","","html-keyboard-response","5","107658","0.0-1.0-3.0","0","0","76981","","null","","","null","0","NaN","","","","","","","","","","","","","","",""
"","S2","","html-keyboard-response","6","107911","0.0-1.0-4.0","0","0","76981","","null","","","null","0","","NaN","","","","","","","","","","","","","",""
"","response","","html-keyboard-response","7","108523","0.0-1.0-5.0","0","0","76981","","610","","","68","0","","","1","0","training","adjacent","AB","1","2","M.jpg","R.jpg","0","1","0","",""
"","feedback","","html-keyboard-response","8","109526","0.0-1.0-6.0-0.0","0","0","76981","","null","","","null","0","","","","","","","","","","","","","","","",""
"","time_out","","html-keyboard-response","9","111529","0.0-1.0-8.0-0.0","0","0","76981","","null","","","null","0","","","","","","","","","","","","","","","",""
"","ITI","","html-keyboard-response","10","112531","0.0-1.0-9.0","0","0","76981","","null","","","null","0","","","","","","","","","","","","","","","NaN",""
"","S1","","html-keyboard-response","11","112784","0.0-1.0-11.0","0","0","76981","","null","","","null","1","","","","","","","","","","","","","","","",""
"","ISI","","html-keyboard-response","12","114786","0.0-1.0-12.0","0","0","76981","","null","","","null","1","NaN","","","","","","","","","","","","","","",""
"","S2","","html-keyboard-response","13","115039","0.0-1.0-13.0","0","0","76981","","null","","","null","1","","NaN","","","","","","","","","","","","","",""
"","response","","html-keyboard-response","14","115512","0.0-1.0-14.0","0","0","76981","","471","","","75","1","","","1","1","training","adjacent","DC","4","3","P.jpg","L.jpg","1","0","0","",""
"","feedback","","html-keyboard-response","15","116515","0.0-1.0-15.0-0.0","0","0","76981","","null","","","null","1","","","","","","","","","","","","","","","",""
"","time_out","","html-keyboard-response","16","118516","0.0-1.0-17.0-0.0","0","0","76981","","null","","","null","1","","","","","","","","","","","","","","","",""
"","ITI","","html-keyboard-response","17","119519","0.0-1.0-18.0","0","0","76981","","null","","","null","1","","","","","","","","","","","","","","","NaN",""
"","S1","","html-keyboard-response","18","119771","0.0-1.0-20.0","0","0","76981","","null","","","null","2","","","","","","","","","","","","","","","",""
"","ISI","","html-keyboard-response","19","121774","0.0-1.0-21.0","0","0","76981","","null","","","null","2","NaN","","","","","","","","","","","","","","",""
"","S2","","html-keyboard-response","20","122026","0.0-1.0-22.0","0","0","76981","","null","","","null","2","","NaN","","","","","","","","","","","","","",""
"","response","","html-keyboard-response","21","122401","0.0-1.0-23.0","0","0","76981","","373","","","68","2","","","1","2","training","adjacent","CD","3","4","L.jpg","P.jpg","0","1","0","",""
"","feedback","","html-keyboard-response","22","123404","0.0-1.0-24.0-0.0","0","0","76981","","null","","","null","2","","","","","","","","","","","","","","","",""
"","time_out","","html-keyboard-response","23","125406","0.0-1.0-26.0-0.0","0","0","76981","","null","","","null","2","","","","","","","","","","","","","","","",""
"","ITI","","html-keyboard-response","24","126409","0.0-1.0-27.0","0","0","76981","","null","","","null","2","","","","","","","","","","","","","","","NaN",""
"","S1","","html-keyboard-response","25","126661","0.0-1.0-29.0","0","0","76981","","null","","","null","3","","","","","","","","","","","","","","","",""
"","ISI","","html-keyboard-response","26","128664","0.0-1.0-30.0","0","0","76981","","null","","","null","3","NaN","","","","","","","","","","","","","","",""
"","S2","","html-keyboard-response","27","128916","0.0-1.0-31.0","0","0","76981","","null","","","null","3","","NaN","","","","","","","","","","","","","",""
"","response","","html-keyboard-response","28","129452","0.0-1.0-32.0","0","0","76981","","534","","","68","3","","","1","3","training","adjacent","BC","2","3","R.jpg","L.jpg","0","1","0","",""
"","feedback","","html-keyboard-response","29","130455","0.0-1.0-33.0-0.0","0","0","76981","","null","","","null","3","","","","","","","","","","","","","","","",""
"","time_out","","html-keyboard-response","30","132456","0.0-1.0-35.0-0.0","0","0","76981","","null","","","null","3","","","","","","","","","","","","","","","",""
"","ITI","","html-keyboard-response","31","133459","0.0-1.0-36.0","0","0","76981","","null","","","null","3","","","","","","","","","","","","","","","NaN",""
"","S1","","html-keyboard-response","32","133711","0.0-1.0-38.0","0","0","76981","","null","","","null","4","","","","","","","","","","","","","","","",""
"","ISI","","html-keyboard-response","33","135714","0.0-1.0-39.0","0","0","76981","","null","","","null","4","NaN","","","","","","","","","","","","","","",""
"","S2","","html-keyboard-response","34","135966","0.0-1.0-40.0","0","0","76981","","null","","","null","4","","NaN","","","","","","","","","","","","","",""
"","response","","html-keyboard-response","35","136352","0.0-1.0-41.0","0","0","76981","","384","","","75","4","","","1","4","training","adjacent","AB","1","2","M.jpg","R.jpg","1","1","1","",""
"","feedback","","html-keyboard-response","36","137354","0.0-1.0-42.0-0.0","0","0","76981","","null","","","null","4","","","","","","","","","","","","","","","",""
"","ITI","","html-keyboard-response","37","138357","0.0-1.0-45.0","0","0","76981","","null","","","null","4","","","","","","","","","","","","","","","NaN",""
"","S1","","html-keyboard-response","38","138609","0.0-1.0-47.0","0","0","76981","","null","","","null","5","","","","","","","","","","","","","","","",""
"","ISI","","html-keyboard-response","39","140612","0.0-1.0-48.0","0","0","76981","","null","","","null","5","NaN","","","","","","","","","","","","","","",""
"","S2","","html-keyboard-response","40","140865","0.0-1.0-49.0","0","0","76981","","null","","","null","5","","NaN","","","","","","","","","","","","","",""
"","response","","html-keyboard-response","41","141478","0.0-1.0-50.0","0","0","76981","","612","","","75","5","","","1","5","training","adjacent","EF","5","6","N.jpg","O.jpg","1","1","1","",""
"","feedback","","html-keyboard-response","42","142480","0.0-1.0-51.0-0.0","0","0","76981","","null","","","null","5","","","","","","","","","","","","","","","",""
"","ITI","","html-keyboard-response","43","143483","0.0-1.0-54.0","0","0","76981","","null","","","null","5","","","","","","","","","","","","","","","NaN",""
"","S1","","html-keyboard-response","44","143735","0.0-1.0-56.0","0","0","76981","","null","","","null","6","","","","","","","","","","","","","","","",""
"","ISI","","html-keyboard-response","45","145737","0.0-1.0-57.0","0","0","76981","","null","","","null","6","NaN","","","","","","","","","","","","","","",""
"","S2","","html-keyboard-response","46","145989","0.0-1.0-58.0","0","0","76981","","null","","","null","6","","NaN","","","","","","","","","","","","","",""
"","response","","html-keyboard-response","47","146127","0.0-1.0-59.0","0","0","76981","","136","","","75","6","","","1","6","training","adjacent","DE","4","5","P.jpg","N.jpg","1","1","1","",""
"","feedback","","html-keyboard-response","48","147130","0.0-1.0-60.0-0.0","0","0","76981","","null","","","null","6","","","","","","","","","","","","","","","",""
"","ITI","","html-keyboard-response","49","148133","0.0-1.0-63.0","0","0","76981","","null","","","null","6","","","","","","","","","","","","","","","NaN",""
"","S1","","html-keyboard-response","50","148385","0.0-1.0-65.0","0","0","76981","","null","","","null","7","","","","","","","","","","","","","","","",""
"","ISI","","html-keyboard-response","51","150387","0.0-1.0-66.0","0","0","76981","","null","","","null","7","NaN","","","","","","","","","","","","","","",""
"","S2","","html-keyboard-response","52","150642","0.0-1.0-67.0","0","0","76981","","null","","","null","7","","NaN","","","","","","","","","","","","","",""
"","response","","html-keyboard-response","53","151023","0.0-1.0-68.0","0","0","76981","","380","","","68","7","","","1","7","training","adjacent","EF","5","6","N.jpg","O.jpg","0","1","0","",""
"","feedback","","html-keyboard-response","54","152026","0.0-1.0-69.0-0.0","0","0","76981","","null","","","null","7","","","","","","","","","","","","","","","",""
"","time_out","","html-keyboard-response","55","154028","0.0-1.0-71.0-0.0","0","0","76981","","null","","","null","7","","","","","","","","","","","","","","","",""
"","ITI","","html-keyboard-response","56","155031","0.0-1.0-72.0","0","0","76981","","null","","","null","7","","","","","","","","","","","","","","","NaN",""
"","S1","","html-keyboard-response","57","155284","0.0-1.0-74.0","0","0","76981","","null","","","null","8","","","","","","","","","","","","","","","",""
"","ISI","","html-keyboard-response","58","157286","0.0-1.0-75.0","0","0","76981","","null","","","null","8","NaN","","","","","","","","","","","","","","",""
"","S2","","html-keyboard-response","59","157538","0.0-1.0-76.0","0","0","76981","","null","","","null","8","","NaN","","","","","","","","","","","","","",""
"","response","","html-keyboard-response","60","157688","0.0-1.0-77.0","0","0","76981","","148","","","75","8","","","1","8","training","adjacent","EF","5","6","N.jpg","O.jpg","1","1","1","",""
"","feedback","","html-keyboard-response","61","158691","0.0-1.0-78.0-0.0","0","0","76981","","null","","","null","8","","","","","","","","","","","","","","","",""
"","ITI","","html-keyboard-response","62","159693","0.0-1.0-81.0","0","0","76981","","null","","","null","8","","","","","","","","","","","","","","","NaN",""
"","S1","","html-keyboard-response","63","159946","0.0-1.0-83.0","0","0","76981","","null","","","null","9","","","","","","","","","","","","","","","",""
"","ISI","","html-keyboard-response","64","161947","0.0-1.0-84.0","0","0","76981","","null","","","null","9","NaN","","","","","","","","","","","","","","",""
"","S2","","html-keyboard-response","65","162201","0.0-1.0-85.0","0","0","76981","","null","","","null","9","","NaN","","","","","","","","","","","","","",""
"","response","","html-keyboard-response","66","162738","0.0-1.0-86.0","0","0","76981","","535","","","68","9","","","1","9","training","adjacent","ED","5","4","N.jpg","P.jpg","0","0","1","",""
"","feedback","","html-keyboard-response","67","163741","0.0-1.0-87.0-0.0","0","0","76981","","null","","","null","9","","","","","","","","","","","","","","","",""
"","ITI","","html-keyboard-response","68","164744","0.0-1.0-90.0","0","0","76981","","null","","","null","9","","","","","","","","","","","","","","","NaN",""
"","S1","","html-keyboard-response","69","164996","0.0-1.0-92.0","0","0","76981","","null","","","null","10","","","","","","","","","","","","","","","",""
"","ISI","","html-keyboard-response","70","166999","0.0-1.0-93.0","0","0","76981","","null","","","null","10","NaN","","","","","","","","","","","","","","",""
"","S2","","html-keyboard-response","71","167251","0.0-1.0-94.0","0","0","76981","","null","","","null","10","","NaN","","","","","","","","","","","","","",""
"","response","","html-keyboard-response","72","167565","0.0-1.0-95.0","0","0","76981","","312","","","75","10","","","1","10","training","adjacent","FE","6","5","O.jpg","N.jpg","1","0","0","",""
"","feedback","","html-keyboard-response","73","168567","0.0-1.0-96.0-0.0","0","0","76981","","null","","","null","10","","","","","","","","","","","","","","","",""
"","time_out","","html-keyboard-response","74","170569","0.0-1.0-98.0-0.0","0","0","76981","","null","","","null","10","","","","","","","","","","","","","","","",""
"","ITI","","html-keyboard-response","75","171571","0.0-1.0-99.0","0","0","76981","","null","","","null","10","","","","","","","","","","","","","","","NaN",""
"","S1","","html-keyboard-response","76","171824","0.0-1.0-101.0","0","0","76981","","null","","","null","11","","","","","","","","","","","","","","","",""
"","ISI","","html-keyboard-response","77","173827","0.0-1.0-102.0","0","0","76981","","null","","","null","11","NaN","","","","","","","","","","","","","","",""
"","S2","","html-keyboard-response","78","174079","0.0-1.0-103.0","0","0","76981","","null","","","null","11","","NaN","","","","","","","","","","","","","",""
"","response","","html-keyboard-response","79","174098","0.0-1.0-104.0","0","0","76981","","17","","","68","11","","","1","11","training","adjacent","GF","7","6","Q.jpg","O.jpg","0","0","1","",""
"","feedback","","html-keyboard-response","80","175102","0.0-1.0-105.0-0.0","0","0","76981","","null","","","null","11","","","","","","","","","","","","","","","",""
"","ITI","","html-keyboard-response","81","176104","0.0-1.0-108.0","0","0","76981","","null","","","null","11","","","","","","","","","","","","","","","NaN",""
"","S1","","html-keyboard-response","82","176357","0.0-1.0-110.0","0","0","76981","","null","","","null","12","","","","","","","","","","","","","","","",""
"","ISI","","html-keyboard-response","83","178359","0.0-1.0-111.0","0","0","76981","","null","","","null","12","NaN","","","","","","","","","","","","","","",""
"","S2","","html-keyboard-response","84","178612","0.0-1.0-112.0","0","0","76981","","null","","","null","12","","NaN","","","","","","","","","","","","","",""
"","response","","html-keyboard-response","85","180241","0.0-1.0-113.0","0","0","76981","","1628","","","68","12","","","1","12","training","adjacent","BA","2","1","R.jpg","M.jpg","0","0","1","",""
"","feedback","","html-keyboard-response","86","181244","0.0-1.0-114.0-0.0","0","0","76981","","null","","","null","12","","","","","","","","","","","","","","","",""
"","ITI","","html-keyboard-response","87","182246","0.0-1.0-117.0","0","0","76981","","null","","","null","12","","","","","","","","","","","","","","","NaN",""
"","S1","","html-keyboard-response","88","182498","0.0-1.0-119.0","0","0","76981","","null","","","null","13","","","","","","","","","","","","","","","",""
"","ISI","","html-keyboard-response","89","184501","0.0-1.0-120.0","0","0","76981","","null","","","null","13","NaN","","","","","","","","","","","","","","",""
"","S2","","html-keyboard-response","90","184754","0.0-1.0-121.0","0","0","76981","","null","","","null","13","","NaN","","","","","","","","","","","","","",""
"","response","","html-keyboard-response","91","185187","0.0-1.0-122.0","0","0","76981","","432","","","68","13","","","1","13","training","adjacent","BA","2","1","R.jpg","M.jpg","0","0","1","",""
"","feedback","","html-keyboard-response","92","186189","0.0-1.0-123.0-0.0","0","0","76981","","null","","","null","13","","","","","","","","","","","","","","","",""
"","ITI","","html-keyboard-response","93","187191","0.0-1.0-126.0","0","0","76981","","null","","","null","13","","","","","","","","","","","","","","","NaN",""
"","S1","","html-keyboard-response","94","187444","0.0-1.0-128.0","0","0","76981","","null","","","null","14","","","","","","","","","","","","","","","",""
"","ISI","","html-keyboard-response","95","189446","0.0-1.0-129.0","0","0","76981","","null","","","null","14","NaN","","","","","","","","","","","","","","",""
"","S2","","html-keyboard-response","96","189699","0.0-1.0-130.0","0","0","76981","","null","","","null","14","","NaN","","","","","","","","","","","","","",""
"","response","","html-keyboard-response","97","189747","0.0-1.0-131.0","0","0","76981","","47","","","75","14","","","1","14","training","adjacent","FE","6","5","O.jpg","N.jpg","1","0","0","",""
"","feedback","","html-keyboard-response","98","190750","0.0-1.0-132.0-0.0","0","0","76981","","null","","","null","14","","","","","","","","","","","","","","","",""
"","time_out","","html-keyboard-response","99","192752","0.0-1.0-134.0-0.0","0","0","76981","","null","","","null","14","","","","","","","","","","","","","","","",""
"","ITI","","html-keyboard-response","100","193754","0.0-1.0-135.0","0","0","76981","","null","","","null","14","","","","","","","","","","","","","","","NaN",""
"","S1","","html-keyboard-response","101","194006","0.0-1.0-137.0","0","0","76981","","null","","","null","15","","","","","","","","","","","","","","","",""
"","ISI","","html-keyboard-response","102","196008","0.0-1.0-138.0","0","0","76981","","null","","","null","15","NaN","","","","","","","","","","","","","","",""
"","S2","","html-keyboard-response","103","196265","0.0-1.0-139.0","0","0","76981","","null","","","null","15","","NaN","","","","","","","","","","","","","",""
"","response","","html-keyboard-response","104","196602","0.0-1.0-140.0","0","0","76981","","336","","","68","15","","","1","15","training","adjacent","CB","3","2","L.jpg","R.jpg","0","0","1","",""
"","feedback","","html-keyboard-response","105","197605","0.0-1.0-141.0-0.0","0","0","76981","","null","","","null","15","","","","","","","","","","","","","","","",""
"","ITI","","html-keyboard-response","106","198608","0.0-1.0-144.0","0","0","76981","","null","","","null","15","","","","","","","","","","","","","","","NaN",""
"","S1","","html-keyboard-response","107","198860","0.0-1.0-146.0","0","0","76981","","null","","","null","16","","","","","","","","","","","","","","","",""
"","ISI","","html-keyboard-response","108","200863","0.0-1.0-147.0","0","0","76981","","null","","","null","16","NaN","","","","","","","","","","","","","","",""
"","S2","","html-keyboard-response","109","201115","0.0-1.0-148.0","0","0","76981","","null","","","null","16","","NaN","","","","","","","","","","","","","",""
"","response","","html-keyboard-response","110","201177","0.0-1.0-149.0","0","0","76981","","60","","","75","16","","","1","16","training","adjacent","BC","2","3","R.jpg","L.jpg","1","1","1","",""
"","feedback","","html-keyboard-response","111","202179","0.0-1.0-150.0-0.0","0","0","76981","","null","","","null","16","","","","","","","","","","","","","","","",""
"","ITI","","html-keyboard-response","112","203182","0.0-1.0-153.0","0","0","76981","","null","","","null","16","","","","","","","","","","","","","","","NaN",""
"","S1","","html-keyboard-response","113","203434","0.0-1.0-155.0","0","0","76981","","null","","","null","17","","","","","","","","","","","","","","","",""
"","ISI","","html-keyboard-response","114","205436","0.0-1.0-156.0","0","0","76981","","null","","","null","17","NaN","","","","","","","","","","","","","","",""
"","S2","","html-keyboard-response","115","205689","0.0-1.0-157.0","0","0","76981","","null","","","null","17","","NaN","","","","","","","","","","","","","",""
"","response","","html-keyboard-response","116","206088","0.0-1.0-158.0","0","0","76981","","398","","","68","17","","","1","17","training","adjacent","FG","6","7","O.jpg","Q.jpg","0","1","0","",""
"","feedback","","html-keyboard-response","117","207091","0.0-1.0-159.0-0.0","0","0","76981","","null","","","null","17","","","","","","","","","","","","","","","",""
"","time_out","","html-keyboard-response","118","209093","0.0-1.0-161.0-0.0","0","0","76981","","null","","","null","17","","","","","","","","","","","","","","","",""
"","ITI","","html-keyboard-response","119","210095","0.0-1.0-162.0","0","0","76981","","null","","","null","17","","","","","","","","","","","","","","","NaN",""
"","S1","","html-keyboard-response","120","210347","0.0-1.0-164.0","0","0","76981","","null","","","null","18","","","","","","","","","","","","","","","",""
"","ISI","","html-keyboard-response","121","212351","0.0-1.0-165.0","0","0","76981","","1562","","","75","18","k","","","","","","","","","","","","","","",""
"","S2","","html-keyboard-response","122","212604","0.0-1.0-166.0","0","0","76981","","null","","","null","18","","NaN","","","","","","","","","","","","","",""
"","response","","html-keyboard-response","123","212647","0.0-1.0-167.0","0","0","76981","","42","","","75","18","","","1","18","training","adjacent","BC","2","3","R.jpg","L.jpg","1","1","1","",""
"","feedback","","html-keyboard-response","124","213649","0.0-1.0-168.0-0.0","0","0","76981","","null","","","null","18","","","","","","","","","","","","","","","",""
"","ITI","","html-keyboard-response","125","214652","0.0-1.0-171.0","0","0","76981","","null","","","null","18","","","","","","","","","","","","","","","NaN",""
"","S1","","html-keyboard-response","126","214905","0.0-1.0-173.0","0","0","76981","","null","","","null","19","","","","","","","","","","","","","","","",""
"","ISI","","html-keyboard-response","127","216907","0.0-1.0-174.0","0","0","76981","","null","","","null","19","NaN","","","","","","","","","","","","","","",""
"","S2","","html-keyboard-response","128","217161","0.0-1.0-175.0","0","0","76981","","null","","","null","19","","NaN","","","","","","","","","","","","","",""
"","response","","html-keyboard-response","129","218185","0.0-1.0-176.0","0","0","76981","","1023","","","75","19","","","1","19","training","adjacent","CB","3","2","L.jpg","R.jpg","1","0","0","",""
"","feedback","","html-keyboard-response","130","219187","0.0-1.0-177.0-0.0","0","0","76981","","null","","","null","19","","","","","","","","","","","","","","","",""
"","time_out","","html-keyboard-response","131","221188","0.0-1.0-179.0-0.0","0","0","76981","","null","","","null","19","","","","","","","","","","","","","","","",""
"","ITI","","html-keyboard-response","132","222191","0.0-1.0-180.0","0","0","76981","","null","","","null","19","","","","","","","","","","","","","","","NaN",""
"","S1","","html-keyboard-response","133","222443","0.0-1.0-182.0","0","0","76981","","null","","","null","20","","","","","","","","","","","","","","","",""
"","ISI","","html-keyboard-response","134","224445","0.0-1.0-183.0","0","0","76981","","null","","","null","20","NaN","","","","","","","","","","","","","","",""
"","S2","","html-keyboard-response","135","224697","0.0-1.0-184.0","0","0","76981","","null","","","null","20","","NaN","","","","","","","","","","","","","",""
"","response","","html-keyboard-response","136","226058","0.0-1.0-185.0","0","0","76981","","1359","","","68","20","","","1","20","training","adjacent","CB","3","2","L.jpg","R.jpg","0","0","1","",""
"","feedback","","html-keyboard-response","137","227060","0.0-1.0-186.0-0.0","0","0","76981","","null","","","null","20","","","","","","","","","","","","","","","",""
"","ITI","","html-keyboard-response","138","228063","0.0-1.0-189.0","0","0","76981","","null","","","null","20","","","","","","","","","","","","","","","NaN",""
"","S1","","html-keyboard-response","139","228315","0.0-1.0-191.0","0","0","76981","","null","","","null","21","","","","","","","","","","","","","","","",""
"","ISI","","html-keyboard-response","140","230317","0.0-1.0-192.0","0","0","76981","","null","","","null","21","NaN","","","","","","","","","","","","","","",""
"","S2","","html-keyboard-response","141","230570","0.0-1.0-193.0","0","0","76981","","null","","","null","21","","NaN","","","","","","","","","","","","","",""
"","response","","html-keyboard-response","142","231113","0.0-1.0-194.0","0","0","76981","","542","","","75","21","","","1","21","training","adjacent","ED","5","4","N.jpg","P.jpg","1","0","0","",""
"","feedback","","html-keyboard-response","143","232115","0.0-1.0-195.0-0.0","0","0","76981","","null","","","null","21","","","","","","","","","","","","","","","",""
"","time_out","","html-keyboard-response","144","234118","0.0-1.0-197.0-0.0","0","0","76981","","null","","","null","21","","","","","","","","","","","","","","","",""
"","ITI","","html-keyboard-response","145","235121","0.0-1.0-198.0","0","0","76981","","241","","","68","21","","","","","","","","","","","","","","","d",""
"","S1","","html-keyboard-response","146","235373","0.0-1.0-200.0","0","0","76981","","null","","","null","22","","","","","","","","","","","","","","","",""
"","ISI","","html-keyboard-response","147","237375","0.0-1.0-201.0","0","0","76981","","88","","","68","22","d","","","","","","","","","","","","","","",""
"","S2","","html-keyboard-response","148","237627","0.0-1.0-202.0","0","0","76981","","null","","","null","22","","NaN","","","","","","","","","","","","","",""
"","response","","html-keyboard-response","149","239593","0.0-1.0-203.0","0","0","76981","","1965","","","75","22","","","1","22","training","adjacent","BA","2","1","R.jpg","M.jpg","1","0","0","",""
"","feedback","","html-keyboard-response","150","240595","0.0-1.0-204.0-0.0","0","0","76981","","null","","","null","22","","","","","","","","","","","","","","","",""
"","time_out","","html-keyboard-response","151","242598","0.0-1.0-206.0-0.0","0","0","76981","","null","","","null","22","","","","","","","","","","","","","","","",""
"","ITI","","html-keyboard-response","152","243601","0.0-1.0-207.0","0","0","76981","","null","","","null","22","","","","","","","","","","","","","","","NaN",""
"","S1","","html-keyboard-response","153","243854","0.0-1.0-209.0","0","0","76981","","null","","","null","23","","","","","","","","","","","","","","","",""
"","ISI","","html-keyboard-response","154","245857","0.0-1.0-210.0","0","0","76981","","536","","","68","23","d","","","","","","","","","","","","","","",""
"","S2","","html-keyboard-response","155","246110","0.0-1.0-211.0","0","0","76981","","null","","","null","23","","NaN","","","","","","","","","","","","","",""
"","response","","html-keyboard-response","156","246152","0.0-1.0-212.0","0","0","76981","","40","","","68","23","","","1","23","training","adjacent","AB","1","2","M.jpg","R.jpg","0","1","0","",""
"","feedback","","html-keyboard-response","157","247155","0.0-1.0-213.0-0.0","0","0","76981","","null","","","null","23","","","","","","","","","","","","","","","",""
"","time_out","","html-keyboard-response","158","249157","0.0-1.0-215.0-0.0","0","0","76981","","null","","","null","23","","","","","","","","","","","","","","","",""
"","ITI","","html-keyboard-response","159","250159","0.0-1.0-216.0","0","0","76981","","null","","","null","23","","","","","","","","","","","","","","","NaN",""
"","S1","","html-keyboard-response","160","250412","0.0-1.0-218.0","0","0","76981","","null","","","null","24","","","","","","","","","","","","","","","",""
"","ISI","","html-keyboard-response","161","252414","0.0-1.0-219.0","0","0","76981","","366","","","75","24","k","","","","","","","","","","","","","","",""
"","S2","","html-keyboard-response","162","252667","0.0-1.0-220.0","0","0","76981","","null","","","null","24","","NaN","","","","","","","","","","","","","",""
"","response","","html-keyboard-response","163","253395","0.0-1.0-221.0","0","0","76981","","727","","","75","24","","","1","24","training","adjacent","AB","1","2","M.jpg","R.jpg","1","1","1","",""
"","feedback","","html-keyboard-response","164","254397","0.0-1.0-222.0-0.0","0","0","76981","","null","","","null","24","","","","","","","","","","","","","","","",""
"","ITI","","html-keyboard-response","165","255405","0.0-1.0-225.0","0","0","76981","","null","","","null","24","","","","","","","","","","","","","","","NaN",""
"","S1","","html-keyboard-response","166","255657","0.0-1.0-227.0","0","0","76981","","null","","","null","25","","","","","","","","","","","","","","","",""
"","ISI","","html-keyboard-response","167","257661","0.0-1.0-228.0","0","0","76981","","1334","","","68","25","d","","","","","","","","","","","","","","",""
"","S2","","html-keyboard-response","168","257914","0.0-1.0-229.0","0","0","76981","","null","","","null","25","","NaN","","","","","","","","","","","","","",""
"","response","","html-keyboard-response","169","257935","0.0-1.0-230.0","0","0","76981","","19","","","68","25","","","1","25","training","adjacent","BA","2","1","R.jpg","M.jpg","0","0","1","",""
"","feedback","","html-keyboard-response","170","258937","0.0-1.0-231.0-0.0","0","0","76981","","null","","","null","25","","","","","","","","","","","","","","","",""
"","ITI","","html-keyboard-response","171","259939","0.0-1.0-234.0","0","0","76981","","null","","","null","25","","","","","","","","","","","","","","","NaN",""
"","S1","","html-keyboard-response","172","260191","0.0-1.0-236.0","0","0","76981","","null","","","null","26","","","","","","","","","","","","","","","",""
"","ISI","","html-keyboard-response","173","262193","0.0-1.0-237.0","0","0","76981","","1219","","","75","26","k","","","","","","","","","","","","","","",""
"","S2","","html-keyboard-response","174","262445","0.0-1.0-238.0","0","0","76981","","250","","","75","26","","k","","","","","","","","","","","","","",""
"","response","","html-keyboard-response","175","263091","0.0-1.0-239.0","0","0","76981","","644","","","75","26","","","1","26","training","adjacent","FE","6","5","O.jpg","N.jpg","1","0","0","",""
"","feedback","","html-keyboard-response","176","264094","0.0-1.0-240.0-0.0","0","0","76981","","null","","","null","26","","","","","","","","","","","","","","","",""
"","time_out","","html-keyboard-response","177","266096","0.0-1.0-242.0-0.0","0","0","76981","","null","","","null","26","","","","","","","","","","","","","","","",""
"","ITI","","html-keyboard-response","178","267098","0.0-1.0-243.0","0","0","76981","","null","","","null","26","","","","","","","","","","","","","","","NaN",""
"","S1","","html-keyboard-response","179","267351","0.0-1.0-245.0","0","0","76981","","null","","","null","27","","","","","","","","","","","","","","","",""
"","ISI","","html-keyboard-response","180","269353","0.0-1.0-246.0","0","0","76981","","1982","","","75","27","k","","","","","","","","","","","","","","",""
"","S2","","html-keyboard-response","181","269606","0.0-1.0-247.0","0","0","76981","","null","","","null","27","","NaN","","","","","","","","","","","","","",""
"","response","","html-keyboard-response","182","270211","0.0-1.0-248.0","0","0","76981","","604","","","75","27","","","1","27","training","adjacent","DE","4","5","P.jpg","N.jpg","1","1","1","",""
"","feedback","","html-keyboard-response","183","271213","0.0-1.0-249.0-0.0","0","0","76981","","null","","","null","27","","","","","","","","","","","","","","","",""
"","ITI","","html-keyboard-response","184","272216","0.0-1.0-252.0","0","0","76981","","null","","","null","27","","","","","","","","","","","","","","","NaN",""
"","S1","","html-keyboard-response","185","272469","0.0-1.0-254.0","0","0","76981","","null","","","null","28","","","","","","","","","","","","","","","",""
"","ISI","","html-keyboard-response","186","274471","0.0-1.0-255.0","0","0","76981","","1573","","","68","28","d","","","","","","","","","","","","","","",""
"","S2","","html-keyboard-response","187","274723","0.0-1.0-256.0","0","0","76981","","241","","","68","28","","d","","","","","","","","","","","","","",""
"","response","","html-keyboard-response","188","275546","0.0-1.0-257.0","0","0","76981","","821","","","68","28","","","1","28","training","adjacent","ED","5","4","N.jpg","P.jpg","0","0","1","",""
"","feedback","","html-keyboard-response","189","276549","0.0-1.0-258.0-0.0","0","0","76981","","null","","","null","28","","","","","","","","","","","","","","","",""
"","ITI","","html-keyboard-response","190","277552","0.0-1.0-261.0","0","0","76981","","null","","","null","28","","","","","","","","","","","","","","","NaN",""
"","S1","","html-keyboard-response","191","277804","0.0-1.0-263.0","0","0","76981","","null","","","null","29","","","","","","","","","","","","","","","",""
"","ISI","","html-keyboard-response","192","279807","0.0-1.0-264.0","0","0","76981","","null","","","null","29","NaN","","","","","","","","","","","","","","",""
"","S2","","html-keyboard-response","193","280059","0.0-1.0-265.0","0","0","76981","","null","","","null","29","","NaN","","","","","","","","","","","","","",""
"","response","","html-keyboard-response","194","280091","0.0-1.0-266.0","0","0","76981","","30","","","75","29","","","1","29","training","adjacent","DC","4","3","P.jpg","L.jpg","1","0","0","",""
"","feedback","","html-keyboard-response","195","281094","0.0-1.0-267.0-0.0","0","0","76981","","null","","","null","29","","","","","","","","","","","","","","","",""
"","time_out","","html-keyboard-response","196","283096","0.0-1.0-269.0-0.0","0","0","76981","","null","","","null","29","","","","","","","","","","","","","","","",""
"","ITI","","html-keyboard-response","197","284098","0.0-1.0-270.0","0","0","76981","","null","","","null","29","","","","","","","","","","","","","","","NaN",""
"","S1","","html-keyboard-response","198","284350","0.0-1.0-272.0","0","0","76981","","null","","","null","30","","","","","","","","","","","","","","","",""
"","ISI","","html-keyboard-response","199","286353","0.0-1.0-273.0","0","0","76981","","1231","","","68","30","d","","","","","","","","","","","","","","",""
"","S2","","html-keyboard-response","200","286605","0.0-1.0-274.0","0","0","76981","","null","","","null","30","","NaN","","","","","","","","","","","","","",""
"","response","","html-keyboard-response","201","287541","0.0-1.0-275.0","0","0","76981","","935","","","68","30","","","1","30","training","adjacent","FG","6","7","O.jpg","Q.jpg","0","1","0","",""
"","feedback","","html-keyboard-response","202","288543","0.0-1.0-276.0-0.0","0","0","76981","","null","","","null","30","","","","","","","","","","","","","","","",""
"","time_out","","html-keyboard-response","203","290545","0.0-1.0-278.0-0.0","0","0","76981","","null","","","null","30","","","","","","","","","","","","","","","",""
"","ITI","","html-keyboard-response","204","291548","0.0-1.0-279.0","0","0","76981","","null","","","null","30","","","","","","","","","","","","","","","NaN",""
"","S1","","html-keyboard-response","205","291800","0.0-1.0-281.0","0","0","76981","","null","","","null","31","","","","","","","","","","","","","","","",""
"","ISI","","html-keyboard-response","206","293803","0.0-1.0-282.0","0","0","76981","","1862","","","75","31","k","","","","","","","","","","","","","","",""
"","S2","","html-keyboard-response","207","294055","0.0-1.0-283.0","0","0","76981","","null","","","null","31","","NaN","","","","","","","","","","","","","",""
"","response","","html-keyboard-response","208","294120","0.0-1.0-284.0","0","0","76981","","63","","","75","31","","","1","31","training","adjacent","GF","7","6","Q.jpg","O.jpg","1","0","0","",""
"","feedback","","html-keyboard-response","209","295123","0.0-1.0-285.0-0.0","0","0","76981","","null","","","null","31","","","","","","","","","","","","","","","",""
"","time_out","","html-keyboard-response","210","297124","0.0-1.0-287.0-0.0","0","0","76981","","null","","","null","31","","","","","","","","","","","","","","","",""
"","ITI","","html-keyboard-response","211","298127","0.0-1.0-288.0","0","0","76981","","null","","","null","31","","","","","","","","","","","","","","","NaN",""
"","S1","","html-keyboard-response","212","298379","0.0-1.0-290.0","0","0","76981","","null","","","null","32","","","","","","","","","","","","","","","",""
"","ISI","","html-keyboard-response","213","300382","0.0-1.0-291.0","0","0","76981","","58","","","68","32","d","","","","","","","","","","","","","","",""
"","S2","","html-keyboard-response","214","300634","0.0-1.0-292.0","0","0","76981","","null","","","null","32","","NaN","","","","","","","","","","","","","",""
"","response","","html-keyboard-response","215","301089","0.0-1.0-293.0","0","0","76981","","453","","","75","32","","","1","32","training","adjacent","CD","3","4","L.jpg","P.jpg","1","1","1","",""
"","feedback","","html-keyboard-response","216","302092","0.0-1.0-294.0-0.0","0","0","76981","","null","","","null","32","","","","","","","","","","","","","","","",""
"","ITI","","html-keyboard-response","217","303094","0.0-1.0-297.0","0","0","76981","","null","","","null","32","","","","","","","","","","","","","","","NaN",""
"","S1","","html-keyboard-response","218","303347","0.0-1.0-299.0","0","0","76981","","null","","","null","33","","","","","","","","","","","","","","","",""
"","ISI","","html-keyboard-response","219","305349","0.0-1.0-300.0","0","0","76981","","null","","","null","33","NaN","","","","","","","","","","","","","","",""
"","S2","","html-keyboard-response","220","305602","0.0-1.0-301.0","0","0","76981","","null","","","null","33","","NaN","","","","","","","","","","","","","",""
"","response","","html-keyboard-response","221","306586","0.0-1.0-302.0","0","0","76981","","983","","","68","33","","","1","33","training","adjacent","CB","3","2","L.jpg","R.jpg","0","0","1","",""
"","feedback","","html-keyboard-response","222","307588","0.0-1.0-303.0-0.0","0","0","76981","","null","","","null","33","","","","","","","","","","","","","","","",""
"","ITI","","html-keyboard-response","223","308591","0.0-1.0-306.0","0","0","76981","","null","","","null","33","","","","","","","","","","","","","","","NaN",""
"","S1","","html-keyboard-response","224","308844","0.0-1.0-308.0","0","0","76981","","null","","","null","34","","","","","","","","","","","","","","","",""
"","ISI","","html-keyboard-response","225","310846","0.0-1.0-309.0","0","0","76981","","null","","","null","34","NaN","","","","","","","","","","","","","","",""
"","S2","","html-keyboard-response","226","311099","0.0-1.0-310.0","0","0","76981","","null","","","null","34","","NaN","","","","","","","","","","","","","",""
"","response","","html-keyboard-response","227","311562","0.0-1.0-311.0","0","0","76981","","462","","","75","34","","","1","34","training","adjacent","GF","7","6","Q.jpg","O.jpg","1","0","0","",""
"","feedback","","html-keyboard-response","228","312564","0.0-1.0-312.0-0.0","0","0","76981","","null","","","null","34","","","","","","","","","","","","","","","",""
"","time_out","","html-keyboard-response","229","314567","0.0-1.0-314.0-0.0","0","0","76981","","null","","","null","34","","","","","","","","","","","","","","","",""
"","ITI","","html-keyboard-response","230","315569","0.0-1.0-315.0","0","0","76981","","null","","","null","34","","","","","","","","","","","","","","","NaN",""
"","S1","","html-keyboard-response","231","315822","0.0-1.0-317.0","0","0","76981","","null","","","null","35","","","","","","","","","","","","","","","",""
"","ISI","","html-keyboard-response","232","317823","0.0-1.0-318.0","0","0","76981","","null","","","null","35","NaN","","","","","","","","","","","","","","",""
"","S2","","html-keyboard-response","233","318076","0.0-1.0-319.0","0","0","76981","","null","","","null","35","","NaN","","","","","","","","","","","","","",""
"","response","","html-keyboard-response","234","318488","0.0-1.0-320.0","0","0","76981","","410","","","68","35","","","1","35","training","adjacent","BC","2","3","R.jpg","L.jpg","0","1","0","",""
"","feedback","","html-keyboard-response","235","319490","0.0-1.0-321.0-0.0","0","0","76981","","null","","","null","35","","","","","","","","","","","","","","","",""
"","time_out","","html-keyboard-response","236","321492","0.0-1.0-323.0-0.0","0","0","76981","","null","","","null","35","","","","","","","","","","","","","","","",""
"","ITI","","html-keyboard-response","237","322494","0.0-1.0-324.0","0","0","76981","","null","","","null","35","","","","","","","","","","","","","","","NaN",""
"","S1","","html-keyboard-response","238","322747","0.0-1.0-326.0","0","0","76981","","null","","","null","36","","","","","","","","","","","","","","","",""
"","ISI","","html-keyboard-response","239","324749","0.0-1.0-327.0","0","0","76981","","null","","","null","36","NaN","","","","","","","","","","","","","","",""
"","S2","","html-keyboard-response","240","325002","0.0-1.0-328.0","0","0","76981","","null","","","null","36","","NaN","","","","","","","","","","","","","",""
"","response","","html-keyboard-response","241","325738","0.0-1.0-329.0","0","0","76981","","734","","","75","36","","","1","36","training","adjacent","DE","4","5","P.jpg","N.jpg","1","1","1","",""
"","feedback","","html-keyboard-response","242","326742","0.0-1.0-330.0-0.0","0","0","76981","","null","","","null","36","","","","","","","","","","","","","","","",""
"","ITI","","html-keyboard-response","243","327744","0.0-1.0-333.0","0","0","76981","","null","","","null","36","","","","","","","","","","","","","","","NaN",""
"","S1","","html-keyboard-response","244","327996","0.0-1.0-335.0","0","0","76981","","null","","","null","37","","","","","","","","","","","","","","","",""
"","ISI","","html-keyboard-response","245","329999","0.0-1.0-336.0","0","0","76981","","null","","","null","37","NaN","","","","","","","","","","","","","","",""
"","S2","","html-keyboard-response","246","330252","0.0-1.0-337.0","0","0","76981","","null","","","null","37","","NaN","","","","","","","","","","","","","",""
"","response","","html-keyboard-response","247","330990","0.0-1.0-338.0","0","0","76981","","737","","","75","37","","","1","37","training","adjacent","CD","3","4","L.jpg","P.jpg","1","1","1","",""
"","feedback","","html-keyboard-response","248","331993","0.0-1.0-339.0-0.0","0","0","76981","","null","","","null","37","","","","","","","","","","","","","","","",""
"","ITI","","html-keyboard-response","249","332994","0.0-1.0-342.0","0","0","76981","","null","","","null","37","","","","","","","","","","","","","","","NaN",""
"","S1","","html-keyboard-response","250","333247","0.0-1.0-344.0","0","0","76981","","null","","","null","38","","","","","","","","","","","","","","","",""
"","ISI","","html-keyboard-response","251","335249","0.0-1.0-345.0","0","0","76981","","null","","","null","38","NaN","","","","","","","","","","","","","","",""
"","S2","","html-keyboard-response","252","335502","0.0-1.0-346.0","0","0","76981","","null","","","null","38","","NaN","","","","","","","","","","","","","",""
"","response","","html-keyboard-response","253","336116","0.0-1.0-347.0","0","0","76981","","613","","","75","38","","","1","38","training","adjacent","FG","6","7","O.jpg","Q.jpg","1","1","1","",""
"","feedback","","html-keyboard-response","254","337119","0.0-1.0-348.0-0.0","0","0","76981","","null","","","null","38","","","","","","","","","","","","","","","",""
"","ITI","","html-keyboard-response","255","338121","0.0-1.0-351.0","0","0","76981","","null","","","null","38","","","","","","","","","","","","","","","NaN",""
"","S1","","html-keyboard-response","256","338374","0.0-1.0-353.0","0","0","76981","","null","","","null","39","","","","","","","","","","","","","","","",""
"","ISI","","html-keyboard-response","257","340375","0.0-1.0-354.0","0","0","76981","","null","","","null","39","NaN","","","","","","","","","","","","","","",""
"","S2","","html-keyboard-response","258","340628","0.0-1.0-355.0","0","0","76981","","null","","","null","39","","NaN","","","","","","","","","","","","","",""
"","response","","html-keyboard-response","259","341091","0.0-1.0-356.0","0","0","76981","","461","","","75","39","","","1","39","training","adjacent","DC","4","3","P.jpg","L.jpg","1","0","0","",""
"","feedback","","html-keyboard-response","260","342093","0.0-1.0-357.0-0.0","0","0","76981","","null","","","null","39","","","","","","","","","","","","","","","",""
"","time_out","","html-keyboard-response","261","344096","0.0-1.0-359.0-0.0","0","0","76981","","null","","","null","39","","","","","","","","","","","","","","","",""
"","ITI","","html-keyboard-response","262","345098","0.0-1.0-360.0","0","0","76981","","null","","","null","39","","","","","","","","","","","","","","","NaN",""
"","block_over","","html-keyboard-response","263","549452","0.0-1.0-361.0-0.0","0","0","76981","","204351","","","32","39","","","","","","","","","","","","","","","",""
"","S1","","html-keyboard-response","264","549704","0.0-1.0-362.0","0","0","76981","","null","","","null","40","","","","","","","","","","","","","","","",""
"","ISI","","html-keyboard-response","265","551706","0.0-1.0-363.0","0","0","76981","","null","","","null","40","NaN","","","","","","","","","","","","","","",""
"","S2","","html-keyboard-response","266","551959","0.0-1.0-364.0","0","0","76981","","null","","","null","40","","NaN","","","","","","","","","","","","","",""
"","response","","html-keyboard-response","267","552197","0.0-1.0-365.0","0","0","76981","","236","","","75","40","","","2","40","training","adjacent","DE","4","5","P.jpg","N.jpg","1","1","1","",""
"","feedback","","html-keyboard-response","268","553200","0.0-1.0-366.0-0.0","0","0","76981","","null","","","null","40","","","","","","","","","","","","","","","",""
"","ITI","","html-keyboard-response","269","554202","0.0-1.0-369.0","0","0","76981","","null","","","null","40","","","","","","","","","","","","","","","NaN",""
"","S1","","html-keyboard-response","270","554455","0.0-1.0-371.0","0","0","76981","","null","","","null","41","","","","","","","","","","","","","","","",""
"","ISI","","html-keyboard-response","271","556456","0.0-1.0-372.0","0","0","76981","","null","","","null","41","NaN","","","","","","","","","","","","","","",""
"","S2","","html-keyboard-response","272","556709","0.0-1.0-373.0","0","0","76981","","null","","","null","41","","NaN","","","","","","","","","","","","","",""
"","response","","html-keyboard-response","273","557218","0.0-1.0-374.0","0","0","76981","","508","","","75","41","","","2","41","training","adjacent","BC","2","3","R.jpg","L.jpg","1","1","1","",""
"","feedback","","html-keyboard-response","274","558231","0.0-1.0-375.0-0.0","0","0","76981","","null","","","null","41","","","","","","","","","","","","","","","",""
"","ITI","","html-keyboard-response","275","559233","0.0-1.0-378.0","0","0","76981","","null","","","null","41","","","","","","","","","","","","","","","NaN",""
"","S1","","html-keyboard-response","276","559486","0.0-1.0-380.0","0","0","76981","","null","","","null","42","","","","","","","","","","","","","","","",""
"","ISI","","html-keyboard-response","277","561487","0.0-1.0-381.0","0","0","76981","","null","","","null","42","NaN","","","","","","","","","","","","","","",""
"","S2","","html-keyboard-response","278","561741","0.0-1.0-382.0","0","0","76981","","null","","","null","42","","NaN","","","","","","","","","","","","","",""
"","response","","html-keyboard-response","279","562184","0.0-1.0-383.0","0","0","76981","","442","","","75","42","","","2","42","training","adjacent","FG","6","7","O.jpg","Q.jpg","1","1","1","",""
"","feedback","","html-keyboard-response","280","563186","0.0-1.0-384.0-0.0","0","0","76981","","null","","","null","42","","","","","","","","","","","","","","","",""
"","ITI","","html-keyboard-response","281","564189","0.0-1.0-387.0","0","0","76981","","null","","","null","42","","","","","","","","","","","","","","","NaN",""
"","S1","","html-keyboard-response","282","564442","0.0-1.0-389.0","0","0","76981","","null","","","null","43","","","","","","","","","","","","","","","",""
"","ISI","","html-keyboard-response","283","566444","0.0-1.0-390.0","0","0","76981","","null","","","null","43","NaN","","","","","","","","","","","","","","",""
"","S2","","html-keyboard-response","284","566696","0.0-1.0-391.0","0","0","76981","","null","","","null","43","","NaN","","","","","","","","","","","","","",""
"","response","","html-keyboard-response","285","567130","0.0-1.0-392.0","0","0","76981","","432","","","75","43","","","2","43","training","adjacent","CD","3","4","L.jpg","P.jpg","1","1","1","",""
"","feedback","","html-keyboard-response","286","568132","0.0-1.0-393.0-0.0","0","0","76981","","null","","","null","43","","","","","","","","","","","","","","","",""
"","ITI","","html-keyboard-response","287","569144","0.0-1.0-396.0","0","0","76981","","null","","","null","43","","","","","","","","","","","","","","","NaN",""
"","S1","","html-keyboard-response","288","569397","0.0-1.0-398.0","0","0","76981","","null","","","null","44","","","","","","","","","","","","","","","",""
"","ISI","","html-keyboard-response","289","571399","0.0-1.0-399.0","0","0","76981","","null","","","null","44","NaN","","","","","","","","","","","","","","",""
"","S2","","html-keyboard-response","290","571652","0.0-1.0-400.0","0","0","76981","","null","","","null","44","","NaN","","","","","","","","","","","","","",""
"","response","","html-keyboard-response","291","572210","0.0-1.0-401.0","0","0","76981","","556","","","75","44","","","2","44","training","adjacent","CB","3","2","L.jpg","R.jpg","1","0","0","",""
"","feedback","","html-keyboard-response","292","573213","0.0-1.0-402.0-0.0","0","0","76981","","null","","","null","44","","","","","","","","","","","","","","","",""
"","time_out","","html-keyboard-response","293","575215","0.0-1.0-404.0-0.0","0","0","76981","","null","","","null","44","","","","","","","","","","","","","","","",""
"","ITI","","html-keyboard-response","294","576227","0.0-1.0-405.0","0","0","76981","","null","","","null","44","","","","","","","","","","","","","","","NaN",""
"","S1","","html-keyboard-response","295","576480","0.0-1.0-407.0","0","0","76981","","null","","","null","45","","","","","","","","","","","","","","","",""
"","ISI","","html-keyboard-response","296","578483","0.0-1.0-408.0","0","0","76981","","null","","","null","45","NaN","","","","","","","","","","","","","","",""
"","S2","","html-keyboard-response","297","578735","0.0-1.0-409.0","0","0","76981","","null","","","null","45","","NaN","","","","","","","","","","","","","",""
"","response","","html-keyboard-response","298","579040","0.0-1.0-410.0","0","0","76981","","303","","","68","45","","","2","45","training","adjacent","EF","5","6","N.jpg","O.jpg","0","1","0","",""
"","feedback","","html-keyboard-response","299","580042","0.0-1.0-411.0-0.0","0","0","76981","","null","","","null","45","","","","","","","","","","","","","","","",""
"","time_out","","html-keyboard-response","300","582045","0.0-1.0-413.0-0.0","0","0","76981","","null","","","null","45","","","","","","","","","","","","","","","",""
"","ITI","","html-keyboard-response","301","583047","0.0-1.0-414.0","0","0","76981","","null","","","null","45","","","","","","","","","","","","","","","NaN",""
"","S1","","html-keyboard-response","302","583310","0.0-1.0-416.0","0","0","76981","","null","","","null","46","","","","","","","","","","","","","","","",""
"","ISI","","html-keyboard-response","303","585312","0.0-1.0-417.0","0","0","76981","","539","","","75","46","k","","","","","","","","","","","","","","",""
"","S2","","html-keyboard-response","304","585565","0.0-1.0-418.0","0","0","76981","","null","","","null","46","","NaN","","","","","","","","","","","","","",""
"","response","","html-keyboard-response","305","586300","0.0-1.0-419.0","0","0","76981","","733","","","75","46","","","2","46","training","adjacent","CB","3","2","L.jpg","R.jpg","1","0","0","",""
"","feedback","","html-keyboard-response","306","587302","0.0-1.0-420.0-0.0","0","0","76981","","null","","","null","46","","","","","","","","","","","","","","","",""
"","time_out","","html-keyboard-response","307","589305","0.0-1.0-422.0-0.0","0","0","76981","","null","","","null","46","","","","","","","","","","","","","","","",""
"","ITI","","html-keyboard-response","308","590308","0.0-1.0-423.0","0","0","76981","","null","","","null","46","","","","","","","","","","","","","","","NaN",""
"","S1","","html-keyboard-response","309","590561","0.0-1.0-425.0","0","0","76981","","null","","","null","47","","","","","","","","","","","","","","","",""
"","ISI","","html-keyboard-response","310","592563","0.0-1.0-426.0","0","0","76981","","null","","","null","47","NaN","","","","","","","","","","","","","","",""
"","S2","","html-keyboard-response","311","592816","0.0-1.0-427.0","0","0","76981","","null","","","null","47","","NaN","","","","","","","","","","","","","",""
"","response","","html-keyboard-response","312","593470","0.0-1.0-428.0","0","0","76981","","652","","","68","47","","","2","47","training","adjacent","DC","4","3","P.jpg","L.jpg","0","0","1","",""
"","feedback","","html-keyboard-response","313","594472","0.0-1.0-429.0-0.0","0","0","76981","","null","","","null","47","","","","","","","","","","","","","","","",""
"","ITI","","html-keyboard-response","314","595474","0.0-1.0-432.0","0","0","76981","","null","","","null","47","","","","","","","","","","","","","","","NaN",""
"","S1","","html-keyboard-response","315","595726","0.0-1.0-434.0","0","0","76981","","null","","","null","48","","","","","","","","","","","","","","","",""
"","ISI","","html-keyboard-response","316","597729","0.0-1.0-435.0","0","0","76981","","null","","","null","48","NaN","","","","","","","","","","","","","","",""
"","S2","","html-keyboard-response","317","597981","0.0-1.0-436.0","0","0","76981","","null","","","null","48","","NaN","","","","","","","","","","","","","",""
"","response","","html-keyboard-response","318","598546","0.0-1.0-437.0","0","0","76981","","562","","","68","48","","","2","48","training","adjacent","ED","5","4","N.jpg","P.jpg","0","0","1","",""
"","feedback","","html-keyboard-response","319","599548","0.0-1.0-438.0-0.0","0","0","76981","","null","","","null","48","","","","","","","","","","","","","","","",""
"","ITI","","html-keyboard-response","320","600552","0.0-1.0-441.0","0","0","76981","","null","","","null","48","","","","","","","","","","","","","","","NaN",""
"","S1","","html-keyboard-response","321","600804","0.0-1.0-443.0","0","0","76981","","null","","","null","49","","","","","","","","","","","","","","","",""
"","ISI","","html-keyboard-response","322","602807","0.0-1.0-444.0","0","0","76981","","null","","","null","49","NaN","","","","","","","","","","","","","","",""
"","S2","","html-keyboard-response","323","603059","0.0-1.0-445.0","0","0","76981","","null","","","null","49","","NaN","","","","","","","","","","","","","",""
"","response","","html-keyboard-response","324","603611","0.0-1.0-446.0","0","0","76981","","551","","","75","49","","","2","49","training","adjacent","DE","4","5","P.jpg","N.jpg","1","1","1","",""
"","feedback","","html-keyboard-response","325","604613","0.0-1.0-447.0-0.0","0","0","76981","","null","","","null","49","","","","","","","","","","","","","","","",""
"","ITI","","html-keyboard-response","326","605616","0.0-1.0-450.0","0","0","76981","","null","","","null","49","","","","","","","","","","","","","","","NaN",""
"","S1","","html-keyboard-response","327","605869","0.0-1.0-452.0","0","0","76981","","null","","","null","50","","","","","","","","","","","","","","","",""
"","ISI","","html-keyboard-response","328","607871","0.0-1.0-453.0","0","0","76981","","null","","","null","50","NaN","","","","","","","","","","","","","","",""
"","S2","","html-keyboard-response","329","608124","0.0-1.0-454.0","0","0","76981","","null","","","null","50","","NaN","","","","","","","","","","","","","",""
"","response","","html-keyboard-response","330","608450","0.0-1.0-455.0","0","0","76981","","325","","","75","50","","","2","50","training","adjacent","FG","6","7","O.jpg","Q.jpg","1","1","1","",""
"","feedback","","html-keyboard-response","331","609452","0.0-1.0-456.0-0.0","0","0","76981","","null","","","null","50","","","","","","","","","","","","","","","",""
"","ITI","","html-keyboard-response","332","610455","0.0-1.0-459.0","0","0","76981","","null","","","null","50","","","","","","","","","","","","","","","NaN",""
"","S1","","html-keyboard-response","333","610708","0.0-1.0-461.0","0","0","76981","","null","","","null","51","","","","","","","","","","","","","","","",""
"","ISI","","html-keyboard-response","334","612710","0.0-1.0-462.0","0","0","76981","","null","","","null","51","NaN","","","","","","","","","","","","","","",""
"","S2","","html-keyboard-response","335","612962","0.0-1.0-463.0","0","0","76981","","null","","","null","51","","NaN","","","","","","","","","","","","","",""
"","response","","html-keyboard-response","336","613345","0.0-1.0-464.0","0","0","76981","","381","","","75","51","","","2","51","training","adjacent","CD","3","4","L.jpg","P.jpg","1","1","1","",""
"","feedback","","html-keyboard-response","337","614348","0.0-1.0-465.0-0.0","0","0","76981","","null","","","null","51","","","","","","","","","","","","","","","",""
"","ITI","","html-keyboard-response","338","615351","0.0-1.0-468.0","0","0","76981","","401","","","255","51","","","","","","","","","","","","","","","",""
"","S1","","html-keyboard-response","339","615603","0.0-1.0-470.0","0","0","76981","","null","","","null","52","","","","","","","","","","","","","","","",""
"","ISI","","html-keyboard-response","340","617605","0.0-1.0-471.0","0","0","76981","","null","","","null","52","NaN","","","","","","","","","","","","","","",""
"","S2","","html-keyboard-response","341","617857","0.0-1.0-472.0","0","0","76981","","null","","","null","52","","NaN","","","","","","","","","","","","","",""
"","response","","html-keyboard-response","342","617924","0.0-1.0-473.0","0","0","76981","","65","","","68","52","","","2","52","training","adjacent","ED","5","4","N.jpg","P.jpg","0","0","1","",""
"","feedback","","html-keyboard-response","343","618927","0.0-1.0-474.0-0.0","0","0","76981","","null","","","null","52","","","","","","","","","","","","","","","",""
"","ITI","","html-keyboard-response","344","619929","0.0-1.0-477.0","0","0","76981","","null","","","null","52","","","","","","","","","","","","","","","NaN",""
"","S1","","html-keyboard-response","345","620182","0.0-1.0-479.0","0","0","76981","","null","","","null","53","","","","","","","","","","","","","","","",""
"","ISI","","html-keyboard-response","346","622184","0.0-1.0-480.0","0","0","76981","","null","","","null","53","NaN","","","","","","","","","","","","","","",""
"","S2","","html-keyboard-response","347","622437","0.0-1.0-481.0","0","0","76981","","null","","","null","53","","NaN","","","","","","","","","","","","","",""
"","response","","html-keyboard-response","348","622818","0.0-1.0-482.0","0","0","76981","","380","","","75","53","","","2","53","training","adjacent","GF","7","6","Q.jpg","O.jpg","1","0","0","",""
"","feedback","","html-keyboard-response","349","623821","0.0-1.0-483.0-0.0","0","0","76981","","null","","","null","53","","","","","","","","","","","","","","","",""
"","time_out","","html-keyboard-response","350","625823","0.0-1.0-485.0-0.0","0","0","76981","","null","","","null","53","","","","","","","","","","","","","","","",""
"","ITI","","html-keyboard-response","351","626826","0.0-1.0-486.0","0","0","76981","","null","","","null","53","","","","","","","","","","","","","","","NaN",""
"","S1","","html-keyboard-response","352","627078","0.0-1.0-488.0","0","0","76981","","null","","","null","54","","","","","","","","","","","","","","","",""
"","ISI","","html-keyboard-response","353","629081","0.0-1.0-489.0","0","0","76981","","null","","","null","54","NaN","","","","","","","","","","","","","","",""
"","S2","","html-keyboard-response","354","629333","0.0-1.0-490.0","0","0","76981","","null","","","null","54","","NaN","","","","","","","","","","","","","",""
"","response","","html-keyboard-response","355","629716","0.0-1.0-491.0","0","0","76981","","382","","","68","54","","","2","54","training","adjacent","DE","4","5","P.jpg","N.jpg","0","1","0","",""
"","feedback","","html-keyboard-response","356","630718","0.0-1.0-492.0-0.0","0","0","76981","","null","","","null","54","","","","","","","","","","","","","","","",""
"","time_out","","html-keyboard-response","357","632721","0.0-1.0-494.0-0.0","0","0","76981","","null","","","null","54","","","","","","","","","","","","","","","",""
"","ITI","","html-keyboard-response","358","633722","0.0-1.0-495.0","0","0","76981","","null","","","null","54","","","","","","","","","","","","","","","NaN",""
"","S1","","html-keyboard-response","359","633975","0.0-1.0-497.0","0","0","76981","","null","","","null","55","","","","","","","","","","","","","","","",""
"","ISI","","html-keyboard-response","360","635978","0.0-1.0-498.0","0","0","76981","","1700","","","75","55","k","","","","","","","","","","","","","","",""
"","S2","","html-keyboard-response","361","636230","0.0-1.0-499.0","0","0","76981","","null","","","null","55","","NaN","","","","","","","","","","","","","",""
"","response","","html-keyboard-response","362","636304","0.0-1.0-500.0","0","0","76981","","71","","","75","55","","","2","55","training","adjacent","DC","4","3","P.jpg","L.jpg","1","0","0","",""
"","feedback","","html-keyboard-response","363","637306","0.0-1.0-501.0-0.0","0","0","76981","","null","","","null","55","","","","","","","","","","","","","","","",""
"","time_out","","html-keyboard-response","364","639308","0.0-1.0-503.0-0.0","0","0","76981","","null","","","null","55","","","","","","","","","","","","","","","",""
"","ITI","","html-keyboard-response","365","640311","0.0-1.0-504.0","0","0","76981","","null","","","null","55","","","","","","","","","","","","","","","NaN",""
"","S1","","html-keyboard-response","366","640564","0.0-1.0-506.0","0","0","76981","","null","","","null","56","","","","","","","","","","","","","","","",""
"","ISI","","html-keyboard-response","367","642566","0.0-1.0-507.0","0","0","76981","","176","","","68","56","d","","","","","","","","","","","","","","",""
"","S2","","html-keyboard-response","368","642819","0.0-1.0-508.0","0","0","76981","","null","","","null","56","","NaN","","","","","","","","","","","","","",""
"","response","","html-keyboard-response","369","643402","0.0-1.0-509.0","0","0","76981","","581","","","68","56","","","2","56","training","adjacent","GF","7","6","Q.jpg","O.jpg","0","0","1","",""
"","feedback","","html-keyboard-response","370","644405","0.0-1.0-510.0-0.0","0","0","76981","","null","","","null","56","","","","","","","","","","","","","","","",""
"","ITI","","html-keyboard-response","371","645408","0.0-1.0-513.0","0","0","76981","","null","","","null","56","","","","","","","","","","","","","","","NaN",""
"","S1","","html-keyboard-response","372","645661","0.0-1.0-515.0","0","0","76981","","null","","","null","57","","","","","","","","","","","","","","","",""
"","ISI","","html-keyboard-response","373","647663","0.0-1.0-516.0","0","0","76981","","null","","","null","57","NaN","","","","","","","","","","","","","","",""
"","S2","","html-keyboard-response","374","647917","0.0-1.0-517.0","0","0","76981","","null","","","null","57","","NaN","","","","","","","","","","","","","",""
"","response","","html-keyboard-response","375","648612","0.0-1.0-518.0","0","0","76981","","693","","","75","57","","","2","57","training","adjacent","CB","3","2","L.jpg","R.jpg","1","0","0","",""
"","feedback","","html-keyboard-response","376","649615","0.0-1.0-519.0-0.0","0","0","76981","","null","","","null","57","","","","","","","","","","","","","","","",""
"","time_out","","html-keyboard-response","377","651618","0.0-1.0-521.0-0.0","0","0","76981","","null","","","null","57","","","","","","","","","","","","","","","",""
"","ITI","","html-keyboard-response","378","652620","0.0-1.0-522.0","0","0","76981","","null","","","null","57","","","","","","","","","","","","","","","NaN",""
"","S1","","html-keyboard-response","379","652873","0.0-1.0-524.0","0","0","76981","","null","","","null","58","","","","","","","","","","","","","","","",""
"","ISI","","html-keyboard-response","380","654875","0.0-1.0-525.0","0","0","76981","","null","","","null","58","NaN","","","","","","","","","","","","","","",""
"","S2","","html-keyboard-response","381","655128","0.0-1.0-526.0","0","0","76981","","null","","","null","58","","NaN","","","","","","","","","","","","","",""
"","response","","html-keyboard-response","382","655551","0.0-1.0-527.0","0","0","76981","","421","","","68","58","","","2","58","training","adjacent","DC","4","3","P.jpg","L.jpg","0","0","1","",""
"","feedback","","html-keyboard-response","383","656553","0.0-1.0-528.0-0.0","0","0","76981","","null","","","null","58","","","","","","","","","","","","","","","",""
"","ITI","","html-keyboard-response","384","657555","0.0-1.0-531.0","0","0","76981","","null","","","null","58","","","","","","","","","","","","","","","NaN",""
"","S1","","html-keyboard-response","385","657807","0.0-1.0-533.0","0","0","76981","","null","","","null","59","","","","","","","","","","","","","","","",""
"","ISI","","html-keyboard-response","386","659809","0.0-1.0-534.0","0","0","76981","","null","","","null","59","NaN","","","","","","","","","","","","","","",""
"","S2","","html-keyboard-response","387","660062","0.0-1.0-535.0","0","0","76981","","null","","","null","59","","NaN","","","","","","","","","","","","","",""
"","response","","html-keyboard-response","388","660571","0.0-1.0-536.0","0","0","76981","","507","","","68","59","","","2","59","training","adjacent","CD","3","4","L.jpg","P.jpg","0","1","0","",""
"","feedback","","html-keyboard-response","389","661573","0.0-1.0-537.0-0.0","0","0","76981","","null","","","null","59","","","","","","","","","","","","","","","",""
"","time_out","","html-keyboard-response","390","663576","0.0-1.0-539.0-0.0","0","0","76981","","null","","","null","59","","","","","","","","","","","","","","","",""
"","ITI","","html-keyboard-response","391","664578","0.0-1.0-540.0","0","0","76981","","null","","","null","59","","","","","","","","","","","","","","","NaN",""
"","S1","","html-keyboard-response","392","664831","0.0-1.0-542.0","0","0","76981","","null","","","null","60","","","","","","","","","","","","","","","",""
"","ISI","","html-keyboard-response","393","666832","0.0-1.0-543.0","0","0","76981","","null","","","null","60","NaN","","","","","","","","","","","","","","",""
"","S2","","html-keyboard-response","394","667085","0.0-1.0-544.0","0","0","76981","","null","","","null","60","","NaN","","","","","","","","","","","","","",""
"","response","","html-keyboard-response","395","667599","0.0-1.0-545.0","0","0","76981","","513","","","75","60","","","2","60","training","adjacent","AB","1","2","M.jpg","R.jpg","1","1","1","",""
"","feedback","","html-keyboard-response","396","668603","0.0-1.0-546.0-0.0","0","0","76981","","null","","","null","60","","","","","","","","","","","","","","","",""
"","ITI","","html-keyboard-response","397","669605","0.0-1.0-549.0","0","0","76981","","null","","","null","60","","","","","","","","","","","","","","","NaN",""
"","S1","","html-keyboard-response","398","669858","0.0-1.0-551.0","0","0","76981","","null","","","null","61","","","","","","","","","","","","","","","",""
"","ISI","","html-keyboard-response","399","671861","0.0-1.0-552.0","0","0","76981","","null","","","null","61","NaN","","","","","","","","","","","","","","",""
"","S2","","html-keyboard-response","400","672113","0.0-1.0-553.0","0","0","76981","","null","","","null","61","","NaN","","","","","","","","","","","","","",""
"","response","","html-keyboard-response","401","672523","0.0-1.0-554.0","0","0","76981","","408","","","75","61","","","2","61","training","adjacent","DC","4","3","P.jpg","L.jpg","1","0","0","",""
"","feedback","","html-keyboard-response","402","673525","0.0-1.0-555.0-0.0","0","0","76981","","null","","","null","61","","","","","","","","","","","","","","","",""
"","time_out","","html-keyboard-response","403","675527","0.0-1.0-557.0-0.0","0","0","76981","","null","","","null","61","","","","","","","","","","","","","","","",""
"","ITI","","html-keyboard-response","404","676530","0.0-1.0-558.0","0","0","76981","","null","","","null","61","","","","","","","","","","","","","","","NaN",""
"","S1","","html-keyboard-response","405","676782","0.0-1.0-560.0","0","0","76981","","null","","","null","62","","","","","","","","","","","","","","","",""
"","ISI","","html-keyboard-response","406","678784","0.0-1.0-561.0","0","0","76981","","null","","","null","62","NaN","","","","","","","","","","","","","","",""
"","S2","","html-keyboard-response","407","679037","0.0-1.0-562.0","0","0","76981","","null","","","null","62","","NaN","","","","","","","","","","","","","",""
"","response","","html-keyboard-response","408","679361","0.0-1.0-563.0","0","0","76981","","322","","","68","62","","","2","62","training","adjacent","FE","6","5","O.jpg","N.jpg","0","0","1","",""
"","feedback","","html-keyboard-response","409","680364","0.0-1.0-564.0-0.0","0","0","76981","","null","","","null","62","","","","","","","","","","","","","","","",""
"","ITI","","html-keyboard-response","410","681366","0.0-1.0-567.0","0","0","76981","","null","","","null","62","","","","","","","","","","","","","","","NaN",""
"","S1","","html-keyboard-response","411","681619","0.0-1.0-569.0","0","0","76981","","null","","","null","63","","","","","","","","","","","","","","","",""
"","ISI","","html-keyboard-response","412","683621","0.0-1.0-570.0","0","0","76981","","null","","","null","63","NaN","","","","","","","","","","","","","","",""
"","S2","","html-keyboard-response","413","683874","0.0-1.0-571.0","0","0","76981","","null","","","null","63","","NaN","","","","","","","","","","","","","",""
"","response","","html-keyboard-response","414","684280","0.0-1.0-572.0","0","0","76981","","404","","","68","63","","","2","63","training","adjacent","AB","1","2","M.jpg","R.jpg","0","1","0","",""
"","feedback","","html-keyboard-response","415","685283","0.0-1.0-573.0-0.0","0","0","76981","","null","","","null","63","","","","","","","","","","","","","","","",""
"","time_out","","html-keyboard-response","416","687285","0.0-1.0-575.0-0.0","0","0","76981","","null","","","null","63","","","","","","","","","","","","","","","",""
"","ITI","","html-keyboard-response","417","688287","0.0-1.0-576.0","0","0","76981","","null","","","null","63","","","","","","","","","","","","","","","NaN",""
"","S1","","html-keyboard-response","418","688545","0.0-1.0-578.0","0","0","76981","","null","","","null","64","","","","","","","","","","","","","","","",""
"","ISI","","html-keyboard-response","419","690547","0.0-1.0-579.0","0","0","76981","","453","","","75","64","k","","","","","","","","","","","","","","",""
"","S2","","html-keyboard-response","420","690799","0.0-1.0-580.0","0","0","76981","","null","","","null","64","","NaN","","","","","","","","","","","","","",""
"","response","","html-keyboard-response","421","691689","0.0-1.0-581.0","0","0","76981","","888","","","75","64","","","2","64","training","adjacent","CD","3","4","L.jpg","P.jpg","1","1","1","",""
"","feedback","","html-keyboard-response","422","692692","0.0-1.0-582.0-0.0","0","0","76981","","null","","","null","64","","","","","","","","","","","","","","","",""
"","ITI","","html-keyboard-response","423","693694","0.0-1.0-585.0","0","0","76981","","null","","","null","64","","","","","","","","","","","","","","","NaN",""
"","S1","","html-keyboard-response","424","693946","0.0-1.0-587.0","0","0","76981","","null","","","null","65","","","","","","","","","","","","","","","",""
"","ISI","","html-keyboard-response","425","695949","0.0-1.0-588.0","0","0","76981","","null","","","null","65","NaN","","","","","","","","","","","","","","",""
"","S2","","html-keyboard-response","426","696202","0.0-1.0-589.0","0","0","76981","","null","","","null","65","","NaN","","","","","","","","","","","","","",""
"","response","","html-keyboard-response","427","696970","0.0-1.0-590.0","0","0","76981","","767","","","75","65","","","2","65","training","adjacent","AB","1","2","M.jpg","R.jpg","1","1","1","",""
"","feedback","","html-keyboard-response","428","697973","0.0-1.0-591.0-0.0","0","0","76981","","null","","","null","65","","","","","","","","","","","","","","","",""
"","ITI","","html-keyboard-response","429","698975","0.0-1.0-594.0","0","0","76981","","null","","","null","65","","","","","","","","","","","","","","","NaN",""
"","S1","","html-keyboard-response","430","699228","0.0-1.0-596.0","0","0","76981","","null","","","null","66","","","","","","","","","","","","","","","",""
"","ISI","","html-keyboard-response","431","701230","0.0-1.0-597.0","0","0","76981","","null","","","null","66","NaN","","","","","","","","","","","","","","",""
"","S2","","html-keyboard-response","432","701483","0.0-1.0-598.0","0","0","76981","","null","","","null","66","","NaN","","","","","","","","","","","","","",""
"","response","","html-keyboard-response","433","701889","0.0-1.0-599.0","0","0","76981","","404","","","75","66","","","2","66","training","adjacent","BA","2","1","R.jpg","M.jpg","1","0","0","",""
"","feedback","","html-keyboard-response","434","702893","0.0-1.0-600.0-0.0","0","0","76981","","null","","","null","66","","","","","","","","","","","","","","","",""
"","time_out","","html-keyboard-response","435","704895","0.0-1.0-602.0-0.0","0","0","76981","","null","","","null","66","","","","","","","","","","","","","","","",""
"","ITI","","html-keyboard-response","436","705898","0.0-1.0-603.0","0","0","76981","","null","","","null","66","","","","","","","","","","","","","","","NaN",""
"","S1","","html-keyboard-response","437","706150","0.0-1.0-605.0","0","0","76981","","null","","","null","67","","","","","","","","","","","","","","","",""
"","ISI","","html-keyboard-response","438","708153","0.0-1.0-606.0","0","0","76981","","null","","","null","67","NaN","","","","","","","","","","","","","","",""
"","S2","","html-keyboard-response","439","708405","0.0-1.0-607.0","0","0","76981","","null","","","null","67","","NaN","","","","","","","","","","","","","",""
"","response","","html-keyboard-response","440","709333","0.0-1.0-608.0","0","0","76981","","926","","","75","67","","","2","67","training","adjacent","BC","2","3","R.jpg","L.jpg","1","1","1","",""
"","feedback","","html-keyboard-response","441","710335","0.0-1.0-609.0-0.0","0","0","76981","","null","","","null","67","","","","","","","","","","","","","","","",""
"","ITI","","html-keyboard-response","442","711337","0.0-1.0-612.0","0","0","76981","","null","","","null","67","","","","","","","","","","","","","","","NaN",""
"","S1","","html-keyboard-response","443","711591","0.0-1.0-614.0","0","0","76981","","null","","","null","68","","","","","","","","","","","","","","","",""
"","ISI","","html-keyboard-response","444","713593","0.0-1.0-615.0","0","0","76981","","null","","","null","68","NaN","","","","","","","","","","","","","","",""
"","S2","","html-keyboard-response","445","713846","0.0-1.0-616.0","0","0","76981","","null","","","null","68","","NaN","","","","","","","","","","","","","",""
"","response","","html-keyboard-response","446","714318","0.0-1.0-617.0","0","0","76981","","471","","","68","68","","","2","68","training","adjacent","DE","4","5","P.jpg","N.jpg","0","1","0","",""
"","feedback","","html-keyboard-response","447","715330","0.0-1.0-618.0-0.0","0","0","76981","","null","","","null","68","","","","","","","","","","","","","","","",""
"","time_out","","html-keyboard-response","448","717332","0.0-1.0-620.0-0.0","0","0","76981","","null","","","null","68","","","","","","","","","","","","","","","",""
"","ITI","","html-keyboard-response","449","718334","0.0-1.0-621.0","0","0","76981","","null","","","null","68","","","","","","","","","","","","","","","NaN",""
"","S1","","html-keyboard-response","450","718587","0.0-1.0-623.0","0","0","76981","","null","","","null","69","","","","","","","","","","","","","","","",""
"","ISI","","html-keyboard-response","451","720590","0.0-1.0-624.0","0","0","76981","","null","","","null","69","NaN","","","","","","","","","","","","","","",""
"","S2","","html-keyboard-response","452","720842","0.0-1.0-625.0","0","0","76981","","null","","","null","69","","NaN","","","","","","","","","","","","","",""
"","response","","html-keyboard-response","453","721265","0.0-1.0-626.0","0","0","76981","","421","","","75","69","","","2","69","training","adjacent","ED","5","4","N.jpg","P.jpg","1","0","0","",""
"","feedback","","html-keyboard-response","454","722268","0.0-1.0-627.0-0.0","0","0","76981","","null","","","null","69","","","","","","","","","","","","","","","",""
"","time_out","","html-keyboard-response","455","724271","0.0-1.0-629.0-0.0","0","0","76981","","null","","","null","69","","","","","","","","","","","","","","","",""
"","ITI","","html-keyboard-response","456","725274","0.0-1.0-630.0","0","0","76981","","null","","","null","69","","","","","","","","","","","","","","","NaN",""
"","S1","","html-keyboard-response","457","725526","0.0-1.0-632.0","0","0","76981","","null","","","null","70","","","","","","","","","","","","","","","",""
"","ISI","","html-keyboard-response","458","727528","0.0-1.0-633.0","0","0","76981","","null","","","null","70","NaN","","","","","","","","","","","","","","",""
"","S2","","html-keyboard-response","459","727790","0.0-1.0-634.0","0","0","76981","","null","","","null","70","","NaN","","","","","","","","","","","","","",""
"","response","","html-keyboard-response","460","728088","0.0-1.0-635.0","0","0","76981","","296","","","75","70","","","2","70","training","adjacent","BC","2","3","R.jpg","L.jpg","1","1","1","",""
"","feedback","","html-keyboard-response","461","729091","0.0-1.0-636.0-0.0","0","0","76981","","null","","","null","70","","","","","","","","","","","","","","","",""
"","ITI","","html-keyboard-response","462","730093","0.0-1.0-639.0","0","0","76981","","null","","","null","70","","","","","","","","","","","","","","","NaN",""
"","S1","","html-keyboard-response","463","730346","0.0-1.0-641.0","0","0","76981","","null","","","null","71","","","","","","","","","","","","","","","",""
"","ISI","","html-keyboard-response","464","732348","0.0-1.0-642.0","0","0","76981","","null","","","null","71","NaN","","","","","","","","","","","","","","",""
"","S2","","html-keyboard-response","465","732601","0.0-1.0-643.0","0","0","76981","","null","","","null","71","","NaN","","","","","","","","","","","","","",""
"","response","","html-keyboard-response","466","732992","0.0-1.0-644.0","0","0","76981","","389","","","75","71","","","2","71","training","adjacent","FG","6","7","O.jpg","Q.jpg","1","1","1","",""
"","feedback","","html-keyboard-response","467","733995","0.0-1.0-645.0-0.0","0","0","76981","","null","","","null","71","","","","","","","","","","","","","","","",""
"","ITI","","html-keyboard-response","468","734997","0.0-1.0-648.0","0","0","76981","","null","","","null","71","","","","","","","","","","","","","","","NaN",""
"","S1","","html-keyboard-response","469","735250","0.0-1.0-650.0","0","0","76981","","null","","","null","72","","","","","","","","","","","","","","","",""
"","ISI","","html-keyboard-response","470","737252","0.0-1.0-651.0","0","0","76981","","null","","","null","72","NaN","","","","","","","","","","","","","","",""
"","S2","","html-keyboard-response","471","737504","0.0-1.0-652.0","0","0","76981","","null","","","null","72","","NaN","","","","","","","","","","","","","",""
"","response","","html-keyboard-response","472","738323","0.0-1.0-653.0","0","0","76981","","816","","","75","72","","","2","72","training","adjacent","FE","6","5","O.jpg","N.jpg","1","0","0","",""
"","feedback","","html-keyboard-response","473","739326","0.0-1.0-654.0-0.0","0","0","76981","","null","","","null","72","","","","","","","","","","","","","","","",""
"","time_out","","html-keyboard-response","474","741328","0.0-1.0-656.0-0.0","0","0","76981","","null","","","null","72","","","","","","","","","","","","","","","",""
"","ITI","","html-keyboard-response","475","742329","0.0-1.0-657.0","0","0","76981","","null","","","null","72","","","","","","","","","","","","","","","NaN",""
"","S1","","html-keyboard-response","476","742582","0.0-1.0-659.0","0","0","76981","","null","","","null","73","","","","","","","","","","","","","","","",""
"","ISI","","html-keyboard-response","477","744584","0.0-1.0-660.0","0","0","76981","","null","","","null","73","NaN","","","","","","","","","","","","","","",""
"","S2","","html-keyboard-response","478","744837","0.0-1.0-661.0","0","0","76981","","null","","","null","73","","NaN","","","","","","","","","","","","","",""
"","response","","html-keyboard-response","479","745271","0.0-1.0-662.0","0","0","76981","","432","","","75","73","","","2","73","training","adjacent","BA","2","1","R.jpg","M.jpg","1","0","0","",""
"","feedback","","html-keyboard-response","480","746274","0.0-1.0-663.0-0.0","0","0","76981","","null","","","null","73","","","","","","","","","","","","","","","",""
"","time_out","","html-keyboard-response","481","748276","0.0-1.0-665.0-0.0","0","0","76981","","null","","","null","73","","","","","","","","","","","","","","","",""
"","ITI","","html-keyboard-response","482","749278","0.0-1.0-666.0","0","0","76981","","null","","","null","73","","","","","","","","","","","","","","","NaN",""
"","S1","","html-keyboard-response","483","749531","0.0-1.0-668.0","0","0","76981","","null","","","null","74","","","","","","","","","","","","","","","",""
"","ISI","","html-keyboard-response","484","751533","0.0-1.0-669.0","0","0","76981","","null","","","null","74","NaN","","","","","","","","","","","","","","",""
"","S2","","html-keyboard-response","485","751785","0.0-1.0-670.0","0","0","76981","","null","","","null","74","","NaN","","","","","","","","","","","","","",""
"","response","","html-keyboard-response","486","752265","0.0-1.0-671.0","0","0","76981","","478","","","68","74","","","2","74","training","adjacent","ED","5","4","N.jpg","P.jpg","0","0","1","",""
"","feedback","","html-keyboard-response","487","753267","0.0-1.0-672.0-0.0","0","0","76981","","null","","","null","74","","","","","","","","","","","","","","","",""
"","ITI","","html-keyboard-response","488","754281","0.0-1.0-675.0","0","0","76981","","null","","","null","74","","","","","","","","","","","","","","","NaN",""
"","S1","","html-keyboard-response","489","754533","0.0-1.0-677.0","0","0","76981","","null","","","null","75","","","","","","","","","","","","","","","",""
"","ISI","","html-keyboard-response","490","756535","0.0-1.0-678.0","0","0","76981","","null","","","null","75","NaN","","","","","","","","","","","","","","",""
"","S2","","html-keyboard-response","491","756788","0.0-1.0-679.0","0","0","76981","","null","","","null","75","","NaN","","","","","","","","","","","","","",""
"","response","","html-keyboard-response","492","757163","0.0-1.0-680.0","0","0","76981","","374","","","75","75","","","2","75","training","adjacent","GF","7","6","Q.jpg","O.jpg","1","0","0","",""
"","feedback","","html-keyboard-response","493","758167","0.0-1.0-681.0-0.0","0","0","76981","","null","","","null","75","","","","","","","","","","","","","","","",""
"","time_out","","html-keyboard-response","494","760171","0.0-1.0-683.0-0.0","0","0","76981","","null","","","null","75","","","","","","","","","","","","","","","",""
"","ITI","","html-keyboard-response","495","761173","0.0-1.0-684.0","0","0","76981","","null","","","null","75","","","","","","","","","","","","","","","NaN",""
"","S1","","html-keyboard-response","496","761426","0.0-1.0-686.0","0","0","76981","","null","","","null","76","","","","","","","","","","","","","","","",""
"","ISI","","html-keyboard-response","497","763428","0.0-1.0-687.0","0","0","76981","","null","","","null","76","NaN","","","","","","","","","","","","","","",""
"","S2","","html-keyboard-response","498","763681","0.0-1.0-688.0","0","0","76981","","null","","","null","76","","NaN","","","","","","","","","","","","","",""
"","response","","html-keyboard-response","499","763991","0.0-1.0-689.0","0","0","76981","","309","","","75","76","","","2","76","training","adjacent","FE","6","5","O.jpg","N.jpg","1","0","0","",""
"","feedback","","html-keyboard-response","500","764995","0.0-1.0-690.0-0.0","0","0","76981","","null","","","null","76","","","","","","","","","","","","","","","",""
"","time_out","","html-keyboard-response","501","766997","0.0-1.0-692.0-0.0","0","0","76981","","null","","","null","76","","","","","","","","","","","","","","","",""
"","ITI","","html-keyboard-response","502","767999","0.0-1.0-693.0","0","0","76981","","null","","","null","76","","","","","","","","","","","","","","","NaN",""
"","S1","","html-keyboard-response","503","768253","0.0-1.0-695.0","0","0","76981","","null","","","null","77","","","","","","","","","","","","","","","",""
"","ISI","","html-keyboard-response","504","770255","0.0-1.0-696.0","0","0","76981","","null","","","null","77","NaN","","","","","","","","","","","","","","",""
"","S2","","html-keyboard-response","505","770508","0.0-1.0-697.0","0","0","76981","","null","","","null","77","","NaN","","","","","","","","","","","","","",""
"","response","","html-keyboard-response","506","771015","0.0-1.0-698.0","0","0","76981","","505","","","68","77","","","2","77","training","adjacent","EF","5","6","N.jpg","O.jpg","0","1","0","",""
"","feedback","","html-keyboard-response","507","772018","0.0-1.0-699.0-0.0","0","0","76981","","null","","","null","77","","","","","","","","","","","","","","","",""
"","time_out","","html-keyboard-response","508","774020","0.0-1.0-701.0-0.0","0","0","76981","","null","","","null","77","","","","","","","","","","","","","","","",""
"","ITI","","html-keyboard-response","509","775022","0.0-1.0-702.0","0","0","76981","","null","","","null","77","","","","","","","","","","","","","","","NaN",""
"","S1","","html-keyboard-response","510","775275","0.0-1.0-704.0","0","0","76981","","null","","","null","78","","","","","","","","","","","","","","","",""
"","ISI","","html-keyboard-response","511","777278","0.0-1.0-705.0","0","0","76981","","null","","","null","78","NaN","","","","","","","","","","","","","","",""
"","S2","","html-keyboard-response","512","777536","0.0-1.0-706.0","0","0","76981","","null","","","null","78","","NaN","","","","","","","","","","","","","",""
"","response","","html-keyboard-response","513","777668","0.0-1.0-707.0","0","0","76981","","130","","","75","78","","","2","78","training","adjacent","EF","5","6","N.jpg","O.jpg","1","1","1","",""
"","feedback","","html-keyboard-response","514","778671","0.0-1.0-708.0-0.0","0","0","76981","","null","","","null","78","","","","","","","","","","","","","","","",""
"","ITI","","html-keyboard-response","515","779674","0.0-1.0-711.0","0","0","76981","","null","","","null","78","","","","","","","","","","","","","","","NaN",""
"","S1","","html-keyboard-response","516","779927","0.0-1.0-713.0","0","0","76981","","null","","","null","79","","","","","","","","","","","","","","","",""
"","ISI","","html-keyboard-response","517","781929","0.0-1.0-714.0","0","0","76981","","null","","","null","79","NaN","","","","","","","","","","","","","","",""
"","S2","","html-keyboard-response","518","782182","0.0-1.0-715.0","0","0","76981","","null","","","null","79","","NaN","","","","","","","","","","","","","",""
"","response","","html-keyboard-response","519","782512","0.0-1.0-716.0","0","0","76981","","328","","","68","79","","","2","79","training","adjacent","BA","2","1","R.jpg","M.jpg","0","0","1","",""
"","feedback","","html-keyboard-response","520","783515","0.0-1.0-717.0-0.0","0","0","76981","","null","","","null","79","","","","","","","","","","","","","","","",""
"","ITI","","html-keyboard-response","521","784517","0.0-1.0-720.0","0","0","76981","","null","","","null","79","","","","","","","","","","","","","","","NaN",""
"","block_over","","html-keyboard-response","522","920686","0.0-1.0-721.0-0.0","0","0","76981","","136166","","","32","79","","","","","","","","","","","","","","","",""
"","S1","","html-keyboard-response","523","920941","0.0-1.0-722.0","0","0","76981","","null","","","null","80","","","","","","","","","","","","","","","",""
"","ISI","","html-keyboard-response","524","922947","0.0-1.0-723.0","0","0","76981","","null","","","null","80","NaN","","","","","","","","","","","","","","",""
"","S2","","html-keyboard-response","525","923201","0.0-1.0-724.0","0","0","76981","","null","","","null","80","","NaN","","","","","","","","","","","","","",""
"","response","","html-keyboard-response","526","923252","0.0-1.0-725.0","0","0","76981","","48","","","75","80","","","3","80","training","adjacent","FE","6","5","O.jpg","N.jpg","1","0","0","",""
"","feedback","","html-keyboard-response","527","924259","0.0-1.0-726.0-0.0","0","0","76981","","null","","","null","80","","","","","","","","","","","","","","","",""
"","time_out","","html-keyboard-response","528","926266","0.0-1.0-728.0-0.0","0","0","76981","","null","","","null","80","","","","","","","","","","","","","","","",""
"","ITI","","html-keyboard-response","529","927274","0.0-1.0-729.0","0","0","76981","","null","","","null","80","","","","","","","","","","","","","","","NaN",""
"","S1","","html-keyboard-response","530","927539","0.0-1.0-731.0","0","0","76981","","null","","","null","81","","","","","","","","","","","","","","","",""
"","ISI","","html-keyboard-response","531","929545","0.0-1.0-732.0","0","0","76981","","null","","","null","81","NaN","","","","","","","","","","","","","","",""
"","S2","","html-keyboard-response","532","929801","0.0-1.0-733.0","0","0","76981","","null","","","null","81","","NaN","","","","","","","","","","","","","",""
"","response","","html-keyboard-response","533","930272","0.0-1.0-734.0","0","0","76981","","469","","","68","81","","","3","81","training","adjacent","EF","5","6","N.jpg","O.jpg","0","1","0","",""
"","feedback","","html-keyboard-response","534","931281","0.0-1.0-735.0-0.0","0","0","76981","","null","","","null","81","","","","","","","","","","","","","","","",""
"","time_out","","html-keyboard-response","535","933285","0.0-1.0-737.0-0.0","0","0","76981","","null","","","null","81","","","","","","","","","","","","","","","",""
"","ITI","","html-keyboard-response","536","934292","0.0-1.0-738.0","0","0","76981","","null","","","null","81","","","","","","","","","","","","","","","NaN",""
"","S1","","html-keyboard-response","537","934549","0.0-1.0-740.0","0","0","76981","","null","","","null","82","","","","","","","","","","","","","","","",""
"","ISI","","html-keyboard-response","538","936559","0.0-1.0-741.0","0","0","76981","","null","","","null","82","NaN","","","","","","","","","","","","","","",""
"","S2","","html-keyboard-response","539","936816","0.0-1.0-742.0","0","0","76981","","null","","","null","82","","NaN","","","","","","","","","","","","","",""
"","response","","html-keyboard-response","540","937288","0.0-1.0-743.0","0","0","76981","","471","","","75","82","","","3","82","training","adjacent","BC","2","3","R.jpg","L.jpg","1","1","1","",""
"","feedback","","html-keyboard-response","541","938299","0.0-1.0-744.0-0.0","0","0","76981","","null","","","null","82","","","","","","","","","","","","","","","",""
"","ITI","","html-keyboard-response","542","939305","0.0-1.0-747.0","0","0","76981","","null","","","null","82","","","","","","","","","","","","","","","NaN",""
"","S1","","html-keyboard-response","543","939572","0.0-1.0-749.0","0","0","76981","","null","","","null","83","","","","","","","","","","","","","","","",""
"","ISI","","html-keyboard-response","544","941575","0.0-1.0-750.0","0","0","76981","","null","","","null","83","NaN","","","","","","","","","","","","","","",""
"","S2","","html-keyboard-response","545","941831","0.0-1.0-751.0","0","0","76981","","null","","","null","83","","NaN","","","","","","","","","","","","","",""
"","response","","html-keyboard-response","546","942770","0.0-1.0-752.0","0","0","76981","","937","","","75","83","","","3","83","training","adjacent","FE","6","5","O.jpg","N.jpg","1","0","0","",""
"","feedback","","html-keyboard-response","547","943776","0.0-1.0-753.0-0.0","0","0","76981","","null","","","null","83","","","","","","","","","","","","","","","",""
"","time_out","","html-keyboard-response","548","945786","0.0-1.0-755.0-0.0","0","0","76981","","null","","","null","83","","","","","","","","","","","","","","","",""
"","ITI","","html-keyboard-response","549","946795","0.0-1.0-756.0","0","0","76981","","null","","","null","83","","","","","","","","","","","","","","","NaN",""
"","S1","","html-keyboard-response","550","947051","0.0-1.0-758.0","0","0","76981","","null","","","null","84","","","","","","","","","","","","","","","",""
"","ISI","","html-keyboard-response","551","949058","0.0-1.0-759.0","0","0","76981","","null","","","null","84","NaN","","","","","","","","","","","","","","",""
"","S2","","html-keyboard-response","552","949325","0.0-1.0-760.0","0","0","76981","","null","","","null","84","","NaN","","","","","","","","","","","","","",""
"","response","","html-keyboard-response","553","949807","0.0-1.0-761.0","0","0","76981","","480","","","68","84","","","3","84","training","adjacent","AB","1","2","M.jpg","R.jpg","0","1","0","",""
"","feedback","","html-keyboard-response","554","950812","0.0-1.0-762.0-0.0","0","0","76981","","null","","","null","84","","","","","","","","","","","","","","","",""
"","time_out","","html-keyboard-response","555","952821","0.0-1.0-764.0-0.0","0","0","76981","","null","","","null","84","","","","","","","","","","","","","","","",""
"","ITI","","html-keyboard-response","556","953835","0.0-1.0-765.0","0","0","76981","","null","","","null","84","","","","","","","","","","","","","","","NaN",""
"","S1","","html-keyboard-response","557","954096","0.0-1.0-767.0","0","0","76981","","null","","","null","85","","","","","","","","","","","","","","","",""
"","ISI","","html-keyboard-response","558","956107","0.0-1.0-768.0","0","0","76981","","null","","","null","85","NaN","","","","","","","","","","","","","","",""
"","S2","","html-keyboard-response","559","956365","0.0-1.0-769.0","0","0","76981","","null","","","null","85","","NaN","","","","","","","","","","","","","",""
"","response","","html-keyboard-response","560","956867","0.0-1.0-770.0","0","0","76981","","501","","","75","85","","","3","85","training","adjacent","FG","6","7","O.jpg","Q.jpg","1","1","1","",""
"","feedback","","html-keyboard-response","561","957874","0.0-1.0-771.0-0.0","0","0","76981","","null","","","null","85","","","","","","","","","","","","","","","",""
"","ITI","","html-keyboard-response","562","958878","0.0-1.0-774.0","0","0","76981","","null","","","null","85","","","","","","","","","","","","","","","NaN",""
"","S1","","html-keyboard-response","563","959135","0.0-1.0-776.0","0","0","76981","","null","","","null","86","","","","","","","","","","","","","","","",""
"","ISI","","html-keyboard-response","564","961138","0.0-1.0-777.0","0","0","76981","","null","","","null","86","NaN","","","","","","","","","","","","","","",""
"","S2","","html-keyboard-response","565","961398","0.0-1.0-778.0","0","0","76981","","null","","","null","86","","NaN","","","","","","","","","","","","","",""
"","response","","html-keyboard-response","566","961929","0.0-1.0-779.0","0","0","76981","","529","","","75","86","","","3","86","training","adjacent","GF","7","6","Q.jpg","O.jpg","1","0","0","",""
"","feedback","","html-keyboard-response","567","962938","0.0-1.0-780.0-0.0","0","0","76981","","null","","","null","86","","","","","","","","","","","","","","","",""
"","time_out","","html-keyboard-response","568","964951","0.0-1.0-782.0-0.0","0","0","76981","","null","","","null","86","","","","","","","","","","","","","","","",""
"","ITI","","html-keyboard-response","569","965961","0.0-1.0-783.0","0","0","76981","","null","","","null","86","","","","","","","","","","","","","","","NaN",""
"","S1","","html-keyboard-response","570","966221","0.0-1.0-785.0","0","0","76981","","null","","","null","87","","","","","","","","","","","","","","","",""
"","ISI","","html-keyboard-response","571","968225","0.0-1.0-786.0","0","0","76981","","11","","","68","87","d","","","","","","","","","","","","","","",""
"","S2","","html-keyboard-response","572","968481","0.0-1.0-787.0","0","0","76981","","null","","","null","87","","NaN","","","","","","","","","","","","","",""
"","response","","html-keyboard-response","573","969336","0.0-1.0-788.0","0","0","76981","","853","","","75","87","","","3","87","training","adjacent","ED","5","4","N.jpg","P.jpg","1","0","0","",""
"","feedback","","html-keyboard-response","574","970348","0.0-1.0-789.0-0.0","0","0","76981","","null","","","null","87","","","","","","","","","","","","","","","",""
"","time_out","","html-keyboard-response","575","972356","0.0-1.0-791.0-0.0","0","0","76981","","null","","","null","87","","","","","","","","","","","","","","","",""
"","ITI","","html-keyboard-response","576","973366","0.0-1.0-792.0","0","0","76981","","null","","","null","87","","","","","","","","","","","","","","","NaN",""
"","S1","","html-keyboard-response","577","973621","0.0-1.0-794.0","0","0","76981","","null","","","null","88","","","","","","","","","","","","","","","",""
"","ISI","","html-keyboard-response","578","975632","0.0-1.0-795.0","0","0","76981","","null","","","null","88","NaN","","","","","","","","","","","","","","",""
"","S2","","html-keyboard-response","579","975885","0.0-1.0-796.0","0","0","76981","","null","","","null","88","","NaN","","","","","","","","","","","","","",""
"","response","","html-keyboard-response","580","976302","0.0-1.0-797.0","0","0","76981","","414","","","68","88","","","3","88","training","adjacent","CD","3","4","L.jpg","P.jpg","0","1","0","",""
"","feedback","","html-keyboard-response","581","977306","0.0-1.0-798.0-0.0","0","0","76981","","null","","","null","88","","","","","","","","","","","","","","","",""
"","time_out","","html-keyboard-response","582","979320","0.0-1.0-800.0-0.0","0","0","76981","","null","","","null","88","","","","","","","","","","","","","","","",""
"","ITI","","html-keyboard-response","583","980338","0.0-1.0-801.0","0","0","76981","","null","","","null","88","","","","","","","","","","","","","","","NaN",""
"","S1","","html-keyboard-response","584","980597","0.0-1.0-803.0","0","0","76981","","null","","","null","89","","","","","","","","","","","","","","","",""
"","ISI","","html-keyboard-response","585","982607","0.0-1.0-804.0","0","0","76981","","null","","","null","89","NaN","","","","","","","","","","","","","","",""
