"success","ttype","start_time","trial_type","trial_index","time_elapsed","internal_node_id","warning","missed_checkup","PID","view_history","rt","responses","repeat_instructions","key_press","index","keypress_isi","keypress_S2","block","trial_num","phase","group_type","pair_type","S1_stim","S2_stim","S1_img","S2_img","S1_chosen","S1_higher","accuracy","keypress_iti","total_bonus_tally"
"true","full_screen","d08012022hr1340","fullscreen","0","22003","0.0-0.0","0","0","65889","","","","","","","","","","","","","","","","","","","","","",""
"","instructions","","instructions","1","86046","0.0-1.0-0.0-0.0","0","0","65889","[{""page_index"":0,""viewing_time"":5465},{""page_index"":1,""viewing_time"":41064},{""page_index"":2,""viewing_time"":15417},{""page_index"":3,""viewing_time"":2095}]","64042","","","","","","","","","","","","","","","","","","","",""
"","comprehension_check","","survey-multi-choice","2","106582","0.0-1.0-0.0-1.0","0","0","65889","","20533","{""Q0"":""True"",""Q1"":""D"",""Q2"":""When you see the prompt 'MAKE A CHOICE' after the second image was presented"",""Q3"":""Green mark"",""Q4"":""either D or K""}","1","","","","","","","","","","","","","","","","","",""
"","missed_instruction_checkup","","html-keyboard-response","3","109070","0.0-1.0-0.0-2.0-0.0","0","1","65889","","2483","","","32","","","","","","","","","","","","","","","","",""
"","instructions","","instructions","4","135229","0.0-1.0-0.1-0.1","0","0","65889","[{""page_index"":0,""viewing_time"":2950},{""page_index"":1,""viewing_time"":18057},{""page_index"":2,""viewing_time"":4280},{""page_index"":3,""viewing_time"":871}]","26158","","","","","","","","","","","","","","","","","","","",""
"","comprehension_check","","survey-multi-choice","5","144974","0.0-1.0-0.1-1.1","0","0","65889","","9741","{""Q0"":""True"",""Q1"":""K"",""Q2"":""When you see the prompt 'MAKE A CHOICE' after the second image was presented"",""Q3"":""Green mark"",""Q4"":""either D or K""}","0","","","","","","","","","","","","","","","","","",""
"","start_exp","","html-keyboard-response","6","147221","0.0-1.0-1.0","0","0","65889","","2243","","","32","","","","","","","","","","","","","","","","",""
"","S1","","html-keyboard-response","7","147474","0.0-1.0-2.0","0","0","65889","","null","","","null","0","","","","","","","","","","","","","","","",""
"","ISI","","html-keyboard-response","8","149476","0.0-1.0-3.0","0","0","65889","","null","","","null","0","NaN","","","","","","","","","","","","","","",""
"","S2","","html-keyboard-response","9","149728","0.0-1.0-4.0","0","0","65889","","null","","","null","0","","NaN","","","","","","","","","","","","","",""
"","response","","html-keyboard-response","10","151429","0.0-1.0-5.0","0","0","65889","","1699","","","75","0","","","1","0","training","adjacent","FE","6","5","R.jpg","N.jpg","1","0","0","",""
"","feedback","","html-keyboard-response","11","152433","0.0-1.0-6.0-0.0","0","0","65889","","null","","","null","0","","","","","","","","","","","","","","","",""
"","time_out","","html-keyboard-response","12","154435","0.0-1.0-8.0-0.0","0","0","65889","","null","","","null","0","","","","","","","","","","","","","","","",""
"","ITI","","html-keyboard-response","13","155437","0.0-1.0-9.0","0","0","65889","","null","","","null","0","","","","","","","","","","","","","","","NaN",""
"","S1","","html-keyboard-response","14","155690","0.0-1.0-11.0","0","0","65889","","null","","","null","1","","","","","","","","","","","","","","","",""
"","ISI","","html-keyboard-response","15","157692","0.0-1.0-12.0","0","0","65889","","null","","","null","1","NaN","","","","","","","","","","","","","","",""
"","S2","","html-keyboard-response","16","157944","0.0-1.0-13.0","0","0","65889","","null","","","null","1","","NaN","","","","","","","","","","","","","",""
"","response","","html-keyboard-response","17","158789","0.0-1.0-14.0","0","0","65889","","844","","","68","1","","","1","1","training","adjacent","BC","2","3","P.jpg","Q.jpg","0","1","0","",""
"","feedback","","html-keyboard-response","18","159792","0.0-1.0-15.0-0.0","0","0","65889","","null","","","null","1","","","","","","","","","","","","","","","",""
"","time_out","","html-keyboard-response","19","161794","0.0-1.0-17.0-0.0","0","0","65889","","null","","","null","1","","","","","","","","","","","","","","","",""
"","ITI","","html-keyboard-response","20","162796","0.0-1.0-18.0","0","0","65889","","null","","","null","1","","","","","","","","","","","","","","","NaN",""
"","S1","","html-keyboard-response","21","163049","0.0-1.0-20.0","0","0","65889","","null","","","null","2","","","","","","","","","","","","","","","",""
"","ISI","","html-keyboard-response","22","165050","0.0-1.0-21.0","0","0","65889","","null","","","null","2","NaN","","","","","","","","","","","","","","",""
"","S2","","html-keyboard-response","23","165302","0.0-1.0-22.0","0","0","65889","","null","","","null","2","","NaN","","","","","","","","","","","","","",""
"","response","","html-keyboard-response","24","166245","0.0-1.0-23.0","0","0","65889","","942","","","68","2","","","1","2","training","adjacent","CB","3","2","Q.jpg","P.jpg","0","0","1","",""
"","feedback","","html-keyboard-response","25","167248","0.0-1.0-24.0-0.0","0","0","65889","","null","","","null","2","","","","","","","","","","","","","","","",""
"","ITI","","html-keyboard-response","26","168250","0.0-1.0-27.0","0","0","65889","","null","","","null","2","","","","","","","","","","","","","","","NaN",""
"","S1","","html-keyboard-response","27","168502","0.0-1.0-29.0","0","0","65889","","null","","","null","3","","","","","","","","","","","","","","","",""
"","ISI","","html-keyboard-response","28","170505","0.0-1.0-30.0","0","0","65889","","null","","","null","3","NaN","","","","","","","","","","","","","","",""
"","S2","","html-keyboard-response","29","170756","0.0-1.0-31.0","0","0","65889","","null","","","null","3","","NaN","","","","","","","","","","","","","",""
"","response","","html-keyboard-response","30","171812","0.0-1.0-32.0","0","0","65889","","1056","","","68","3","","","1","3","training","adjacent","FE","6","5","R.jpg","N.jpg","0","0","1","",""
"","feedback","","html-keyboard-response","31","172815","0.0-1.0-33.0-0.0","0","0","65889","","null","","","null","3","","","","","","","","","","","","","","","",""
"","ITI","","html-keyboard-response","32","173818","0.0-1.0-36.0","0","0","65889","","null","","","null","3","","","","","","","","","","","","","","","NaN",""
"","S1","","html-keyboard-response","33","174070","0.0-1.0-38.0","0","0","65889","","null","","","null","4","","","","","","","","","","","","","","","",""
"","ISI","","html-keyboard-response","34","176073","0.0-1.0-39.0","0","0","65889","","null","","","null","4","NaN","","","","","","","","","","","","","","",""
"","S2","","html-keyboard-response","35","176326","0.0-1.0-40.0","0","0","65889","","null","","","null","4","","NaN","","","","","","","","","","","","","",""
"","response","","html-keyboard-response","36","178325","0.0-1.0-41.0","0","0","65889","","1998","","","75","4","","","1","4","training","adjacent","DC","4","3","M.jpg","Q.jpg","1","0","0","",""
"","feedback","","html-keyboard-response","37","179328","0.0-1.0-42.0-0.0","0","0","65889","","null","","","null","4","","","","","","","","","","","","","","","",""
"","time_out","","html-keyboard-response","38","181330","0.0-1.0-44.0-0.0","0","0","65889","","null","","","null","4","","","","","","","","","","","","","","","",""
"","ITI","","html-keyboard-response","39","182332","0.0-1.0-45.0","0","0","65889","","null","","","null","4","","","","","","","","","","","","","","","NaN",""
"","S1","","html-keyboard-response","40","182584","0.0-1.0-47.0","0","0","65889","","null","","","null","5","","","","","","","","","","","","","","","",""
"","ISI","","html-keyboard-response","41","184587","0.0-1.0-48.0","0","0","65889","","null","","","null","5","NaN","","","","","","","","","","","","","","",""
"","S2","","html-keyboard-response","42","184839","0.0-1.0-49.0","0","0","65889","","null","","","null","5","","NaN","","","","","","","","","","","","","",""
"","response","","html-keyboard-response","43","186229","0.0-1.0-50.0","0","0","65889","","1389","","","75","5","","","1","5","training","adjacent","DE","4","5","M.jpg","N.jpg","1","1","1","",""
"","feedback","","html-keyboard-response","44","187231","0.0-1.0-51.0-0.0","0","0","65889","","null","","","null","5","","","","","","","","","","","","","","","",""
"","ITI","","html-keyboard-response","45","188233","0.0-1.0-54.0","0","0","65889","","null","","","null","5","","","","","","","","","","","","","","","NaN",""
"","S1","","html-keyboard-response","46","188485","0.0-1.0-56.0","0","0","65889","","null","","","null","6","","","","","","","","","","","","","","","",""
"","ISI","","html-keyboard-response","47","190488","0.0-1.0-57.0","0","0","65889","","null","","","null","6","NaN","","","","","","","","","","","","","","",""
"","S2","","html-keyboard-response","48","190740","0.0-1.0-58.0","0","0","65889","","null","","","null","6","","NaN","","","","","","","","","","","","","",""
"","response","","html-keyboard-response","49","192437","0.0-1.0-59.0","0","0","65889","","1696","","","68","6","","","1","6","training","adjacent","DC","4","3","M.jpg","Q.jpg","0","0","1","",""
"","feedback","","html-keyboard-response","50","193439","0.0-1.0-60.0-0.0","0","0","65889","","null","","","null","6","","","","","","","","","","","","","","","",""
"","ITI","","html-keyboard-response","51","194442","0.0-1.0-63.0","0","0","65889","","null","","","null","6","","","","","","","","","","","","","","","NaN",""
"","S1","","html-keyboard-response","52","194694","0.0-1.0-65.0","0","0","65889","","null","","","null","7","","","","","","","","","","","","","","","",""
"","ISI","","html-keyboard-response","53","196697","0.0-1.0-66.0","0","0","65889","","null","","","null","7","NaN","","","","","","","","","","","","","","",""
"","S2","","html-keyboard-response","54","196948","0.0-1.0-67.0","0","0","65889","","null","","","null","7","","NaN","","","","","","","","","","","","","",""
"","response","","html-keyboard-response","55","197892","0.0-1.0-68.0","0","0","65889","","943","","","75","7","","","1","7","training","adjacent","EF","5","6","N.jpg","R.jpg","1","1","1","",""
"","feedback","","html-keyboard-response","56","198895","0.0-1.0-69.0-0.0","0","0","65889","","null","","","null","7","","","","","","","","","","","","","","","",""
"","ITI","","html-keyboard-response","57","199898","0.0-1.0-72.0","0","0","65889","","null","","","null","7","","","","","","","","","","","","","","","NaN",""
"","S1","","html-keyboard-response","58","200151","0.0-1.0-74.0","0","0","65889","","null","","","null","8","","","","","","","","","","","","","","","",""
"","ISI","","html-keyboard-response","59","202152","0.0-1.0-75.0","0","0","65889","","null","","","null","8","NaN","","","","","","","","","","","","","","",""
"","S2","","html-keyboard-response","60","202404","0.0-1.0-76.0","0","0","65889","","null","","","null","8","","NaN","","","","","","","","","","","","","",""
"","response","","html-keyboard-response","61","204405","0.0-1.0-77.0","0","0","65889","","null","","","null","8","","","1","8","training","adjacent","CB","3","2","Q.jpg","P.jpg","NaN","0","0","",""
"","too_slow_prompt","","html-keyboard-response","62","205408","0.0-1.0-79.0-0.0","1","0","65889","","null","","","null","","","","","","","","","","","","","","","","",""
"","time_out","","html-keyboard-response","63","207410","0.0-1.0-80.0-0.0","0","0","65889","","null","","","null","8","","","","","","","","","","","","","","","",""
"","ITI","","html-keyboard-response","64","208412","0.0-1.0-81.0","0","0","65889","","null","","","null","8","","","","","","","","","","","","","","","NaN",""
"","S1","","html-keyboard-response","65","208664","0.0-1.0-83.0","0","0","65889","","null","","","null","9","","","","","","","","","","","","","","","",""
"","ISI","","html-keyboard-response","66","210666","0.0-1.0-84.0","0","0","65889","","null","","","null","9","NaN","","","","","","","","","","","","","","",""
"","S2","","html-keyboard-response","67","210919","0.0-1.0-85.0","0","0","65889","","null","","","null","9","","NaN","","","","","","","","","","","","","",""
"","response","","html-keyboard-response","68","211716","0.0-1.0-86.0","0","0","65889","","796","","","68","9","","","1","9","training","adjacent","DE","4","5","M.jpg","N.jpg","0","1","0","",""
"","feedback","","html-keyboard-response","69","212719","0.0-1.0-87.0-0.0","0","0","65889","","null","","","null","9","","","","","","","","","","","","","","","",""
"","time_out","","html-keyboard-response","70","214722","0.0-1.0-89.0-0.0","0","0","65889","","null","","","null","9","","","","","","","","","","","","","","","",""
"","ITI","","html-keyboard-response","71","215724","0.0-1.0-90.0","0","0","65889","","null","","","null","9","","","","","","","","","","","","","","","NaN",""
"","S1","","html-keyboard-response","72","215976","0.0-1.0-92.0","0","0","65889","","null","","","null","10","","","","","","","","","","","","","","","",""
"","ISI","","html-keyboard-response","73","217978","0.0-1.0-93.0","0","0","65889","","null","","","null","10","NaN","","","","","","","","","","","","","","",""
"","S2","","html-keyboard-response","74","218231","0.0-1.0-94.0","0","0","65889","","null","","","null","10","","NaN","","","","","","","","","","","","","",""
"","response","","html-keyboard-response","75","219045","0.0-1.0-95.0","0","0","65889","","813","","","68","10","","","1","10","training","adjacent","CD","3","4","Q.jpg","M.jpg","0","1","0","",""
"","feedback","","html-keyboard-response","76","220047","0.0-1.0-96.0-0.0","0","0","65889","","null","","","null","10","","","","","","","","","","","","","","","",""
"","time_out","","html-keyboard-response","77","222049","0.0-1.0-98.0-0.0","0","0","65889","","null","","","null","10","","","","","","","","","","","","","","","",""
"","ITI","","html-keyboard-response","78","223051","0.0-1.0-99.0","0","0","65889","","null","","","null","10","","","","","","","","","","","","","","","NaN",""
"","S1","","html-keyboard-response","79","223304","0.0-1.0-101.0","0","0","65889","","null","","","null","11","","","","","","","","","","","","","","","",""
"","ISI","","html-keyboard-response","80","225307","0.0-1.0-102.0","0","0","65889","","null","","","null","11","NaN","","","","","","","","","","","","","","",""
"","S2","","html-keyboard-response","81","225559","0.0-1.0-103.0","0","0","65889","","null","","","null","11","","NaN","","","","","","","","","","","","","",""
"","response","","html-keyboard-response","82","225996","0.0-1.0-104.0","0","0","65889","","436","","","75","11","","","1","11","training","adjacent","EF","5","6","N.jpg","R.jpg","1","1","1","",""
"","feedback","","html-keyboard-response","83","227000","0.0-1.0-105.0-0.0","0","0","65889","","null","","","null","11","","","","","","","","","","","","","","","",""
"","ITI","","html-keyboard-response","84","228002","0.0-1.0-108.0","0","0","65889","","null","","","null","11","","","","","","","","","","","","","","","NaN",""
"","S1","","html-keyboard-response","85","228254","0.0-1.0-110.0","0","0","65889","","null","","","null","12","","","","","","","","","","","","","","","",""
"","ISI","","html-keyboard-response","86","230257","0.0-1.0-111.0","0","0","65889","","null","","","null","12","NaN","","","","","","","","","","","","","","",""
"","S2","","html-keyboard-response","87","230509","0.0-1.0-112.0","0","0","65889","","null","","","null","12","","NaN","","","","","","","","","","","","","",""
"","response","","html-keyboard-response","88","231509","0.0-1.0-113.0","0","0","65889","","998","","","75","12","","","1","12","training","adjacent","FG","6","7","R.jpg","L.jpg","1","1","1","",""
"","feedback","","html-keyboard-response","89","232512","0.0-1.0-114.0-0.0","0","0","65889","","null","","","null","12","","","","","","","","","","","","","","","",""
"","ITI","","html-keyboard-response","90","233514","0.0-1.0-117.0","0","0","65889","","null","","","null","12","","","","","","","","","","","","","","","NaN",""
"","S1","","html-keyboard-response","91","233766","0.0-1.0-119.0","0","0","65889","","null","","","null","13","","","","","","","","","","","","","","","",""
"","ISI","","html-keyboard-response","92","235768","0.0-1.0-120.0","0","0","65889","","null","","","null","13","NaN","","","","","","","","","","","","","","",""
"","S2","","html-keyboard-response","93","236021","0.0-1.0-121.0","0","0","65889","","null","","","null","13","","NaN","","","","","","","","","","","","","",""
"","response","","html-keyboard-response","94","236429","0.0-1.0-122.0","0","0","65889","","406","","","75","13","","","1","13","training","adjacent","EF","5","6","N.jpg","R.jpg","1","1","1","",""
"","feedback","","html-keyboard-response","95","237431","0.0-1.0-123.0-0.0","0","0","65889","","null","","","null","13","","","","","","","","","","","","","","","",""
"","ITI","","html-keyboard-response","96","238433","0.0-1.0-126.0","0","0","65889","","null","","","null","13","","","","","","","","","","","","","","","NaN",""
"","S1","","html-keyboard-response","97","238684","0.0-1.0-128.0","0","0","65889","","null","","","null","14","","","","","","","","","","","","","","","",""
"","ISI","","html-keyboard-response","98","240687","0.0-1.0-129.0","0","0","65889","","null","","","null","14","NaN","","","","","","","","","","","","","","",""
"","S2","","html-keyboard-response","99","240940","0.0-1.0-130.0","0","0","65889","","null","","","null","14","","NaN","","","","","","","","","","","","","",""
"","response","","html-keyboard-response","100","241420","0.0-1.0-131.0","0","0","65889","","479","","","75","14","","","1","14","training","adjacent","GF","7","6","L.jpg","R.jpg","1","0","0","",""
"","feedback","","html-keyboard-response","101","242423","0.0-1.0-132.0-0.0","0","0","65889","","null","","","null","14","","","","","","","","","","","","","","","",""
"","time_out","","html-keyboard-response","102","244426","0.0-1.0-134.0-0.0","0","0","65889","","null","","","null","14","","","","","","","","","","","","","","","",""
"","ITI","","html-keyboard-response","103","245428","0.0-1.0-135.0","0","0","65889","","null","","","null","14","","","","","","","","","","","","","","","NaN",""
"","S1","","html-keyboard-response","104","245679","0.0-1.0-137.0","0","0","65889","","null","","","null","15","","","","","","","","","","","","","","","",""
"","ISI","","html-keyboard-response","105","247681","0.0-1.0-138.0","0","0","65889","","null","","","null","15","NaN","","","","","","","","","","","","","","",""
"","S2","","html-keyboard-response","106","247934","0.0-1.0-139.0","0","0","65889","","null","","","null","15","","NaN","","","","","","","","","","","","","",""
"","response","","html-keyboard-response","107","248317","0.0-1.0-140.0","0","0","65889","","381","","","75","15","","","1","15","training","adjacent","BA","2","1","P.jpg","O.jpg","1","0","0","",""
"","feedback","","html-keyboard-response","108","249319","0.0-1.0-141.0-0.0","0","0","65889","","null","","","null","15","","","","","","","","","","","","","","","",""
"","time_out","","html-keyboard-response","109","251321","0.0-1.0-143.0-0.0","0","0","65889","","null","","","null","15","","","","","","","","","","","","","","","",""
"","ITI","","html-keyboard-response","110","252323","0.0-1.0-144.0","0","0","65889","","null","","","null","15","","","","","","","","","","","","","","","NaN",""
"","S1","","html-keyboard-response","111","252576","0.0-1.0-146.0","0","0","65889","","null","","","null","16","","","","","","","","","","","","","","","",""
"","ISI","","html-keyboard-response","112","254578","0.0-1.0-147.0","0","0","65889","","null","","","null","16","NaN","","","","","","","","","","","","","","",""
"","S2","","html-keyboard-response","113","254830","0.0-1.0-148.0","0","0","65889","","null","","","null","16","","NaN","","","","","","","","","","","","","",""
"","response","","html-keyboard-response","114","255196","0.0-1.0-149.0","0","0","65889","","365","","","75","16","","","1","16","training","adjacent","ED","5","4","N.jpg","M.jpg","1","0","0","",""
"","feedback","","html-keyboard-response","115","256199","0.0-1.0-150.0-0.0","0","0","65889","","null","","","null","16","","","","","","","","","","","","","","","",""
"","time_out","","html-keyboard-response","116","258201","0.0-1.0-152.0-0.0","0","0","65889","","null","","","null","16","","","","","","","","","","","","","","","",""
"","ITI","","html-keyboard-response","117","259203","0.0-1.0-153.0","0","0","65889","","null","","","null","16","","","","","","","","","","","","","","","NaN",""
"","S1","","html-keyboard-response","118","259455","0.0-1.0-155.0","0","0","65889","","null","","","null","17","","","","","","","","","","","","","","","",""
"","ISI","","html-keyboard-response","119","261457","0.0-1.0-156.0","0","0","65889","","null","","","null","17","NaN","","","","","","","","","","","","","","",""
"","S2","","html-keyboard-response","120","261709","0.0-1.0-157.0","0","0","65889","","null","","","null","17","","NaN","","","","","","","","","","","","","",""
"","response","","html-keyboard-response","121","262285","0.0-1.0-158.0","0","0","65889","","574","","","75","17","","","1","17","training","adjacent","AB","1","2","O.jpg","P.jpg","1","1","1","",""
"","feedback","","html-keyboard-response","122","263286","0.0-1.0-159.0-0.0","0","0","65889","","null","","","null","17","","","","","","","","","","","","","","","",""
"","ITI","","html-keyboard-response","123","264289","0.0-1.0-162.0","0","0","65889","","null","","","null","17","","","","","","","","","","","","","","","NaN",""
"","S1","","html-keyboard-response","124","264541","0.0-1.0-164.0","0","0","65889","","null","","","null","18","","","","","","","","","","","","","","","",""
"","ISI","","html-keyboard-response","125","266544","0.0-1.0-165.0","0","0","65889","","null","","","null","18","NaN","","","","","","","","","","","","","","",""
"","S2","","html-keyboard-response","126","266796","0.0-1.0-166.0","0","0","65889","","null","","","null","18","","NaN","","","","","","","","","","","","","",""
"","response","","html-keyboard-response","127","267333","0.0-1.0-167.0","0","0","65889","","536","","","68","18","","","1","18","training","adjacent","FG","6","7","R.jpg","L.jpg","0","1","0","",""
"","feedback","","html-keyboard-response","128","268335","0.0-1.0-168.0-0.0","0","0","65889","","null","","","null","18","","","","","","","","","","","","","","","",""
"","time_out","","html-keyboard-response","129","270338","0.0-1.0-170.0-0.0","0","0","65889","","null","","","null","18","","","","","","","","","","","","","","","",""
"","ITI","","html-keyboard-response","130","271341","0.0-1.0-171.0","0","0","65889","","null","","","null","18","","","","","","","","","","","","","","","NaN",""
"","S1","","html-keyboard-response","131","271593","0.0-1.0-173.0","0","0","65889","","null","","","null","19","","","","","","","","","","","","","","","",""
"","ISI","","html-keyboard-response","132","273595","0.0-1.0-174.0","0","0","65889","","null","","","null","19","NaN","","","","","","","","","","","","","","",""
"","S2","","html-keyboard-response","133","273847","0.0-1.0-175.0","0","0","65889","","null","","","null","19","","NaN","","","","","","","","","","","","","",""
"","response","","html-keyboard-response","134","274685","0.0-1.0-176.0","0","0","65889","","837","","","68","19","","","1","19","training","adjacent","CB","3","2","Q.jpg","P.jpg","0","0","1","",""
"","feedback","","html-keyboard-response","135","275688","0.0-1.0-177.0-0.0","0","0","65889","","null","","","null","19","","","","","","","","","","","","","","","",""
"","ITI","","html-keyboard-response","136","276691","0.0-1.0-180.0","0","0","65889","","null","","","null","19","","","","","","","","","","","","","","","NaN",""
"","S1","","html-keyboard-response","137","276942","0.0-1.0-182.0","0","0","65889","","null","","","null","20","","","","","","","","","","","","","","","",""
"","ISI","","html-keyboard-response","138","278944","0.0-1.0-183.0","0","0","65889","","null","","","null","20","NaN","","","","","","","","","","","","","","",""
"","S2","","html-keyboard-response","139","279196","0.0-1.0-184.0","0","0","65889","","null","","","null","20","","NaN","","","","","","","","","","","","","",""
"","response","","html-keyboard-response","140","280124","0.0-1.0-185.0","0","0","65889","","928","","","75","20","","","1","20","training","adjacent","DC","4","3","M.jpg","Q.jpg","1","0","0","",""
"","feedback","","html-keyboard-response","141","281128","0.0-1.0-186.0-0.0","0","0","65889","","null","","","null","20","","","","","","","","","","","","","","","",""
"","time_out","","html-keyboard-response","142","283130","0.0-1.0-188.0-0.0","0","0","65889","","null","","","null","20","","","","","","","","","","","","","","","",""
"","ITI","","html-keyboard-response","143","284132","0.0-1.0-189.0","0","0","65889","","null","","","null","20","","","","","","","","","","","","","","","NaN",""
"","S1","","html-keyboard-response","144","284384","0.0-1.0-191.0","0","0","65889","","null","","","null","21","","","","","","","","","","","","","","","",""
"","ISI","","html-keyboard-response","145","286387","0.0-1.0-192.0","0","0","65889","","null","","","null","21","NaN","","","","","","","","","","","","","","",""
"","S2","","html-keyboard-response","146","286639","0.0-1.0-193.0","0","0","65889","","null","","","null","21","","NaN","","","","","","","","","","","","","",""
"","response","","html-keyboard-response","147","287453","0.0-1.0-194.0","0","0","65889","","813","","","75","21","","","1","21","training","adjacent","CD","3","4","Q.jpg","M.jpg","1","1","1","",""
"","feedback","","html-keyboard-response","148","288456","0.0-1.0-195.0-0.0","0","0","65889","","null","","","null","21","","","","","","","","","","","","","","","",""
"","ITI","","html-keyboard-response","149","289459","0.0-1.0-198.0","0","0","65889","","null","","","null","21","","","","","","","","","","","","","","","NaN",""
"","S1","","html-keyboard-response","150","289712","0.0-1.0-200.0","0","0","65889","","null","","","null","22","","","","","","","","","","","","","","","",""
"","ISI","","html-keyboard-response","151","291713","0.0-1.0-201.0","0","0","65889","","null","","","null","22","NaN","","","","","","","","","","","","","","",""
"","S2","","html-keyboard-response","152","291966","0.0-1.0-202.0","0","0","65889","","null","","","null","22","","NaN","","","","","","","","","","","","","",""
"","response","","html-keyboard-response","153","292853","0.0-1.0-203.0","0","0","65889","","886","","","75","22","","","1","22","training","adjacent","BA","2","1","P.jpg","O.jpg","1","0","0","",""
"","feedback","","html-keyboard-response","154","293856","0.0-1.0-204.0-0.0","0","0","65889","","null","","","null","22","","","","","","","","","","","","","","","",""
"","time_out","","html-keyboard-response","155","295857","0.0-1.0-206.0-0.0","0","0","65889","","null","","","null","22","","","","","","","","","","","","","","","",""
"","ITI","","html-keyboard-response","156","296859","0.0-1.0-207.0","0","0","65889","","null","","","null","22","","","","","","","","","","","","","","","NaN",""
"","S1","","html-keyboard-response","157","297111","0.0-1.0-209.0","0","0","65889","","null","","","null","23","","","","","","","","","","","","","","","",""
"","ISI","","html-keyboard-response","158","299113","0.0-1.0-210.0","0","0","65889","","null","","","null","23","NaN","","","","","","","","","","","","","","",""
"","S2","","html-keyboard-response","159","299365","0.0-1.0-211.0","0","0","65889","","null","","","null","23","","NaN","","","","","","","","","","","","","",""
"","response","","html-keyboard-response","160","299525","0.0-1.0-212.0","0","0","65889","","158","","","75","23","","","1","23","training","adjacent","EF","5","6","N.jpg","R.jpg","1","1","1","",""
"","feedback","","html-keyboard-response","161","300528","0.0-1.0-213.0-0.0","0","0","65889","","null","","","null","23","","","","","","","","","","","","","","","",""
"","ITI","","html-keyboard-response","162","301531","0.0-1.0-216.0","0","0","65889","","null","","","null","23","","","","","","","","","","","","","","","NaN",""
"","S1","","html-keyboard-response","163","301783","0.0-1.0-218.0","0","0","65889","","null","","","null","24","","","","","","","","","","","","","","","",""
"","ISI","","html-keyboard-response","164","303786","0.0-1.0-219.0","0","0","65889","","null","","","null","24","NaN","","","","","","","","","","","","","","",""
"","S2","","html-keyboard-response","165","304037","0.0-1.0-220.0","0","0","65889","","null","","","null","24","","NaN","","","","","","","","","","","","","",""
"","response","","html-keyboard-response","166","304533","0.0-1.0-221.0","0","0","65889","","495","","","68","24","","","1","24","training","adjacent","FE","6","5","R.jpg","N.jpg","0","0","1","",""
"","feedback","","html-keyboard-response","167","305535","0.0-1.0-222.0-0.0","0","0","65889","","null","","","null","24","","","","","","","","","","","","","","","",""
"","ITI","","html-keyboard-response","168","306537","0.0-1.0-225.0","0","0","65889","","null","","","null","24","","","","","","","","","","","","","","","NaN",""
"","S1","","html-keyboard-response","169","306789","0.0-1.0-227.0","0","0","65889","","null","","","null","25","","","","","","","","","","","","","","","",""
"","ISI","","html-keyboard-response","170","308791","0.0-1.0-228.0","0","0","65889","","null","","","null","25","NaN","","","","","","","","","","","","","","",""
"","S2","","html-keyboard-response","171","309044","0.0-1.0-229.0","0","0","65889","","null","","","null","25","","NaN","","","","","","","","","","","","","",""
"","response","","html-keyboard-response","172","310061","0.0-1.0-230.0","0","0","65889","","1016","","","68","25","","","1","25","training","adjacent","BC","2","3","P.jpg","Q.jpg","0","1","0","",""
"","feedback","","html-keyboard-response","173","311063","0.0-1.0-231.0-0.0","0","0","65889","","null","","","null","25","","","","","","","","","","","","","","","",""
"","time_out","","html-keyboard-response","174","313065","0.0-1.0-233.0-0.0","0","0","65889","","null","","","null","25","","","","","","","","","","","","","","","",""
"","ITI","","html-keyboard-response","175","314066","0.0-1.0-234.0","0","0","65889","","null","","","null","25","","","","","","","","","","","","","","","NaN",""
"","S1","","html-keyboard-response","176","314318","0.0-1.0-236.0","0","0","65889","","null","","","null","26","","","","","","","","","","","","","","","",""
"","ISI","","html-keyboard-response","177","316321","0.0-1.0-237.0","0","0","65889","","null","","","null","26","NaN","","","","","","","","","","","","","","",""
"","S2","","html-keyboard-response","178","316572","0.0-1.0-238.0","0","0","65889","","null","","","null","26","","NaN","","","","","","","","","","","","","",""
"","response","","html-keyboard-response","179","316861","0.0-1.0-239.0","0","0","65889","","288","","","68","26","","","1","26","training","adjacent","GF","7","6","L.jpg","R.jpg","0","0","1","",""
"","feedback","","html-keyboard-response","180","317863","0.0-1.0-240.0-0.0","0","0","65889","","null","","","null","26","","","","","","","","","","","","","","","",""
"","ITI","","html-keyboard-response","181","318866","0.0-1.0-243.0","0","0","65889","","null","","","null","26","","","","","","","","","","","","","","","NaN",""
"","S1","","html-keyboard-response","182","319118","0.0-1.0-245.0","0","0","65889","","null","","","null","27","","","","","","","","","","","","","","","",""
"","ISI","","html-keyboard-response","183","321121","0.0-1.0-246.0","0","0","65889","","null","","","null","27","NaN","","","","","","","","","","","","","","",""
"","S2","","html-keyboard-response","184","321374","0.0-1.0-247.0","0","0","65889","","null","","","null","27","","NaN","","","","","","","","","","","","","",""
"","response","","html-keyboard-response","185","321749","0.0-1.0-248.0","0","0","65889","","374","","","75","27","","","1","27","training","adjacent","FG","6","7","R.jpg","L.jpg","1","1","1","",""
"","feedback","","html-keyboard-response","186","322753","0.0-1.0-249.0-0.0","0","0","65889","","null","","","null","27","","","","","","","","","","","","","","","",""
"","ITI","","html-keyboard-response","187","323754","0.0-1.0-252.0","0","0","65889","","null","","","null","27","","","","","","","","","","","","","","","NaN",""
"","S1","","html-keyboard-response","188","324006","0.0-1.0-254.0","0","0","65889","","null","","","null","28","","","","","","","","","","","","","","","",""
"","ISI","","html-keyboard-response","189","326009","0.0-1.0-255.0","0","0","65889","","null","","","null","28","NaN","","","","","","","","","","","","","","",""
"","S2","","html-keyboard-response","190","326260","0.0-1.0-256.0","0","0","65889","","null","","","null","28","","NaN","","","","","","","","","","","","","",""
"","response","","html-keyboard-response","191","326909","0.0-1.0-257.0","0","0","65889","","647","","","75","28","","","1","28","training","adjacent","AB","1","2","O.jpg","P.jpg","1","1","1","",""
"","feedback","","html-keyboard-response","192","327912","0.0-1.0-258.0-0.0","0","0","65889","","null","","","null","28","","","","","","","","","","","","","","","",""
"","ITI","","html-keyboard-response","193","328913","0.0-1.0-261.0","0","0","65889","","null","","","null","28","","","","","","","","","","","","","","","NaN",""
"","S1","","html-keyboard-response","194","329166","0.0-1.0-263.0","0","0","65889","","null","","","null","29","","","","","","","","","","","","","","","",""
"","ISI","","html-keyboard-response","195","331168","0.0-1.0-264.0","0","0","65889","","null","","","null","29","NaN","","","","","","","","","","","","","","",""
"","S2","","html-keyboard-response","196","331421","0.0-1.0-265.0","0","0","65889","","null","","","null","29","","NaN","","","","","","","","","","","","","",""
"","response","","html-keyboard-response","197","331773","0.0-1.0-266.0","0","0","65889","","351","","","75","29","","","1","29","training","adjacent","AB","1","2","O.jpg","P.jpg","1","1","1","",""
"","feedback","","html-keyboard-response","198","332775","0.0-1.0-267.0-0.0","0","0","65889","","null","","","null","29","","","","","","","","","","","","","","","",""
"","ITI","","html-keyboard-response","199","333778","0.0-1.0-270.0","0","0","65889","","null","","","null","29","","","","","","","","","","","","","","","NaN",""
"","S1","","html-keyboard-response","200","334030","0.0-1.0-272.0","0","0","65889","","null","","","null","30","","","","","","","","","","","","","","","",""
"","ISI","","html-keyboard-response","201","336032","0.0-1.0-273.0","0","0","65889","","null","","","null","30","NaN","","","","","","","","","","","","","","",""
"","S2","","html-keyboard-response","202","336284","0.0-1.0-274.0","0","0","65889","","null","","","null","30","","NaN","","","","","","","","","","","","","",""
"","response","","html-keyboard-response","203","337197","0.0-1.0-275.0","0","0","65889","","912","","","68","30","","","1","30","training","adjacent","GF","7","6","L.jpg","R.jpg","0","0","1","",""
"","feedback","","html-keyboard-response","204","338199","0.0-1.0-276.0-0.0","0","0","65889","","null","","","null","30","","","","","","","","","","","","","","","",""
"","ITI","","html-keyboard-response","205","339200","0.0-1.0-279.0","0","0","65889","","null","","","null","30","","","","","","","","","","","","","","","NaN",""
"","S1","","html-keyboard-response","206","339452","0.0-1.0-281.0","0","0","65889","","null","","","null","31","","","","","","","","","","","","","","","",""
"","ISI","","html-keyboard-response","207","341454","0.0-1.0-282.0","0","0","65889","","null","","","null","31","NaN","","","","","","","","","","","","","","",""
"","S2","","html-keyboard-response","208","341707","0.0-1.0-283.0","0","0","65889","","null","","","null","31","","NaN","","","","","","","","","","","","","",""
"","response","","html-keyboard-response","209","341941","0.0-1.0-284.0","0","0","65889","","233","","","75","31","","","1","31","training","adjacent","ED","5","4","N.jpg","M.jpg","1","0","0","",""
"","feedback","","html-keyboard-response","210","342943","0.0-1.0-285.0-0.0","0","0","65889","","null","","","null","31","","","","","","","","","","","","","","","",""
"","time_out","","html-keyboard-response","211","344946","0.0-1.0-287.0-0.0","0","0","65889","","null","","","null","31","","","","","","","","","","","","","","","",""
"","ITI","","html-keyboard-response","212","345949","0.0-1.0-288.0","0","0","65889","","null","","","null","31","","","","","","","","","","","","","","","NaN",""
"","S1","","html-keyboard-response","213","346201","0.0-1.0-290.0","0","0","65889","","null","","","null","32","","","","","","","","","","","","","","","",""
"","ISI","","html-keyboard-response","214","348203","0.0-1.0-291.0","0","0","65889","","null","","","null","32","NaN","","","","","","","","","","","","","","",""
"","S2","","html-keyboard-response","215","348456","0.0-1.0-292.0","0","0","65889","","null","","","null","32","","NaN","","","","","","","","","","","","","",""
"","response","","html-keyboard-response","216","348837","0.0-1.0-293.0","0","0","65889","","380","","","75","32","","","1","32","training","adjacent","ED","5","4","N.jpg","M.jpg","1","0","0","",""
"","feedback","","html-keyboard-response","217","349840","0.0-1.0-294.0-0.0","0","0","65889","","null","","","null","32","","","","","","","","","","","","","","","",""
"","time_out","","html-keyboard-response","218","351842","0.0-1.0-296.0-0.0","0","0","65889","","null","","","null","32","","","","","","","","","","","","","","","",""
"","ITI","","html-keyboard-response","219","352845","0.0-1.0-297.0","0","0","65889","","null","","","null","32","","","","","","","","","","","","","","","NaN",""
"","S1","","html-keyboard-response","220","353097","0.0-1.0-299.0","0","0","65889","","null","","","null","33","","","","","","","","","","","","","","","",""
"","ISI","","html-keyboard-response","221","355099","0.0-1.0-300.0","0","0","65889","","null","","","null","33","NaN","","","","","","","","","","","","","","",""
"","S2","","html-keyboard-response","222","355351","0.0-1.0-301.0","0","0","65889","","null","","","null","33","","NaN","","","","","","","","","","","","","",""
"","response","","html-keyboard-response","223","355653","0.0-1.0-302.0","0","0","65889","","300","","","75","33","","","1","33","training","adjacent","CD","3","4","Q.jpg","M.jpg","1","1","1","",""
"","feedback","","html-keyboard-response","224","356656","0.0-1.0-303.0-0.0","0","0","65889","","null","","","null","33","","","","","","","","","","","","","","","",""
"","ITI","","html-keyboard-response","225","357659","0.0-1.0-306.0","0","0","65889","","null","","","null","33","","","","","","","","","","","","","","","NaN",""
"","S1","","html-keyboard-response","226","357911","0.0-1.0-308.0","0","0","65889","","null","","","null","34","","","","","","","","","","","","","","","",""
"","ISI","","html-keyboard-response","227","359912","0.0-1.0-309.0","0","0","65889","","null","","","null","34","NaN","","","","","","","","","","","","","","",""
"","S2","","html-keyboard-response","228","360165","0.0-1.0-310.0","0","0","65889","","null","","","null","34","","NaN","","","","","","","","","","","","","",""
"","response","","html-keyboard-response","229","360557","0.0-1.0-311.0","0","0","65889","","391","","","75","34","","","1","34","training","adjacent","DE","4","5","M.jpg","N.jpg","1","1","1","",""
"","feedback","","html-keyboard-response","230","361560","0.0-1.0-312.0-0.0","0","0","65889","","null","","","null","34","","","","","","","","","","","","","","","",""
"","ITI","","html-keyboard-response","231","362563","0.0-1.0-315.0","0","0","65889","","null","","","null","34","","","","","","","","","","","","","","","NaN",""
"","S1","","html-keyboard-response","232","362816","0.0-1.0-317.0","0","0","65889","","null","","","null","35","","","","","","","","","","","","","","","",""
"","ISI","","html-keyboard-response","233","364818","0.0-1.0-318.0","0","0","65889","","null","","","null","35","NaN","","","","","","","","","","","","","","",""
"","S2","","html-keyboard-response","234","365070","0.0-1.0-319.0","0","0","65889","","null","","","null","35","","NaN","","","","","","","","","","","","","",""
"","response","","html-keyboard-response","235","365349","0.0-1.0-320.0","0","0","65889","","278","","","75","35","","","1","35","training","adjacent","DE","4","5","M.jpg","N.jpg","1","1","1","",""
"","feedback","","html-keyboard-response","236","366351","0.0-1.0-321.0-0.0","0","0","65889","","null","","","null","35","","","","","","","","","","","","","","","",""
"","ITI","","html-keyboard-response","237","367353","0.0-1.0-324.0","0","0","65889","","null","","","null","35","","","","","","","","","","","","","","","NaN",""
"","S1","","html-keyboard-response","238","367606","0.0-1.0-326.0","0","0","65889","","null","","","null","36","","","","","","","","","","","","","","","",""
"","ISI","","html-keyboard-response","239","369607","0.0-1.0-327.0","0","0","65889","","null","","","null","36","NaN","","","","","","","","","","","","","","",""
"","S2","","html-keyboard-response","240","369860","0.0-1.0-328.0","0","0","65889","","null","","","null","36","","NaN","","","","","","","","","","","","","",""
"","response","","html-keyboard-response","241","370053","0.0-1.0-329.0","0","0","65889","","192","","","75","36","","","1","36","training","adjacent","DC","4","3","M.jpg","Q.jpg","1","0","0","",""
"","feedback","","html-keyboard-response","242","371056","0.0-1.0-330.0-0.0","0","0","65889","","null","","","null","36","","","","","","","","","","","","","","","",""
"","time_out","","html-keyboard-response","243","373058","0.0-1.0-332.0-0.0","0","0","65889","","null","","","null","36","","","","","","","","","","","","","","","",""
"","ITI","","html-keyboard-response","244","374060","0.0-1.0-333.0","0","0","65889","","null","","","null","36","","","","","","","","","","","","","","","NaN",""
"","S1","","html-keyboard-response","245","374313","0.0-1.0-335.0","0","0","65889","","null","","","null","37","","","","","","","","","","","","","","","",""
"","ISI","","html-keyboard-response","246","376316","0.0-1.0-336.0","0","0","65889","","null","","","null","37","NaN","","","","","","","","","","","","","","",""
"","S2","","html-keyboard-response","247","376568","0.0-1.0-337.0","0","0","65889","","null","","","null","37","","NaN","","","","","","","","","","","","","",""
"","response","","html-keyboard-response","248","377013","0.0-1.0-338.0","0","0","65889","","443","","","68","37","","","1","37","training","adjacent","BC","2","3","P.jpg","Q.jpg","0","1","0","",""
"","feedback","","html-keyboard-response","249","378016","0.0-1.0-339.0-0.0","0","0","65889","","null","","","null","37","","","","","","","","","","","","","","","",""
"","time_out","","html-keyboard-response","250","380017","0.0-1.0-341.0-0.0","0","0","65889","","null","","","null","37","","","","","","","","","","","","","","","",""
"","ITI","","html-keyboard-response","251","381019","0.0-1.0-342.0","0","0","65889","","null","","","null","37","","","","","","","","","","","","","","","NaN",""
"","S1","","html-keyboard-response","252","381271","0.0-1.0-344.0","0","0","65889","","null","","","null","38","","","","","","","","","","","","","","","",""
"","ISI","","html-keyboard-response","253","383273","0.0-1.0-345.0","0","0","65889","","null","","","null","38","NaN","","","","","","","","","","","","","","",""
"","S2","","html-keyboard-response","254","383525","0.0-1.0-346.0","0","0","65889","","null","","","null","38","","NaN","","","","","","","","","","","","","",""
"","response","","html-keyboard-response","255","383949","0.0-1.0-347.0","0","0","65889","","423","","","68","38","","","1","38","training","adjacent","GF","7","6","L.jpg","R.jpg","0","0","1","",""
"","feedback","","html-keyboard-response","256","384952","0.0-1.0-348.0-0.0","0","0","65889","","null","","","null","38","","","","","","","","","","","","","","","",""
"","ITI","","html-keyboard-response","257","385955","0.0-1.0-351.0","0","0","65889","","null","","","null","38","","","","","","","","","","","","","","","NaN",""
"","S1","","html-keyboard-response","258","386207","0.0-1.0-353.0","0","0","65889","","null","","","null","39","","","","","","","","","","","","","","","",""
"","ISI","","html-keyboard-response","259","388209","0.0-1.0-354.0","0","0","65889","","null","","","null","39","NaN","","","","","","","","","","","","","","",""
"","S2","","html-keyboard-response","260","388462","0.0-1.0-355.0","0","0","65889","","null","","","null","39","","NaN","","","","","","","","","","","","","",""
"","response","","html-keyboard-response","261","388630","0.0-1.0-356.0","0","0","65889","","167","","","75","39","","","1","39","training","adjacent","FE","6","5","R.jpg","N.jpg","1","0","0","",""
"","feedback","","html-keyboard-response","262","389633","0.0-1.0-357.0-0.0","0","0","65889","","null","","","null","39","","","","","","","","","","","","","","","",""
"","time_out","","html-keyboard-response","263","391634","0.0-1.0-359.0-0.0","0","0","65889","","null","","","null","39","","","","","","","","","","","","","","","",""
"","ITI","","html-keyboard-response","264","392637","0.0-1.0-360.0","0","0","65889","","null","","","null","39","","","","","","","","","","","","","","","NaN",""
"","S1","","html-keyboard-response","265","392888","0.0-1.0-362.0","0","0","65889","","null","","","null","40","","","","","","","","","","","","","","","",""
"","ISI","","html-keyboard-response","266","394891","0.0-1.0-363.0","0","0","65889","","null","","","null","40","NaN","","","","","","","","","","","","","","",""
"","S2","","html-keyboard-response","267","395143","0.0-1.0-364.0","0","0","65889","","null","","","null","40","","NaN","","","","","","","","","","","","","",""
"","response","","html-keyboard-response","268","395253","0.0-1.0-365.0","0","0","65889","","108","","","75","40","","","1","40","training","adjacent","CB","3","2","Q.jpg","P.jpg","1","0","0","",""
"","feedback","","html-keyboard-response","269","396255","0.0-1.0-366.0-0.0","0","0","65889","","null","","","null","40","","","","","","","","","","","","","","","",""
"","time_out","","html-keyboard-response","270","398256","0.0-1.0-368.0-0.0","0","0","65889","","null","","","null","40","","","","","","","","","","","","","","","",""
"","ITI","","html-keyboard-response","271","399259","0.0-1.0-369.0","0","0","65889","","null","","","null","40","","","","","","","","","","","","","","","NaN",""
"","S1","","html-keyboard-response","272","399512","0.0-1.0-371.0","0","0","65889","","null","","","null","41","","","","","","","","","","","","","","","",""
"","ISI","","html-keyboard-response","273","401513","0.0-1.0-372.0","0","0","65889","","null","","","null","41","NaN","","","","","","","","","","","","","","",""
"","S2","","html-keyboard-response","274","401766","0.0-1.0-373.0","0","0","65889","","null","","","null","41","","NaN","","","","","","","","","","","","","",""
"","response","","html-keyboard-response","275","402005","0.0-1.0-374.0","0","0","65889","","238","","","75","41","","","1","41","training","adjacent","AB","1","2","O.jpg","P.jpg","1","1","1","",""
"","feedback","","html-keyboard-response","276","403007","0.0-1.0-375.0-0.0","0","0","65889","","null","","","null","41","","","","","","","","","","","","","","","",""
"","ITI","","html-keyboard-response","277","404010","0.0-1.0-378.0","0","0","65889","","null","","","null","41","","","","","","","","","","","","","","","NaN",""
"","S1","","html-keyboard-response","278","404262","0.0-1.0-380.0","0","0","65889","","null","","","null","42","","","","","","","","","","","","","","","",""
"","ISI","","html-keyboard-response","279","406263","0.0-1.0-381.0","0","0","65889","","null","","","null","42","NaN","","","","","","","","","","","","","","",""
"","S2","","html-keyboard-response","280","406515","0.0-1.0-382.0","0","0","65889","","null","","","null","42","","NaN","","","","","","","","","","","","","",""
"","response","","html-keyboard-response","281","406837","0.0-1.0-383.0","0","0","65889","","320","","","68","42","","","1","42","training","adjacent","ED","5","4","N.jpg","M.jpg","0","0","1","",""
"","feedback","","html-keyboard-response","282","407839","0.0-1.0-384.0-0.0","0","0","65889","","null","","","null","42","","","","","","","","","","","","","","","",""
"","ITI","","html-keyboard-response","283","408842","0.0-1.0-387.0","0","0","65889","","null","","","null","42","","","","","","","","","","","","","","","NaN",""
"","S1","","html-keyboard-response","284","409094","0.0-1.0-389.0","0","0","65889","","null","","","null","43","","","","","","","","","","","","","","","",""
"","ISI","","html-keyboard-response","285","411096","0.0-1.0-390.0","0","0","65889","","null","","","null","43","NaN","","","","","","","","","","","","","","",""
"","S2","","html-keyboard-response","286","411348","0.0-1.0-391.0","0","0","65889","","null","","","null","43","","NaN","","","","","","","","","","","","","",""
"","response","","html-keyboard-response","287","411933","0.0-1.0-392.0","0","0","65889","","583","","","68","43","","","1","43","training","adjacent","BA","2","1","P.jpg","O.jpg","0","0","1","",""
"","feedback","","html-keyboard-response","288","412935","0.0-1.0-393.0-0.0","0","0","65889","","null","","","null","43","","","","","","","","","","","","","","","",""
"","ITI","","html-keyboard-response","289","413938","0.0-1.0-396.0","0","0","65889","","null","","","null","43","","","","","","","","","","","","","","","NaN",""
"","S1","","html-keyboard-response","290","414190","0.0-1.0-398.0","0","0","65889","","null","","","null","44","","","","","","","","","","","","","","","",""
"","ISI","","html-keyboard-response","291","416192","0.0-1.0-399.0","0","0","65889","","null","","","null","44","NaN","","","","","","","","","","","","","","",""
"","S2","","html-keyboard-response","292","416444","0.0-1.0-400.0","0","0","65889","","null","","","null","44","","NaN","","","","","","","","","","","","","",""
"","response","","html-keyboard-response","293","416829","0.0-1.0-401.0","0","0","65889","","383","","","68","44","","","1","44","training","adjacent","CD","3","4","Q.jpg","M.jpg","0","1","0","",""
"","feedback","","html-keyboard-response","294","417831","0.0-1.0-402.0-0.0","0","0","65889","","null","","","null","44","","","","","","","","","","","","","","","",""
"","time_out","","html-keyboard-response","295","419834","0.0-1.0-404.0-0.0","0","0","65889","","null","","","null","44","","","","","","","","","","","","","","","",""
"","ITI","","html-keyboard-response","296","420837","0.0-1.0-405.0","0","0","65889","","null","","","null","44","","","","","","","","","","","","","","","NaN",""
"","S1","","html-keyboard-response","297","421089","0.0-1.0-407.0","0","0","65889","","null","","","null","45","","","","","","","","","","","","","","","",""
"","ISI","","html-keyboard-response","298","423091","0.0-1.0-408.0","0","0","65889","","null","","","null","45","NaN","","","","","","","","","","","","","","",""
"","S2","","html-keyboard-response","299","423343","0.0-1.0-409.0","0","0","65889","","null","","","null","45","","NaN","","","","","","","","","","","","","",""
"","response","","html-keyboard-response","300","423653","0.0-1.0-410.0","0","0","65889","","308","","","68","45","","","1","45","training","adjacent","BA","2","1","P.jpg","O.jpg","0","0","1","",""
"","feedback","","html-keyboard-response","301","424656","0.0-1.0-411.0-0.0","0","0","65889","","null","","","null","45","","","","","","","","","","","","","","","",""
"","ITI","","html-keyboard-response","302","425658","0.0-1.0-414.0","0","0","65889","","null","","","null","45","","","","","","","","","","","","","","","NaN",""
"","S1","","html-keyboard-response","303","425910","0.0-1.0-416.0","0","0","65889","","null","","","null","46","","","","","","","","","","","","","","","",""
"","ISI","","html-keyboard-response","304","427912","0.0-1.0-417.0","0","0","65889","","null","","","null","46","NaN","","","","","","","","","","","","","","",""
"","S2","","html-keyboard-response","305","428164","0.0-1.0-418.0","0","0","65889","","null","","","null","46","","NaN","","","","","","","","","","","","","",""
"","response","","html-keyboard-response","306","428333","0.0-1.0-419.0","0","0","65889","","168","","","75","46","","","1","46","training","adjacent","FG","6","7","R.jpg","L.jpg","1","1","1","",""
"","feedback","","html-keyboard-response","307","429336","0.0-1.0-420.0-0.0","0","0","65889","","null","","","null","46","","","","","","","","","","","","","","","",""
"","ITI","","html-keyboard-response","308","430338","0.0-1.0-423.0","0","0","65889","","null","","","null","46","","","","","","","","","","","","","","","NaN",""
"","S1","","html-keyboard-response","309","430590","0.0-1.0-425.0","0","0","65889","","null","","","null","47","","","","","","","","","","","","","","","",""
"","ISI","","html-keyboard-response","310","432593","0.0-1.0-426.0","0","0","65889","","null","","","null","47","NaN","","","","","","","","","","","","","","",""
"","S2","","html-keyboard-response","311","432845","0.0-1.0-427.0","0","0","65889","","null","","","null","47","","NaN","","","","","","","","","","","","","",""
"","response","","html-keyboard-response","312","433477","0.0-1.0-428.0","0","0","65889","","630","","","68","47","","","1","47","training","adjacent","BC","2","3","P.jpg","Q.jpg","0","1","0","",""
"","feedback","","html-keyboard-response","313","434479","0.0-1.0-429.0-0.0","0","0","65889","","null","","","null","47","","","","","","","","","","","","","","","",""
"","time_out","","html-keyboard-response","314","436482","0.0-1.0-431.0-0.0","0","0","65889","","null","","","null","47","","","","","","","","","","","","","","","",""
"","ITI","","html-keyboard-response","315","437483","0.0-1.0-432.0","0","0","65889","","null","","","null","47","","","","","","","","","","","","","","","NaN",""
"","block_over","","html-keyboard-response","316","489310","0.0-1.0-433.0-0.0","0","0","65889","","51825","","","32","47","","","","","","","","","","","","","","","",""
"","S1","","html-keyboard-response","317","489562","0.0-1.0-434.0","0","0","65889","","null","","","null","48","","","","","","","","","","","","","","","",""
"","ISI","","html-keyboard-response","318","491564","0.0-1.0-435.0","0","0","65889","","null","","","null","48","NaN","","","","","","","","","","","","","","",""
"","S2","","html-keyboard-response","319","491817","0.0-1.0-436.0","0","0","65889","","null","","","null","48","","NaN","","","","","","","","","","","","","",""
"","response","","html-keyboard-response","320","492229","0.0-1.0-437.0","0","0","65889","","411","","","68","48","","","2","48","training","adjacent","EF","5","6","N.jpg","R.jpg","0","1","0","",""
"","feedback","","html-keyboard-response","321","493232","0.0-1.0-438.0-0.0","0","0","65889","","null","","","null","48","","","","","","","","","","","","","","","",""
"","time_out","","html-keyboard-response","322","495234","0.0-1.0-440.0-0.0","0","0","65889","","null","","","null","48","","","","","","","","","","","","","","","",""
"","ITI","","html-keyboard-response","323","496237","0.0-1.0-441.0","0","0","65889","","null","","","null","48","","","","","","","","","","","","","","","NaN",""
"","S1","","html-keyboard-response","324","496488","0.0-1.0-443.0","0","0","65889","","null","","","null","49","","","","","","","","","","","","","","","",""
"","ISI","","html-keyboard-response","325","498490","0.0-1.0-444.0","0","0","65889","","null","","","null","49","NaN","","","","","","","","","","","","","","",""
"","S2","","html-keyboard-response","326","498748","0.0-1.0-445.0","0","0","65889","","null","","","null","49","","NaN","","","","","","","","","","","","","",""
"","response","","html-keyboard-response","327","499349","0.0-1.0-446.0","0","0","65889","","599","","","75","49","","","2","49","training","adjacent","CB","3","2","Q.jpg","P.jpg","1","0","0","",""
"","feedback","","html-keyboard-response","328","500351","0.0-1.0-447.0-0.0","0","0","65889","","null","","","null","49","","","","","","","","","","","","","","","",""
"","time_out","","html-keyboard-response","329","502353","0.0-1.0-449.0-0.0","0","0","65889","","null","","","null","49","","","","","","","","","","","","","","","",""
"","ITI","","html-keyboard-response","330","503354","0.0-1.0-450.0","0","0","65889","","null","","","null","49","","","","","","","","","","","","","","","NaN",""
"","S1","","html-keyboard-response","331","503607","0.0-1.0-452.0","0","0","65889","","null","","","null","50","","","","","","","","","","","","","","","",""
"","ISI","","html-keyboard-response","332","505609","0.0-1.0-453.0","0","0","65889","","null","","","null","50","NaN","","","","","","","","","","","","","","",""
"","S2","","html-keyboard-response","333","505861","0.0-1.0-454.0","0","0","65889","","null","","","null","50","","NaN","","","","","","","","","","","","","",""
"","response","","html-keyboard-response","334","506205","0.0-1.0-455.0","0","0","65889","","343","","","75","50","","","2","50","training","adjacent","DC","4","3","M.jpg","Q.jpg","1","0","0","",""
"","feedback","","html-keyboard-response","335","507207","0.0-1.0-456.0-0.0","0","0","65889","","null","","","null","50","","","","","","","","","","","","","","","",""
"","time_out","","html-keyboard-response","336","509209","0.0-1.0-458.0-0.0","0","0","65889","","null","","","null","50","","","","","","","","","","","","","","","",""
"","ITI","","html-keyboard-response","337","510211","0.0-1.0-459.0","0","0","65889","","null","","","null","50","","","","","","","","","","","","","","","NaN",""
"","S1","","html-keyboard-response","338","510464","0.0-1.0-461.0","0","0","65889","","null","","","null","51","","","","","","","","","","","","","","","",""
"","ISI","","html-keyboard-response","339","512466","0.0-1.0-462.0","0","0","65889","","null","","","null","51","NaN","","","","","","","","","","","","","","",""
"","S2","","html-keyboard-response","340","512718","0.0-1.0-463.0","0","0","65889","","null","","","null","51","","NaN","","","","","","","","","","","","","",""
"","response","","html-keyboard-response","341","513014","0.0-1.0-464.0","0","0","65889","","295","","","75","51","","","2","51","training","adjacent","DC","4","3","M.jpg","Q.jpg","1","0","0","",""
"","feedback","","html-keyboard-response","342","514016","0.0-1.0-465.0-0.0","0","0","65889","","null","","","null","51","","","","","","","","","","","","","","","",""
"","time_out","","html-keyboard-response","343","516019","0.0-1.0-467.0-0.0","0","0","65889","","null","","","null","51","","","","","","","","","","","","","","","",""
"","ITI","","html-keyboard-response","344","517021","0.0-1.0-468.0","0","0","65889","","null","","","null","51","","","","","","","","","","","","","","","NaN",""
"","S1","","html-keyboard-response","345","517272","0.0-1.0-470.0","0","0","65889","","null","","","null","52","","","","","","","","","","","","","","","",""
"","ISI","","html-keyboard-response","346","519274","0.0-1.0-471.0","0","0","65889","","null","","","null","52","NaN","","","","","","","","","","","","","","",""
"","S2","","html-keyboard-response","347","519526","0.0-1.0-472.0","0","0","65889","","null","","","null","52","","NaN","","","","","","","","","","","","","",""
"","response","","html-keyboard-response","348","519781","0.0-1.0-473.0","0","0","65889","","253","","","75","52","","","2","52","training","adjacent","AB","1","2","O.jpg","P.jpg","1","1","1","",""
"","feedback","","html-keyboard-response","349","520784","0.0-1.0-474.0-0.0","0","0","65889","","null","","","null","52","","","","","","","","","","","","","","","",""
"","ITI","","html-keyboard-response","350","521787","0.0-1.0-477.0","0","0","65889","","null","","","null","52","","","","","","","","","","","","","","","NaN",""
"","S1","","html-keyboard-response","351","522039","0.0-1.0-479.0","0","0","65889","","null","","","null","53","","","","","","","","","","","","","","","",""
"","ISI","","html-keyboard-response","352","524040","0.0-1.0-480.0","0","0","65889","","null","","","null","53","NaN","","","","","","","","","","","","","","",""
"","S2","","html-keyboard-response","353","524292","0.0-1.0-481.0","0","0","65889","","null","","","null","53","","NaN","","","","","","","","","","","","","",""
"","response","","html-keyboard-response","354","524869","0.0-1.0-482.0","0","0","65889","","576","","","68","53","","","2","53","training","adjacent","BA","2","1","P.jpg","O.jpg","0","0","1","",""
"","feedback","","html-keyboard-response","355","525873","0.0-1.0-483.0-0.0","0","0","65889","","null","","","null","53","","","","","","","","","","","","","","","",""
"","ITI","","html-keyboard-response","356","526876","0.0-1.0-486.0","0","0","65889","","null","","","null","53","","","","","","","","","","","","","","","NaN",""
"","S1","","html-keyboard-response","357","527128","0.0-1.0-488.0","0","0","65889","","null","","","null","54","","","","","","","","","","","","","","","",""
"","ISI","","html-keyboard-response","358","529130","0.0-1.0-489.0","0","0","65889","","null","","","null","54","NaN","","","","","","","","","","","","","","",""
"","S2","","html-keyboard-response","359","529383","0.0-1.0-490.0","0","0","65889","","null","","","null","54","","NaN","","","","","","","","","","","","","",""
"","response","","html-keyboard-response","360","529693","0.0-1.0-491.0","0","0","65889","","309","","","75","54","","","2","54","training","adjacent","FE","6","5","R.jpg","N.jpg","1","0","0","",""
"","feedback","","html-keyboard-response","361","530696","0.0-1.0-492.0-0.0","0","0","65889","","null","","","null","54","","","","","","","","","","","","","","","",""
"","time_out","","html-keyboard-response","362","532698","0.0-1.0-494.0-0.0","0","0","65889","","null","","","null","54","","","","","","","","","","","","","","","",""
"","ITI","","html-keyboard-response","363","533700","0.0-1.0-495.0","0","0","65889","","null","","","null","54","","","","","","","","","","","","","","","NaN",""
"","S1","","html-keyboard-response","364","533951","0.0-1.0-497.0","0","0","65889","","null","","","null","55","","","","","","","","","","","","","","","",""
"","ISI","","html-keyboard-response","365","535953","0.0-1.0-498.0","0","0","65889","","null","","","null","55","NaN","","","","","","","","","","","","","","",""
"","S2","","html-keyboard-response","366","536205","0.0-1.0-499.0","0","0","65889","","null","","","null","55","","NaN","","","","","","","","","","","","","",""
"","response","","html-keyboard-response","367","536541","0.0-1.0-500.0","0","0","65889","","335","","","68","55","","","2","55","training","adjacent","DC","4","3","M.jpg","Q.jpg","0","0","1","",""
"","feedback","","html-keyboard-response","368","537544","0.0-1.0-501.0-0.0","0","0","65889","","null","","","null","55","","","","","","","","","","","","","","","",""
"","ITI","","html-keyboard-response","369","538547","0.0-1.0-504.0","0","0","65889","","null","","","null","55","","","","","","","","","","","","","","","NaN",""
"","S1","","html-keyboard-response","370","538799","0.0-1.0-506.0","0","0","65889","","null","","","null","56","","","","","","","","","","","","","","","",""
"","ISI","","html-keyboard-response","371","540802","0.0-1.0-507.0","0","0","65889","","null","","","null","56","NaN","","","","","","","","","","","","","","",""
"","S2","","html-keyboard-response","372","541054","0.0-1.0-508.0","0","0","65889","","null","","","null","56","","NaN","","","","","","","","","","","","","",""
"","response","","html-keyboard-response","373","541285","0.0-1.0-509.0","0","0","65889","","230","","","68","56","","","2","56","training","adjacent","BA","2","1","P.jpg","O.jpg","0","0","1","",""
"","feedback","","html-keyboard-response","374","542288","0.0-1.0-510.0-0.0","0","0","65889","","null","","","null","56","","","","","","","","","","","","","","","",""
"","ITI","","html-keyboard-response","375","543291","0.0-1.0-513.0","0","0","65889","","null","","","null","56","","","","","","","","","","","","","","","NaN",""
"","S1","","html-keyboard-response","376","543544","0.0-1.0-515.0","0","0","65889","","null","","","null","57","","","","","","","","","","","","","","","",""
"","ISI","","html-keyboard-response","377","545546","0.0-1.0-516.0","0","0","65889","","null","","","null","57","NaN","","","","","","","","","","","","","","",""
"","S2","","html-keyboard-response","378","545798","0.0-1.0-517.0","0","0","65889","","null","","","null","57","","NaN","","","","","","","","","","","","","",""
"","response","","html-keyboard-response","379","546125","0.0-1.0-518.0","0","0","65889","","326","","","68","57","","","2","57","training","adjacent","DC","4","3","M.jpg","Q.jpg","0","0","1","",""
"","feedback","","html-keyboard-response","380","547128","0.0-1.0-519.0-0.0","0","0","65889","","null","","","null","57","","","","","","","","","","","","","","","",""
"","ITI","","html-keyboard-response","381","548131","0.0-1.0-522.0","0","0","65889","","null","","","null","57","","","","","","","","","","","","","","","NaN",""
"","S1","","html-keyboard-response","382","548383","0.0-1.0-524.0","0","0","65889","","null","","","null","58","","","","","","","","","","","","","","","",""
"","ISI","","html-keyboard-response","383","550386","0.0-1.0-525.0","0","0","65889","","null","","","null","58","NaN","","","","","","","","","","","","","","",""
"","S2","","html-keyboard-response","384","550638","0.0-1.0-526.0","0","0","65889","","null","","","null","58","","NaN","","","","","","","","","","","","","",""
"","response","","html-keyboard-response","385","550862","0.0-1.0-527.0","0","0","65889","","223","","","75","58","","","2","58","training","adjacent","AB","1","2","O.jpg","P.jpg","1","1","1","",""
"","feedback","","html-keyboard-response","386","551875","0.0-1.0-528.0-0.0","0","0","65889","","null","","","null","58","","","","","","","","","","","","","","","",""
"","ITI","","html-keyboard-response","387","552877","0.0-1.0-531.0","0","0","65889","","null","","","null","58","","","","","","","","","","","","","","","NaN",""
"","S1","","html-keyboard-response","388","553130","0.0-1.0-533.0","0","0","65889","","null","","","null","59","","","","","","","","","","","","","","","",""
"","ISI","","html-keyboard-response","389","555131","0.0-1.0-534.0","0","0","65889","","null","","","null","59","NaN","","","","","","","","","","","","","","",""
"","S2","","html-keyboard-response","390","555383","0.0-1.0-535.0","0","0","65889","","null","","","null","59","","NaN","","","","","","","","","","","","","",""
"","response","","html-keyboard-response","391","555661","0.0-1.0-536.0","0","0","65889","","277","","","75","59","","","2","59","training","adjacent","FG","6","7","R.jpg","L.jpg","1","1","1","",""
"","feedback","","html-keyboard-response","392","556669","0.0-1.0-537.0-0.0","0","0","65889","","null","","","null","59","","","","","","","","","","","","","","","",""
"","ITI","","html-keyboard-response","393","557673","0.0-1.0-540.0","0","0","65889","","null","","","null","59","","","","","","","","","","","","","","","NaN",""
"","S1","","html-keyboard-response","394","557925","0.0-1.0-542.0","0","0","65889","","null","","","null","60","","","","","","","","","","","","","","","",""
"","ISI","","html-keyboard-response","395","559928","0.0-1.0-543.0","0","0","65889","","null","","","null","60","NaN","","","","","","","","","","","","","","",""
"","S2","","html-keyboard-response","396","560180","0.0-1.0-544.0","0","0","65889","","null","","","null","60","","NaN","","","","","","","","","","","","","",""
"","response","","html-keyboard-response","397","560341","0.0-1.0-545.0","0","0","65889","","159","","","75","60","","","2","60","training","adjacent","FG","6","7","R.jpg","L.jpg","1","1","1","",""
"","feedback","","html-keyboard-response","398","561356","0.0-1.0-546.0-0.0","0","0","65889","","null","","","null","60","","","","","","","","","","","","","","","",""
"","ITI","","html-keyboard-response","399","562358","0.0-1.0-549.0","0","0","65889","","null","","","null","60","","","","","","","","","","","","","","","NaN",""
"","S1","","html-keyboard-response","400","562611","0.0-1.0-551.0","0","0","65889","","null","","","null","61","","","","","","","","","","","","","","","",""
"","ISI","","html-keyboard-response","401","564613","0.0-1.0-552.0","0","0","65889","","null","","","null","61","NaN","","","","","","","","","","","","","","",""
"","S2","","html-keyboard-response","402","564866","0.0-1.0-553.0","0","0","65889","","null","","","null","61","","NaN","","","","","","","","","","","","","",""
"","response","","html-keyboard-response","403","565118","0.0-1.0-554.0","0","0","65889","","251","","","75","61","","","2","61","training","adjacent","AB","1","2","O.jpg","P.jpg","1","1","1","",""
"","feedback","","html-keyboard-response","404","566121","0.0-1.0-555.0-0.0","0","0","65889","","null","","","null","61","","","","","","","","","","","","","","","",""
"","ITI","","html-keyboard-response","405","567124","0.0-1.0-558.0","0","0","65889","","null","","","null","61","","","","","","","","","","","","","","","NaN",""
"","S1","","html-keyboard-response","406","567376","0.0-1.0-560.0","0","0","65889","","null","","","null","62","","","","","","","","","","","","","","","",""
"","ISI","","html-keyboard-response","407","569379","0.0-1.0-561.0","0","0","65889","","null","","","null","62","NaN","","","","","","","","","","","","","","",""
"","S2","","html-keyboard-response","408","569631","0.0-1.0-562.0","0","0","65889","","null","","","null","62","","NaN","","","","","","","","","","","","","",""
"","response","","html-keyboard-response","409","569917","0.0-1.0-563.0","0","0","65889","","285","","","68","62","","","2","62","training","adjacent","EF","5","6","N.jpg","R.jpg","0","1","0","",""
"","feedback","","html-keyboard-response","410","570920","0.0-1.0-564.0-0.0","0","0","65889","","null","","","null","62","","","","","","","","","","","","","","","",""
"","time_out","","html-keyboard-response","411","572923","0.0-1.0-566.0-0.0","0","0","65889","","null","","","null","62","","","","","","","","","","","","","","","",""
"","ITI","","html-keyboard-response","412","573926","0.0-1.0-567.0","0","0","65889","","null","","","null","62","","","","","","","","","","","","","","","NaN",""
"","S1","","html-keyboard-response","413","574178","0.0-1.0-569.0","0","0","65889","","null","","","null","63","","","","","","","","","","","","","","","",""
"","ISI","","html-keyboard-response","414","576180","0.0-1.0-570.0","0","0","65889","","null","","","null","63","NaN","","","","","","","","","","","","","","",""
"","S2","","html-keyboard-response","415","576432","0.0-1.0-571.0","0","0","65889","","null","","","null","63","","NaN","","","","","","","","","","","","","",""
"","response","","html-keyboard-response","416","576526","0.0-1.0-572.0","0","0","65889","","92","","","68","63","","","2","63","training","adjacent","BA","2","1","P.jpg","O.jpg","0","0","1","",""
"","feedback","","html-keyboard-response","417","577529","0.0-1.0-573.0-0.0","0","0","65889","","null","","","null","63","","","","","","","","","","","","","","","",""
"","ITI","","html-keyboard-response","418","578532","0.0-1.0-576.0","0","0","65889","","null","","","null","63","","","","","","","","","","","","","","","NaN",""
"","S1","","html-keyboard-response","419","578784","0.0-1.0-578.0","0","0","65889","","null","","","null","64","","","","","","","","","","","","","","","",""
"","ISI","","html-keyboard-response","420","580787","0.0-1.0-579.0","0","0","65889","","null","","","null","64","NaN","","","","","","","","","","","","","","",""
"","S2","","html-keyboard-response","421","581039","0.0-1.0-580.0","0","0","65889","","null","","","null","64","","NaN","","","","","","","","","","","","","",""
"","response","","html-keyboard-response","422","581277","0.0-1.0-581.0","0","0","65889","","237","","","75","64","","","2","64","training","adjacent","AB","1","2","O.jpg","P.jpg","1","1","1","",""
"","feedback","","html-keyboard-response","423","582280","0.0-1.0-582.0-0.0","0","0","65889","","null","","","null","64","","","","","","","","","","","","","","","",""
"","ITI","","html-keyboard-response","424","583283","0.0-1.0-585.0","0","0","65889","","null","","","null","64","","","","","","","","","","","","","","","NaN",""
"","S1","","html-keyboard-response","425","583536","0.0-1.0-587.0","0","0","65889","","null","","","null","65","","","","","","","","","","","","","","","",""
"","ISI","","html-keyboard-response","426","585537","0.0-1.0-588.0","0","0","65889","","null","","","null","65","NaN","","","","","","","","","","","","","","",""
"","S2","","html-keyboard-response","427","585790","0.0-1.0-589.0","0","0","65889","","null","","","null","65","","NaN","","","","","","","","","","","","","",""
"","response","","html-keyboard-response","428","586725","0.0-1.0-590.0","0","0","65889","","935","","","75","65","","","2","65","training","adjacent","DE","4","5","M.jpg","N.jpg","1","1","1","",""
"","feedback","","html-keyboard-response","429","587728","0.0-1.0-591.0-0.0","0","0","65889","","null","","","null","65","","","","","","","","","","","","","","","",""
"","ITI","","html-keyboard-response","430","588731","0.0-1.0-594.0","0","0","65889","","null","","","null","65","","","","","","","","","","","","","","","NaN",""
"","S1","","html-keyboard-response","431","588983","0.0-1.0-596.0","0","0","65889","","null","","","null","66","","","","","","","","","","","","","","","",""
"","ISI","","html-keyboard-response","432","590985","0.0-1.0-597.0","0","0","65889","","null","","","null","66","NaN","","","","","","","","","","","","","","",""
"","S2","","html-keyboard-response","433","591238","0.0-1.0-598.0","0","0","65889","","null","","","null","66","","NaN","","","","","","","","","","","","","",""
"","response","","html-keyboard-response","434","591510","0.0-1.0-599.0","0","0","65889","","271","","","68","66","","","2","66","training","adjacent","BC","2","3","P.jpg","Q.jpg","0","1","0","",""
"","feedback","","html-keyboard-response","435","592513","0.0-1.0-600.0-0.0","0","0","65889","","null","","","null","66","","","","","","","","","","","","","","","",""
"","time_out","","html-keyboard-response","436","594515","0.0-1.0-602.0-0.0","0","0","65889","","null","","","null","66","","","","","","","","","","","","","","","",""
"","ITI","","html-keyboard-response","437","595517","0.0-1.0-603.0","0","0","65889","","null","","","null","66","","","","","","","","","","","","","","","NaN",""
"","S1","","html-keyboard-response","438","595769","0.0-1.0-605.0","0","0","65889","","null","","","null","67","","","","","","","","","","","","","","","",""
"","ISI","","html-keyboard-response","439","597771","0.0-1.0-606.0","0","0","65889","","null","","","null","67","NaN","","","","","","","","","","","","","","",""
"","S2","","html-keyboard-response","440","598023","0.0-1.0-607.0","0","0","65889","","null","","","null","67","","NaN","","","","","","","","","","","","","",""
"","response","","html-keyboard-response","441","598254","0.0-1.0-608.0","0","0","65889","","230","","","75","67","","","2","67","training","adjacent","CB","3","2","Q.jpg","P.jpg","1","0","0","",""
"","feedback","","html-keyboard-response","442","599255","0.0-1.0-609.0-0.0","0","0","65889","","null","","","null","67","","","","","","","","","","","","","","","",""
"","time_out","","html-keyboard-response","443","601258","0.0-1.0-611.0-0.0","0","0","65889","","null","","","null","67","","","","","","","","","","","","","","","",""
"","ITI","","html-keyboard-response","444","602261","0.0-1.0-612.0","0","0","65889","","null","","","null","67","","","","","","","","","","","","","","","NaN",""
"","S1","","html-keyboard-response","445","602513","0.0-1.0-614.0","0","0","65889","","null","","","null","68","","","","","","","","","","","","","","","",""
"","ISI","","html-keyboard-response","446","604515","0.0-1.0-615.0","0","0","65889","","null","","","null","68","NaN","","","","","","","","","","","","","","",""
"","S2","","html-keyboard-response","447","604768","0.0-1.0-616.0","0","0","65889","","null","","","null","68","","NaN","","","","","","","","","","","","","",""
"","response","","html-keyboard-response","448","605053","0.0-1.0-617.0","0","0","65889","","284","","","68","68","","","2","68","training","adjacent","BC","2","3","P.jpg","Q.jpg","0","1","0","",""
"","feedback","","html-keyboard-response","449","606056","0.0-1.0-618.0-0.0","0","0","65889","","null","","","null","68","","","","","","","","","","","","","","","",""
"","time_out","","html-keyboard-response","450","608058","0.0-1.0-620.0-0.0","0","0","65889","","null","","","null","68","","","","","","","","","","","","","","","",""
"","ITI","","html-keyboard-response","451","609060","0.0-1.0-621.0","0","0","65889","","null","","","null","68","","","","","","","","","","","","","","","NaN",""
"","S1","","html-keyboard-response","452","609324","0.0-1.0-623.0","0","0","65889","","null","","","null","69","","","","","","","","","","","","","","","",""
"","ISI","","html-keyboard-response","453","611326","0.0-1.0-624.0","0","0","65889","","null","","","null","69","NaN","","","","","","","","","","","","","","",""
"","S2","","html-keyboard-response","454","611578","0.0-1.0-625.0","0","0","65889","","null","","","null","69","","NaN","","","","","","","","","","","","","",""
"","response","","html-keyboard-response","455","611950","0.0-1.0-626.0","0","0","65889","","371","","","75","69","","","2","69","training","adjacent","DE","4","5","M.jpg","N.jpg","1","1","1","",""
"","feedback","","html-keyboard-response","456","612953","0.0-1.0-627.0-0.0","0","0","65889","","null","","","null","69","","","","","","","","","","","","","","","",""
"","ITI","","html-keyboard-response","457","613955","0.0-1.0-630.0","0","0","65889","","null","","","null","69","","","","","","","","","","","","","","","NaN",""
"","S1","","html-keyboard-response","458","614207","0.0-1.0-632.0","0","0","65889","","null","","","null","70","","","","","","","","","","","","","","","",""
"","ISI","","html-keyboard-response","459","616209","0.0-1.0-633.0","0","0","65889","","null","","","null","70","NaN","","","","","","","","","","","","","","",""
"","S2","","html-keyboard-response","460","616462","0.0-1.0-634.0","0","0","65889","","null","","","null","70","","NaN","","","","","","","","","","","","","",""
"","response","","html-keyboard-response","461","616726","0.0-1.0-635.0","0","0","65889","","263","","","75","70","","","2","70","training","adjacent","DE","4","5","M.jpg","N.jpg","1","1","1","",""
"","feedback","","html-keyboard-response","462","617728","0.0-1.0-636.0-0.0","0","0","65889","","null","","","null","70","","","","","","","","","","","","","","","",""
"","ITI","","html-keyboard-response","463","618731","0.0-1.0-639.0","0","0","65889","","null","","","null","70","","","","","","","","","","","","","","","NaN",""
"","S1","","html-keyboard-response","464","618982","0.0-1.0-641.0","0","0","65889","","null","","","null","71","","","","","","","","","","","","","","","",""
"","ISI","","html-keyboard-response","465","620984","0.0-1.0-642.0","0","0","65889","","null","","","null","71","NaN","","","","","","","","","","","","","","",""
"","S2","","html-keyboard-response","466","621236","0.0-1.0-643.0","0","0","65889","","null","","","null","71","","NaN","","","","","","","","","","","","","",""
"","response","","html-keyboard-response","467","621653","0.0-1.0-644.0","0","0","65889","","416","","","68","71","","","2","71","training","adjacent","BA","2","1","P.jpg","O.jpg","0","0","1","",""
"","feedback","","html-keyboard-response","468","622657","0.0-1.0-645.0-0.0","0","0","65889","","null","","","null","71","","","","","","","","","","","","","","","",""
"","ITI","","html-keyboard-response","469","623660","0.0-1.0-648.0","0","0","65889","","null","","","null","71","","","","","","","","","","","","","","","NaN",""
"","S1","","html-keyboard-response","470","623913","0.0-1.0-650.0","0","0","65889","","null","","","null","72","","","","","","","","","","","","","","","",""
"","ISI","","html-keyboard-response","471","625915","0.0-1.0-651.0","0","0","65889","","820","","","75","72","k","","","","","","","","","","","","","","",""
"","S2","","html-keyboard-response","472","626168","0.0-1.0-652.0","0","0","65889","","null","","","null","72","","NaN","","","","","","","","","","","","","",""
"","response","","html-keyboard-response","473","626646","0.0-1.0-653.0","0","0","65889","","477","","","68","72","","","2","72","training","adjacent","CD","3","4","Q.jpg","M.jpg","0","1","0","",""
"","feedback","","html-keyboard-response","474","627647","0.0-1.0-654.0-0.0","0","0","65889","","null","","","null","72","","","","","","","","","","","","","","","",""
"","time_out","","html-keyboard-response","475","629650","0.0-1.0-656.0-0.0","0","0","65889","","null","","","null","72","","","","","","","","","","","","","","","",""
"","ITI","","html-keyboard-response","476","630652","0.0-1.0-657.0","0","0","65889","","null","","","null","72","","","","","","","","","","","","","","","NaN",""
"","S1","","html-keyboard-response","477","630904","0.0-1.0-659.0","0","0","65889","","null","","","null","73","","","","","","","","","","","","","","","",""
"","ISI","","html-keyboard-response","478","632906","0.0-1.0-660.0","0","0","65889","","null","","","null","73","NaN","","","","","","","","","","","","","","",""
"","S2","","html-keyboard-response","479","633158","0.0-1.0-661.0","0","0","65889","","null","","","null","73","","NaN","","","","","","","","","","","","","",""
"","response","","html-keyboard-response","480","633558","0.0-1.0-662.0","0","0","65889","","399","","","68","73","","","2","73","training","adjacent","BC","2","3","P.jpg","Q.jpg","0","1","0","",""
"","feedback","","html-keyboard-response","481","634561","0.0-1.0-663.0-0.0","0","0","65889","","null","","","null","73","","","","","","","","","","","","","","","",""
"","time_out","","html-keyboard-response","482","636563","0.0-1.0-665.0-0.0","0","0","65889","","null","","","null","73","","","","","","","","","","","","","","","",""
"","ITI","","html-keyboard-response","483","637565","0.0-1.0-666.0","0","0","65889","","null","","","null","73","","","","","","","","","","","","","","","NaN",""
"","S1","","html-keyboard-response","484","637818","0.0-1.0-668.0","0","0","65889","","null","","","null","74","","","","","","","","","","","","","","","",""
"","ISI","","html-keyboard-response","485","639821","0.0-1.0-669.0","0","0","65889","","null","","","null","74","NaN","","","","","","","","","","","","","","",""
"","S2","","html-keyboard-response","486","640072","0.0-1.0-670.0","0","0","65889","","null","","","null","74","","NaN","","","","","","","","","","","","","",""
"","response","","html-keyboard-response","487","640606","0.0-1.0-671.0","0","0","65889","","533","","","68","74","","","2","74","training","adjacent","ED","5","4","N.jpg","M.jpg","0","0","1","",""
"","feedback","","html-keyboard-response","488","641609","0.0-1.0-672.0-0.0","0","0","65889","","null","","","null","74","","","","","","","","","","","","","","","",""
"","ITI","","html-keyboard-response","489","642611","0.0-1.0-675.0","0","0","65889","","null","","","null","74","","","","","","","","","","","","","","","NaN",""
"","S1","","html-keyboard-response","490","642863","0.0-1.0-677.0","0","0","65889","","null","","","null","75","","","","","","","","","","","","","","","",""
"","ISI","","html-keyboard-response","491","644865","0.0-1.0-678.0","0","0","65889","","null","","","null","75","NaN","","","","","","","","","","","","","","",""
"","S2","","html-keyboard-response","492","645116","0.0-1.0-679.0","0","0","65889","","null","","","null","75","","NaN","","","","","","","","","","","","","",""
"","response","","html-keyboard-response","493","645373","0.0-1.0-680.0","0","0","65889","","256","","","75","75","","","2","75","training","adjacent","FE","6","5","R.jpg","N.jpg","1","0","0","",""
"","feedback","","html-keyboard-response","494","646375","0.0-1.0-681.0-0.0","0","0","65889","","null","","","null","75","","","","","","","","","","","","","","","",""
"","time_out","","html-keyboard-response","495","648376","0.0-1.0-683.0-0.0","0","0","65889","","null","","","null","75","","","","","","","","","","","","","","","",""
"","ITI","","html-keyboard-response","496","649379","0.0-1.0-684.0","0","0","65889","","null","","","null","75","","","","","","","","","","","","","","","NaN",""
"","S1","","html-keyboard-response","497","649631","0.0-1.0-686.0","0","0","65889","","null","","","null","76","","","","","","","","","","","","","","","",""
"","ISI","","html-keyboard-response","498","651634","0.0-1.0-687.0","0","0","65889","","null","","","null","76","NaN","","","","","","","","","","","","","","",""
"","S2","","html-keyboard-response","499","651886","0.0-1.0-688.0","0","0","65889","","null","","","null","76","","NaN","","","","","","","","","","","","","",""
"","response","","html-keyboard-response","500","652166","0.0-1.0-689.0","0","0","65889","","279","","","68","76","","","2","76","training","adjacent","GF","7","6","L.jpg","R.jpg","0","0","1","",""
"","feedback","","html-keyboard-response","501","653168","0.0-1.0-690.0-0.0","0","0","65889","","null","","","null","76","","","","","","","","","","","","","","","",""
"","ITI","","html-keyboard-response","502","654171","0.0-1.0-693.0","0","0","65889","","null","","","null","76","","","","","","","","","","","","","","","NaN",""
"","S1","","html-keyboard-response","503","654423","0.0-1.0-695.0","0","0","65889","","null","","","null","77","","","","","","","","","","","","","","","",""
"","ISI","","html-keyboard-response","504","656427","0.0-1.0-696.0","0","0","65889","","null","","","null","77","NaN","","","","","","","","","","","","","","",""
"","S2","","html-keyboard-response","505","656679","0.0-1.0-697.0","0","0","65889","","null","","","null","77","","NaN","","","","","","","","","","","","","",""
"","response","","html-keyboard-response","506","656814","0.0-1.0-698.0","0","0","65889","","133","","","75","77","","","2","77","training","adjacent","CD","3","4","Q.jpg","M.jpg","1","1","1","",""
"","feedback","","html-keyboard-response","507","657816","0.0-1.0-699.0-0.0","0","0","65889","","null","","","null","77","","","","","","","","","","","","","","","",""
"","ITI","","html-keyboard-response","508","658819","0.0-1.0-702.0","0","0","65889","","null","","","null","77","","","","","","","","","","","","","","","NaN",""
"","S1","","html-keyboard-response","509","659071","0.0-1.0-704.0","0","0","65889","","null","","","null","78","","","","","","","","","","","","","","","",""
"","ISI","","html-keyboard-response","510","661074","0.0-1.0-705.0","0","0","65889","","null","","","null","78","NaN","","","","","","","","","","","","","","",""
"","S2","","html-keyboard-response","511","661326","0.0-1.0-706.0","0","0","65889","","null","","","null","78","","NaN","","","","","","","","","","","","","",""
"","response","","html-keyboard-response","512","661549","0.0-1.0-707.0","0","0","65889","","221","","","68","78","","","2","78","training","adjacent","EF","5","6","N.jpg","R.jpg","0","1","0","",""
"","feedback","","html-keyboard-response","513","662552","0.0-1.0-708.0-0.0","0","0","65889","","null","","","null","78","","","","","","","","","","","","","","","",""
"","time_out","","html-keyboard-response","514","664555","0.0-1.0-710.0-0.0","0","0","65889","","null","","","null","78","","","","","","","","","","","","","","","",""
"","ITI","","html-keyboard-response","515","665558","0.0-1.0-711.0","0","0","65889","","null","","","null","78","","","","","","","","","","","","","","","NaN",""
"","S1","","html-keyboard-response","516","665810","0.0-1.0-713.0","0","0","65889","","null","","","null","79","","","","","","","","","","","","","","","",""
"","ISI","","html-keyboard-response","517","667812","0.0-1.0-714.0","0","0","65889","","null","","","null","79","NaN","","","","","","","","","","","","","","",""
"","S2","","html-keyboard-response","518","668065","0.0-1.0-715.0","0","0","65889","","null","","","null","79","","NaN","","","","","","","","","","","","","",""
"","response","","html-keyboard-response","519","668494","0.0-1.0-716.0","0","0","65889","","428","","","68","79","","","2","79","training","adjacent","BC","2","3","P.jpg","Q.jpg","0","1","0","",""
"","feedback","","html-keyboard-response","520","669497","0.0-1.0-717.0-0.0","0","0","65889","","null","","","null","79","","","","","","","","","","","","","","","",""
"","time_out","","html-keyboard-response","521","671499","0.0-1.0-719.0-0.0","0","0","65889","","null","","","null","79","","","","","","","","","","","","","","","",""
"","ITI","","html-keyboard-response","522","672501","0.0-1.0-720.0","0","0","65889","","null","","","null","79","","","","","","","","","","","","","","","NaN",""
"","S1","","html-keyboard-response","523","672754","0.0-1.0-722.0","0","0","65889","","null","","","null","80","","","","","","","","","","","","","","","",""
"","ISI","","html-keyboard-response","524","674756","0.0-1.0-723.0","0","0","65889","","null","","","null","80","NaN","","","","","","","","","","","","","","",""
"","S2","","html-keyboard-response","525","675008","0.0-1.0-724.0","0","0","65889","","null","","","null","80","","NaN","","","","","","","","","","","","","",""
"","response","","html-keyboard-response","526","675238","0.0-1.0-725.0","0","0","65889","","229","","","68","80","","","2","80","training","adjacent","GF","7","6","L.jpg","R.jpg","0","0","1","",""
"","feedback","","html-keyboard-response","527","676240","0.0-1.0-726.0-0.0","0","0","65889","","null","","","null","80","","","","","","","","","","","","","","","",""
"","ITI","","html-keyboard-response","528","677243","0.0-1.0-729.0","0","0","65889","","null","","","null","80","","","","","","","","","","","","","","","NaN",""
"","S1","","html-keyboard-response","529","677496","0.0-1.0-731.0","0","0","65889","","null","","","null","81","","","","","","","","","","","","","","","",""
"","ISI","","html-keyboard-response","530","679499","0.0-1.0-732.0","0","0","65889","","null","","","null","81","NaN","","","","","","","","","","","","","","",""
"","S2","","html-keyboard-response","531","679751","0.0-1.0-733.0","0","0","65889","","null","","","null","81","","NaN","","","","","","","","","","","","","",""
"","response","","html-keyboard-response","532","680406","0.0-1.0-734.0","0","0","65889","","654","","","68","81","","","2","81","training","adjacent","FG","6","7","R.jpg","L.jpg","0","1","0","",""
"","feedback","","html-keyboard-response","533","681409","0.0-1.0-735.0-0.0","0","0","65889","","null","","","null","81","","","","","","","","","","","","","","","",""
"","time_out","","html-keyboard-response","534","683411","0.0-1.0-737.0-0.0","0","0","65889","","null","","","null","81","","","","","","","","","","","","","","","",""
"","ITI","","html-keyboard-response","535","684413","0.0-1.0-738.0","0","0","65889","","null","","","null","81","","","","","","","","","","","","","","","NaN",""
"","S1","","html-keyboard-response","536","684665","0.0-1.0-740.0","0","0","65889","","null","","","null","82","","","","","","","","","","","","","","","",""
"","ISI","","html-keyboard-response","537","686667","0.0-1.0-741.0","0","0","65889","","null","","","null","82","NaN","","","","","","","","","","","","","","",""
"","S2","","html-keyboard-response","538","686919","0.0-1.0-742.0","0","0","65889","","null","","","null","82","","NaN","","","","","","","","","","","","","",""
"","response","","html-keyboard-response","539","687341","0.0-1.0-743.0","0","0","65889","","421","","","75","82","","","2","82","training","adjacent","FG","6","7","R.jpg","L.jpg","1","1","1","",""
"","feedback","","html-keyboard-response","540","688345","0.0-1.0-744.0-0.0","0","0","65889","","null","","","null","82","","","","","","","","","","","","","","","",""
"","ITI","","html-keyboard-response","541","689348","0.0-1.0-747.0","0","0","65889","","null","","","null","82","","","","","","","","","","","","","","","NaN",""
"","S1","","html-keyboard-response","542","689601","0.0-1.0-749.0","0","0","65889","","null","","","null","83","","","","","","","","","","","","","","","",""
"","ISI","","html-keyboard-response","543","691603","0.0-1.0-750.0","0","0","65889","","null","","","null","83","NaN","","","","","","","","","","","","","","",""
"","S2","","html-keyboard-response","544","691855","0.0-1.0-751.0","0","0","65889","","null","","","null","83","","NaN","","","","","","","","","","","","","",""
"","response","","html-keyboard-response","545","692278","0.0-1.0-752.0","0","0","65889","","422","","","68","83","","","2","83","training","adjacent","ED","5","4","N.jpg","M.jpg","0","0","1","",""
"","feedback","","html-keyboard-response","546","693281","0.0-1.0-753.0-0.0","0","0","65889","","null","","","null","83","","","","","","","","","","","","","","","",""
"","ITI","","html-keyboard-response","547","694284","0.0-1.0-756.0","0","0","65889","","null","","","null","83","","","","","","","","","","","","","","","NaN",""
"","S1","","html-keyboard-response","548","694536","0.0-1.0-758.0","0","0","65889","","null","","","null","84","","","","","","","","","","","","","","","",""
"","ISI","","html-keyboard-response","549","696539","0.0-1.0-759.0","0","0","65889","","null","","","null","84","NaN","","","","","","","","","","","","","","",""
"","S2","","html-keyboard-response","550","696791","0.0-1.0-760.0","0","0","65889","","null","","","null","84","","NaN","","","","","","","","","","","","","",""
"","response","","html-keyboard-response","551","697420","0.0-1.0-761.0","0","0","65889","","627","","","68","84","","","2","84","training","adjacent","ED","5","4","N.jpg","M.jpg","0","0","1","",""
"","feedback","","html-keyboard-response","552","698424","0.0-1.0-762.0-0.0","0","0","65889","","null","","","null","84","","","","","","","","","","","","","","","",""
"","ITI","","html-keyboard-response","553","699425","0.0-1.0-765.0","0","0","65889","","null","","","null","84","","","","","","","","","","","","","","","NaN",""
"","S1","","html-keyboard-response","554","699677","0.0-1.0-767.0","0","0","65889","","null","","","null","85","","","","","","","","","","","","","","","",""
"","ISI","","html-keyboard-response","555","701680","0.0-1.0-768.0","0","0","65889","","null","","","null","85","NaN","","","","","","","","","","","","","","",""
"","S2","","html-keyboard-response","556","701932","0.0-1.0-769.0","0","0","65889","","null","","","null","85","","NaN","","","","","","","","","","","","","",""
"","response","","html-keyboard-response","557","702246","0.0-1.0-770.0","0","0","65889","","313","","","75","85","","","2","85","training","adjacent","CD","3","4","Q.jpg","M.jpg","1","1","1","",""
"","feedback","","html-keyboard-response","558","703248","0.0-1.0-771.0-0.0","0","0","65889","","null","","","null","85","","","","","","","","","","","","","","","",""
"","ITI","","html-keyboard-response","559","704251","0.0-1.0-774.0","0","0","65889","","null","","","null","85","","","","","","","","","","","","","","","NaN",""
"","S1","","html-keyboard-response","560","704503","0.0-1.0-776.0","0","0","65889","","null","","","null","86","","","","","","","","","","","","","","","",""
"","ISI","","html-keyboard-response","561","706505","0.0-1.0-777.0","0","0","65889","","null","","","null","86","NaN","","","","","","","","","","","","","","",""
"","S2","","html-keyboard-response","562","706758","0.0-1.0-778.0","0","0","65889","","null","","","null","86","","NaN","","","","","","","","","","","","","",""
"","response","","html-keyboard-response","563","707454","0.0-1.0-779.0","0","0","65889","","695","","","68","86","","","2","86","training","adjacent","CB","3","2","Q.jpg","P.jpg","0","0","1","",""
"","feedback","","html-keyboard-response","564","708456","0.0-1.0-780.0-0.0","0","0","65889","","null","","","null","86","","","","","","","","","","","","","","","",""
"","ITI","","html-keyboard-response","565","709459","0.0-1.0-783.0","0","0","65889","","null","","","null","86","","","","","","","","","","","","","","","NaN",""
"","S1","","html-keyboard-response","566","709712","0.0-1.0-785.0","0","0","65889","","null","","","null","87","","","","","","","","","","","","","","","",""
"","ISI","","html-keyboard-response","567","711713","0.0-1.0-786.0","0","0","65889","","null","","","null","87","NaN","","","","","","","","","","","","","","",""
"","S2","","html-keyboard-response","568","711966","0.0-1.0-787.0","0","0","65889","","null","","","null","87","","NaN","","","","","","","","","","","","","",""
"","response","","html-keyboard-response","569","712717","0.0-1.0-788.0","0","0","65889","","750","","","75","87","","","2","87","training","adjacent","FE","6","5","R.jpg","N.jpg","1","0","0","",""
"","feedback","","html-keyboard-response","570","713720","0.0-1.0-789.0-0.0","0","0","65889","","null","","","null","87","","","","","","","","","","","","","","","",""
"","time_out","","html-keyboard-response","571","715722","0.0-1.0-791.0-0.0","0","0","65889","","null","","","null","87","","","","","","","","","","","","","","","",""
"","ITI","","html-keyboard-response","572","716724","0.0-1.0-792.0","0","0","65889","","null","","","null","87","","","","","","","","","","","","","","","NaN",""
"","S1","","html-keyboard-response","573","716976","0.0-1.0-794.0","0","0","65889","","null","","","null","88","","","","","","","","","","","","","","","",""
"","ISI","","html-keyboard-response","574","718977","0.0-1.0-795.0","0","0","65889","","null","","","null","88","NaN","","","","","","","","","","","","","","",""
"","S2","","html-keyboard-response","575","719229","0.0-1.0-796.0","0","0","65889","","null","","","null","88","","NaN","","","","","","","","","","","","","",""
"","response","","html-keyboard-response","576","719557","0.0-1.0-797.0","0","0","65889","","327","","","75","88","","","2","88","training","adjacent","DE","4","5","M.jpg","N.jpg","1","1","1","",""
"","feedback","","html-keyboard-response","577","720560","0.0-1.0-798.0-0.0","0","0","65889","","null","","","null","88","","","","","","","","","","","","","","","",""
"","ITI","","html-keyboard-response","578","721563","0.0-1.0-801.0","0","0","65889","","null","","","null","88","","","","","","","","","","","","","","","NaN",""
"","S1","","html-keyboard-response","579","721816","0.0-1.0-803.0","0","0","65889","","null","","","null","89","","","","","","","","","","","","","","","",""
"","ISI","","html-keyboard-response","580","723817","0.0-1.0-804.0","0","0","65889","","null","","","null","89","NaN","","","","","","","","","","","","","","",""
"","S2","","html-keyboard-response","581","724069","0.0-1.0-805.0","0","0","65889","","null","","","null","89","","NaN","","","","","","","","","","","","","",""
"","response","","html-keyboard-response","582","724357","0.0-1.0-806.0","0","0","65889","","287","","","68","89","","","2","89","training","adjacent","ED","5","4","N.jpg","M.jpg","0","0","1","",""
