"success","ttype","start_time","trial_type","trial_index","time_elapsed","internal_node_id","warning","missed_checkup","PID","view_history","rt","responses","repeat_instructions","key_press","index","keypress_isi","keypress_S2","block","trial_num","phase","group_type","pair_type","S1_stim","S2_stim","S1_img","S2_img","S1_chosen","S1_higher","accuracy","keypress_iti","total_bonus_tally"
"true","full_screen","d04152023hr1307","fullscreen","0","11040","0.0-0.0","0","0","20867","","","","","","","","","","","","","","","","","","","","","",""
"","instructions","","instructions","1","59636","0.0-1.0-0.0-0.0","0","0","20867","[{""page_index"":0,""viewing_time"":5290},{""page_index"":1,""viewing_time"":23885},{""page_index"":2,""viewing_time"":13734},{""page_index"":3,""viewing_time"":5686}]","48595","","","","","","","","","","","","","","","","","","","",""
"","comprehension_check","","survey-multi-choice","2","89041","0.0-1.0-0.0-1.0","0","0","20867","","29399","{""Q0"":""True"",""Q1"":""K"",""Q2"":""Only when the screen 'MAKE A CHOICE' is shown"",""Q3"":""Green mark"",""Q4"":""either D or K""}","1","","","","","","","","","","","","","","","","","",""
"","missed_instruction_checkup","","html-keyboard-response","3","93339","0.0-1.0-0.0-2.0-0.0","0","1","20867","","4295","","","32","","","","","","","","","","","","","","","","",""
"","instructions","","instructions","4","130857","0.0-1.0-0.1-0.1","0","0","20867","[{""page_index"":0,""viewing_time"":3046},{""page_index"":1,""viewing_time"":18367},{""page_index"":2,""viewing_time"":14774},{""page_index"":3,""viewing_time"":1329}]","37517","","","","","","","","","","","","","","","","","","","",""
"","comprehension_check","","survey-multi-choice","5","172188","0.0-1.0-0.1-1.1","0","0","20867","","41325","{""Q0"":""False"",""Q1"":""K"",""Q2"":""Once the second image appears and while the screen 'MAKE A CHOICE' is shown"",""Q3"":""Green mark"",""Q4"":""either D or K""}","1","","","","","","","","","","","","","","","","","",""
"","missed_instruction_checkup","","html-keyboard-response","6","175238","0.0-1.0-0.1-2.1-0.1","0","1","20867","","3047","","","32","","","","","","","","","","","","","","","","",""
"","instructions","","instructions","7","202834","0.0-1.0-0.2-0.2","0","0","20867","[{""page_index"":0,""viewing_time"":5739},{""page_index"":1,""viewing_time"":18884},{""page_index"":2,""viewing_time"":2256},{""page_index"":3,""viewing_time"":715}]","27594","","","","","","","","","","","","","","","","","","","",""
"","comprehension_check","","survey-multi-choice","8","223380","0.0-1.0-0.2-1.2","0","0","20867","","20542","{""Q0"":""True"",""Q1"":""K"",""Q2"":""Once the second image appears and while the screen 'MAKE A CHOICE' is shown"",""Q3"":""Green mark"",""Q4"":""either D or K""}","0","","","","","","","","","","","","","","","","","",""
"","start_exp","","html-keyboard-response","9","226395","0.0-1.0-1.0","0","0","20867","","3013","","","32","","","","","","","","","","","","","","","","",""
"","S1","","html-keyboard-response","10","226649","0.0-1.0-2.0","0","0","20867","","null","","","null","0","","","","","","","","","","","","","","","",""
"","ISI","","html-keyboard-response","11","227652","0.0-1.0-3.0","0","0","20867","","null","","","null","0","NaN","","","","","","","","","","","","","","",""
"","S2","","html-keyboard-response","12","227905","0.0-1.0-4.0","0","0","20867","","null","","","null","0","","NaN","","","","","","","","","","","","","",""
"","response","","html-keyboard-response","13","229658","0.0-1.0-5.0-0.0","0","0","20867","","null","","","null","0","","","1","0","training","adjacent","FG","6","7","R.jpg","Q.jpg","NaN","1","0","",""
"","too_slow_prompt","","html-keyboard-response","14","230662","0.0-1.0-7.0-0.0","1","0","20867","","null","","","null","","","","","","","","","","","","","","","","",""
"","time_out","","html-keyboard-response","15","232664","0.0-1.0-8.0-0.0","0","0","20867","","null","","","null","0","","","","","","","","","","","","","","","",""
"","ITI","","html-keyboard-response","16","233666","0.0-1.0-9.0","0","0","20867","","null","","","null","0","","","","","","","","","","","","","","","NaN",""
"","S1","","html-keyboard-response","17","233918","0.0-1.0-11.0","0","0","20867","","null","","","null","1","","","","","","","","","","","","","","","",""
"","ISI","","html-keyboard-response","18","234921","0.0-1.0-12.0","0","0","20867","","null","","","null","1","NaN","","","","","","","","","","","","","","",""
"","S2","","html-keyboard-response","19","235174","0.0-1.0-13.0","0","0","20867","","null","","","null","1","","NaN","","","","","","","","","","","","","",""
"","response","","html-keyboard-response","20","235403","0.0-1.0-14.0-0.0","0","0","20867","","228","","","75","1","","","1","1","training","adjacent","DC","4","3","L.jpg","O.jpg","1","0","0","",""
"","feedback","","html-keyboard-response","21","236406","0.0-1.0-15.0-0.0","0","0","20867","","null","","","null","1","","","","","","","","","","","","","","","",""
"","time_out","","html-keyboard-response","22","238409","0.0-1.0-17.0-0.0","0","0","20867","","null","","","null","1","","","","","","","","","","","","","","","",""
"","ITI","","html-keyboard-response","23","239412","0.0-1.0-18.0","0","0","20867","","null","","","null","1","","","","","","","","","","","","","","","NaN",""
"","S1","","html-keyboard-response","24","239665","0.0-1.0-20.0","0","0","20867","","null","","","null","2","","","","","","","","","","","","","","","",""
"","ISI","","html-keyboard-response","25","240667","0.0-1.0-21.0","0","0","20867","","null","","","null","2","NaN","","","","","","","","","","","","","","",""
"","S2","","html-keyboard-response","26","240933","0.0-1.0-22.0","0","0","20867","","null","","","null","2","","NaN","","","","","","","","","","","","","",""
"","response","","html-keyboard-response","27","240971","0.0-1.0-23.0-0.0","0","0","20867","","36","","","68","2","","","1","2","training","adjacent","EF","5","6","M.jpg","R.jpg","0","1","0","",""
"","feedback","","html-keyboard-response","28","241974","0.0-1.0-24.0-0.0","0","0","20867","","null","","","null","2","","","","","","","","","","","","","","","",""
"","time_out","","html-keyboard-response","29","243977","0.0-1.0-26.0-0.0","0","0","20867","","null","","","null","2","","","","","","","","","","","","","","","",""
"","ITI","","html-keyboard-response","30","244978","0.0-1.0-27.0","0","0","20867","","null","","","null","2","","","","","","","","","","","","","","","NaN",""
"","S1","","html-keyboard-response","31","245232","0.0-1.0-29.0","0","0","20867","","null","","","null","3","","","","","","","","","","","","","","","",""
"","ISI","","html-keyboard-response","32","246247","0.0-1.0-30.0","0","0","20867","","210","","","75","3","k","","","","","","","","","","","","","","",""
"","S2","","html-keyboard-response","33","246501","0.0-1.0-31.0","0","0","20867","","null","","","null","3","","NaN","","","","","","","","","","","","","",""
"","response","","html-keyboard-response","34","246778","0.0-1.0-32.0-0.0","0","0","20867","","275","","","68","3","","","1","3","training","adjacent","BC","2","3","P.jpg","O.jpg","0","1","0","",""
"","feedback","","html-keyboard-response","35","247781","0.0-1.0-33.0-0.0","0","0","20867","","null","","","null","3","","","","","","","","","","","","","","","",""
"","time_out","","html-keyboard-response","36","249784","0.0-1.0-35.0-0.0","0","0","20867","","null","","","null","3","","","","","","","","","","","","","","","",""
"","ITI","","html-keyboard-response","37","250788","0.0-1.0-36.0","0","0","20867","","null","","","null","3","","","","","","","","","","","","","","","NaN",""
"","S1","","html-keyboard-response","38","251041","0.0-1.0-38.0","0","0","20867","","null","","","null","4","","","","","","","","","","","","","","","",""
"","ISI","","html-keyboard-response","39","252043","0.0-1.0-39.0","0","0","20867","","null","","","null","4","NaN","","","","","","","","","","","","","","",""
"","S2","","html-keyboard-response","40","252123","0.0-1.0-40.0","0","0","20867","","79","","","68","4","","d","1","4","training","adjacent","GF","7","6","Q.jpg","R.jpg","0","0","1","",""
"","feedback","","html-keyboard-response","41","253126","0.0-1.0-42.0-0.0","0","0","20867","","null","","","null","4","","","","","","","","","","","","","","","",""
"","ITI","","html-keyboard-response","42","254128","0.0-1.0-45.0","0","0","20867","","null","","","null","4","","","","","","","","","","","","","","","NaN",""
"","S1","","html-keyboard-response","43","254381","0.0-1.0-47.0","0","0","20867","","null","","","null","5","","","","","","","","","","","","","","","",""
"","ISI","","html-keyboard-response","44","255383","0.0-1.0-48.0","0","0","20867","","317","","","75","5","k","","","","","","","","","","","","","","",""
"","S2","","html-keyboard-response","45","255637","0.0-1.0-49.0","0","0","20867","","null","","","null","5","","NaN","","","","","","","","","","","","","",""
"","response","","html-keyboard-response","46","255923","0.0-1.0-50.0-0.0","0","0","20867","","284","","","75","5","","","1","5","training","adjacent","BA","2","1","P.jpg","N.jpg","1","0","0","",""
"","feedback","","html-keyboard-response","47","256927","0.0-1.0-51.0-0.0","0","0","20867","","null","","","null","5","","","","","","","","","","","","","","","",""
"","time_out","","html-keyboard-response","48","258929","0.0-1.0-53.0-0.0","0","0","20867","","null","","","null","5","","","","","","","","","","","","","","","",""
"","ITI","","html-keyboard-response","49","259932","0.0-1.0-54.0","0","0","20867","","null","","","null","5","","","","","","","","","","","","","","","NaN",""
"","S1","","html-keyboard-response","50","260185","0.0-1.0-56.0","0","0","20867","","null","","","null","6","","","","","","","","","","","","","","","",""
"","ISI","","html-keyboard-response","51","261188","0.0-1.0-57.0","0","0","20867","","null","","","null","6","NaN","","","","","","","","","","","","","","",""
"","S2","","html-keyboard-response","52","261441","0.0-1.0-58.0","0","0","20867","","null","","","null","6","","NaN","","","","","","","","","","","","","",""
"","response","","html-keyboard-response","53","261611","0.0-1.0-59.0-0.0","0","0","20867","","168","","","75","6","","","1","6","training","adjacent","CB","3","2","O.jpg","P.jpg","1","0","0","",""
"","feedback","","html-keyboard-response","54","262613","0.0-1.0-60.0-0.0","0","0","20867","","null","","","null","6","","","","","","","","","","","","","","","",""
"","time_out","","html-keyboard-response","55","264616","0.0-1.0-62.0-0.0","0","0","20867","","null","","","null","6","","","","","","","","","","","","","","","",""
"","ITI","","html-keyboard-response","56","265619","0.0-1.0-63.0","0","0","20867","","null","","","null","6","","","","","","","","","","","","","","","NaN",""
"","S1","","html-keyboard-response","57","265882","0.0-1.0-65.0","0","0","20867","","null","","","null","7","","","","","","","","","","","","","","","",""
"","ISI","","html-keyboard-response","58","266885","0.0-1.0-66.0","0","0","20867","","191","","","75","7","k","","","","","","","","","","","","","","",""
"","S2","","html-keyboard-response","59","267137","0.0-1.0-67.0","0","0","20867","","null","","","null","7","","NaN","","","","","","","","","","","","","",""
"","response","","html-keyboard-response","60","267275","0.0-1.0-68.0-0.0","0","0","20867","","137","","","75","7","","","1","7","training","adjacent","FE","6","5","R.jpg","M.jpg","1","0","0","",""
"","feedback","","html-keyboard-response","61","268279","0.0-1.0-69.0-0.0","0","0","20867","","null","","","null","7","","","","","","","","","","","","","","","",""
"","time_out","","html-keyboard-response","62","270282","0.0-1.0-71.0-0.0","0","0","20867","","null","","","null","7","","","","","","","","","","","","","","","",""
"","ITI","","html-keyboard-response","63","271284","0.0-1.0-72.0","0","0","20867","","null","","","null","7","","","","","","","","","","","","","","","NaN",""
"","S1","","html-keyboard-response","64","271536","0.0-1.0-74.0","0","0","20867","","null","","","null","8","","","","","","","","","","","","","","","",""
"","ISI","","html-keyboard-response","65","272539","0.0-1.0-75.0","0","0","20867","","58","","","68","8","d","","","","","","","","","","","","","","",""
"","S2","","html-keyboard-response","66","272792","0.0-1.0-76.0","0","0","20867","","null","","","null","8","","NaN","","","","","","","","","","","","","",""
"","response","","html-keyboard-response","67","273131","0.0-1.0-77.0-0.0","0","0","20867","","337","","","75","8","","","1","8","training","adjacent","EF","5","6","M.jpg","R.jpg","1","1","1","",""
"","feedback","","html-keyboard-response","68","274133","0.0-1.0-78.0-0.0","0","0","20867","","null","","","null","8","","","","","","","","","","","","","","","",""
"","ITI","","html-keyboard-response","69","275136","0.0-1.0-81.0","0","0","20867","","null","","","null","8","","","","","","","","","","","","","","","NaN",""
"","S1","","html-keyboard-response","70","275389","0.0-1.0-83.0","0","0","20867","","null","","","null","9","","","","","","","","","","","","","","","",""
"","ISI","","html-keyboard-response","71","276391","0.0-1.0-84.0","0","0","20867","","null","","","null","9","NaN","","","","","","","","","","","","","","",""
"","S2","","html-keyboard-response","72","276644","0.0-1.0-85.0","0","0","20867","","null","","","null","9","","NaN","","","","","","","","","","","","","",""
"","response","","html-keyboard-response","73","276755","0.0-1.0-86.0-0.0","0","0","20867","","110","","","68","9","","","1","9","training","adjacent","FE","6","5","R.jpg","M.jpg","0","0","1","",""
"","feedback","","html-keyboard-response","74","277758","0.0-1.0-87.0-0.0","0","0","20867","","null","","","null","9","","","","","","","","","","","","","","","",""
"","ITI","","html-keyboard-response","75","278761","0.0-1.0-90.0","0","0","20867","","null","","","null","9","","","","","","","","","","","","","","","NaN",""
"","S1","","html-keyboard-response","76","279013","0.0-1.0-92.0","0","0","20867","","null","","","null","10","","","","","","","","","","","","","","","",""
"","ISI","","html-keyboard-response","77","280016","0.0-1.0-93.0","0","0","20867","","null","","","null","10","NaN","","","","","","","","","","","","","","",""
"","S2","","html-keyboard-response","78","280268","0.0-1.0-94.0","0","0","20867","","null","","","null","10","","NaN","","","","","","","","","","","","","",""
"","response","","html-keyboard-response","79","280403","0.0-1.0-95.0-0.0","0","0","20867","","134","","","75","10","","","1","10","training","adjacent","DC","4","3","L.jpg","O.jpg","1","0","0","",""
"","feedback","","html-keyboard-response","80","281405","0.0-1.0-96.0-0.0","0","0","20867","","null","","","null","10","","","","","","","","","","","","","","","",""
"","time_out","","html-keyboard-response","81","283408","0.0-1.0-98.0-0.0","0","0","20867","","null","","","null","10","","","","","","","","","","","","","","","",""
"","ITI","","html-keyboard-response","82","284410","0.0-1.0-99.0","0","0","20867","","null","","","null","10","","","","","","","","","","","","","","","NaN",""
"","S1","","html-keyboard-response","83","284663","0.0-1.0-101.0","0","0","20867","","null","","","null","11","","","","","","","","","","","","","","","",""
"","ISI","","html-keyboard-response","84","285664","0.0-1.0-102.0","0","0","20867","","211","","","68","11","d","","","","","","","","","","","","","","",""
"","S2","","html-keyboard-response","85","285917","0.0-1.0-103.0","0","0","20867","","null","","","null","11","","NaN","","","","","","","","","","","","","",""
"","response","","html-keyboard-response","86","286019","0.0-1.0-104.0-0.0","0","0","20867","","100","","","68","11","","","1","11","training","adjacent","ED","5","4","M.jpg","L.jpg","0","0","1","",""
"","feedback","","html-keyboard-response","87","287021","0.0-1.0-105.0-0.0","0","0","20867","","null","","","null","11","","","","","","","","","","","","","","","",""
"","ITI","","html-keyboard-response","88","288024","0.0-1.0-108.0","0","0","20867","","null","","","null","11","","","","","","","","","","","","","","","NaN",""
"","S1","","html-keyboard-response","89","288277","0.0-1.0-110.0","0","0","20867","","null","","","null","12","","","","","","","","","","","","","","","",""
"","ISI","","html-keyboard-response","90","289280","0.0-1.0-111.0","0","0","20867","","null","","","null","12","NaN","","","","","","","","","","","","","","",""
"","S2","","html-keyboard-response","91","289534","0.0-1.0-112.0","0","0","20867","","null","","","null","12","","NaN","","","","","","","","","","","","","",""
"","response","","html-keyboard-response","92","289635","0.0-1.0-113.0-0.0","0","0","20867","","100","","","68","12","","","1","12","training","adjacent","DE","4","5","L.jpg","M.jpg","0","1","0","",""
"","feedback","","html-keyboard-response","93","290638","0.0-1.0-114.0-0.0","0","0","20867","","null","","","null","12","","","","","","","","","","","","","","","",""
"","time_out","","html-keyboard-response","94","292640","0.0-1.0-116.0-0.0","0","0","20867","","null","","","null","12","","","","","","","","","","","","","","","",""
"","ITI","","html-keyboard-response","95","293642","0.0-1.0-117.0","0","0","20867","","null","","","null","12","","","","","","","","","","","","","","","NaN",""
"","S1","","html-keyboard-response","96","293894","0.0-1.0-119.0","0","0","20867","","null","","","null","13","","","","","","","","","","","","","","","",""
"","ISI","","html-keyboard-response","97","294897","0.0-1.0-120.0","0","0","20867","","null","","","null","13","NaN","","","","","","","","","","","","","","",""
"","S2","","html-keyboard-response","98","295150","0.0-1.0-121.0","0","0","20867","","null","","","null","13","","NaN","","","","","","","","","","","","","",""
"","response","","html-keyboard-response","99","295339","0.0-1.0-122.0-0.0","0","0","20867","","187","","","75","13","","","1","13","training","adjacent","DC","4","3","L.jpg","O.jpg","1","0","0","",""
"","feedback","","html-keyboard-response","100","296341","0.0-1.0-123.0-0.0","0","0","20867","","null","","","null","13","","","","","","","","","","","","","","","",""
"","time_out","","html-keyboard-response","101","298344","0.0-1.0-125.0-0.0","0","0","20867","","null","","","null","13","","","","","","","","","","","","","","","",""
"","ITI","","html-keyboard-response","102","299345","0.0-1.0-126.0","0","0","20867","","null","","","null","13","","","","","","","","","","","","","","","NaN",""
"","S1","","html-keyboard-response","103","299597","0.0-1.0-128.0","0","0","20867","","null","","","null","14","","","","","","","","","","","","","","","",""
"","ISI","","html-keyboard-response","104","300600","0.0-1.0-129.0","0","0","20867","","null","","","null","14","NaN","","","","","","","","","","","","","","",""
"","S2","","html-keyboard-response","105","300853","0.0-1.0-130.0","0","0","20867","","null","","","null","14","","NaN","","","","","","","","","","","","","",""
"","response","","html-keyboard-response","106","300987","0.0-1.0-131.0-0.0","0","0","20867","","133","","","68","14","","","1","14","training","adjacent","CB","3","2","O.jpg","P.jpg","0","0","1","",""
"","feedback","","html-keyboard-response","107","301990","0.0-1.0-132.0-0.0","0","0","20867","","null","","","null","14","","","","","","","","","","","","","","","",""
"","ITI","","html-keyboard-response","108","302993","0.0-1.0-135.0","0","0","20867","","null","","","null","14","","","","","","","","","","","","","","","NaN",""
"","S1","","html-keyboard-response","109","303246","0.0-1.0-137.0","0","0","20867","","null","","","null","15","","","","","","","","","","","","","","","",""
"","ISI","","html-keyboard-response","110","304249","0.0-1.0-138.0","0","0","20867","","379","","","68","15","d","","","","","","","","","","","","","","",""
"","S2","","html-keyboard-response","111","304503","0.0-1.0-139.0","0","0","20867","","null","","","null","15","","NaN","","","","","","","","","","","","","",""
"","response","","html-keyboard-response","112","304723","0.0-1.0-140.0-0.0","0","0","20867","","219","","","68","15","","","1","15","training","adjacent","AB","1","2","N.jpg","P.jpg","0","1","0","",""
"","feedback","","html-keyboard-response","113","305726","0.0-1.0-141.0-0.0","0","0","20867","","null","","","null","15","","","","","","","","","","","","","","","",""
"","time_out","","html-keyboard-response","114","307729","0.0-1.0-143.0-0.0","0","0","20867","","null","","","null","15","","","","","","","","","","","","","","","",""
"","ITI","","html-keyboard-response","115","308730","0.0-1.0-144.0","0","0","20867","","752","","","17","15","","","","","","","","","","","","","","","ctrl",""
"","S1","","html-keyboard-response","116","308982","0.0-1.0-146.0","0","0","20867","","null","","","null","16","","","","","","","","","","","","","","","",""
"","ISI","","html-keyboard-response","117","309985","0.0-1.0-147.0","0","0","20867","","484","","","68","16","d","","","","","","","","","","","","","","",""
"","S2","","html-keyboard-response","118","310238","0.0-1.0-148.0","0","0","20867","","null","","","null","16","","NaN","","","","","","","","","","","","","",""
"","response","","html-keyboard-response","119","311107","0.0-1.0-149.0-0.0","0","0","20867","","868","","","75","16","","","1","16","training","adjacent","BA","2","1","P.jpg","N.jpg","1","0","0","",""
"","feedback","","html-keyboard-response","120","312110","0.0-1.0-150.0-0.0","0","0","20867","","null","","","null","16","","","","","","","","","","","","","","","",""
"","time_out","","html-keyboard-response","121","314112","0.0-1.0-152.0-0.0","0","0","20867","","null","","","null","16","","","","","","","","","","","","","","","",""
"","ITI","","html-keyboard-response","122","315114","0.0-1.0-153.0","0","0","20867","","null","","","null","16","","","","","","","","","","","","","","","NaN",""
"","S1","","html-keyboard-response","123","315368","0.0-1.0-155.0","0","0","20867","","null","","","null","17","","","","","","","","","","","","","","","",""
"","ISI","","html-keyboard-response","124","316370","0.0-1.0-156.0","0","0","20867","","137","","","68","17","d","","","","","","","","","","","","","","",""
"","S2","","html-keyboard-response","125","316623","0.0-1.0-157.0","0","0","20867","","null","","","null","17","","NaN","","","","","","","","","","","","","",""
"","response","","html-keyboard-response","126","316827","0.0-1.0-158.0-0.0","0","0","20867","","202","","","68","17","","","1","17","training","adjacent","BC","2","3","P.jpg","O.jpg","0","1","0","",""
"","feedback","","html-keyboard-response","127","317829","0.0-1.0-159.0-0.0","0","0","20867","","null","","","null","17","","","","","","","","","","","","","","","",""
"","time_out","","html-keyboard-response","128","319831","0.0-1.0-161.0-0.0","0","0","20867","","null","","","null","17","","","","","","","","","","","","","","","",""
"","ITI","","html-keyboard-response","129","320834","0.0-1.0-162.0","0","0","20867","","null","","","null","17","","","","","","","","","","","","","","","NaN",""
"","S1","","html-keyboard-response","130","321087","0.0-1.0-164.0","0","0","20867","","null","","","null","18","","","","","","","","","","","","","","","",""
"","ISI","","html-keyboard-response","131","322090","0.0-1.0-165.0","0","0","20867","","null","","","null","18","NaN","","","","","","","","","","","","","","",""
"","S2","","html-keyboard-response","132","322344","0.0-1.0-166.0","0","0","20867","","null","","","null","18","","NaN","","","","","","","","","","","","","",""
"","response","","html-keyboard-response","133","322387","0.0-1.0-167.0-0.0","0","0","20867","","42","","","68","18","","","1","18","training","adjacent","DE","4","5","L.jpg","M.jpg","0","1","0","",""
"","feedback","","html-keyboard-response","134","323389","0.0-1.0-168.0-0.0","0","0","20867","","null","","","null","18","","","","","","","","","","","","","","","",""
"","time_out","","html-keyboard-response","135","325392","0.0-1.0-170.0-0.0","0","0","20867","","null","","","null","18","","","","","","","","","","","","","","","",""
"","ITI","","html-keyboard-response","136","326393","0.0-1.0-171.0","0","0","20867","","null","","","null","18","","","","","","","","","","","","","","","NaN",""
"","S1","","html-keyboard-response","137","326646","0.0-1.0-173.0","0","0","20867","","null","","","null","19","","","","","","","","","","","","","","","",""
"","ISI","","html-keyboard-response","138","327649","0.0-1.0-174.0","0","0","20867","","null","","","null","19","NaN","","","","","","","","","","","","","","",""
"","S2","","html-keyboard-response","139","327914","0.0-1.0-175.0","0","0","20867","","null","","","null","19","","NaN","","","","","","","","","","","","","",""
"","response","","html-keyboard-response","140","328299","0.0-1.0-176.0-0.0","0","0","20867","","383","","","75","19","","","1","19","training","adjacent","FG","6","7","R.jpg","Q.jpg","1","1","1","",""
"","feedback","","html-keyboard-response","141","329301","0.0-1.0-177.0-0.0","0","0","20867","","null","","","null","19","","","","","","","","","","","","","","","",""
"","ITI","","html-keyboard-response","142","330303","0.0-1.0-180.0","0","0","20867","","null","","","null","19","","","","","","","","","","","","","","","NaN",""
"","S1","","html-keyboard-response","143","330556","0.0-1.0-182.0","0","0","20867","","null","","","null","20","","","","","","","","","","","","","","","",""
"","ISI","","html-keyboard-response","144","331558","0.0-1.0-183.0","0","0","20867","","null","","","null","20","NaN","","","","","","","","","","","","","","",""
"","S2","","html-keyboard-response","145","331813","0.0-1.0-184.0","0","0","20867","","null","","","null","20","","NaN","","","","","","","","","","","","","",""
"","response","","html-keyboard-response","146","331947","0.0-1.0-185.0-0.0","0","0","20867","","132","","","75","20","","","1","20","training","adjacent","FG","6","7","R.jpg","Q.jpg","1","1","1","",""
"","feedback","","html-keyboard-response","147","332950","0.0-1.0-186.0-0.0","0","0","20867","","null","","","null","20","","","","","","","","","","","","","","","",""
"","ITI","","html-keyboard-response","148","333952","0.0-1.0-189.0","0","0","20867","","null","","","null","20","","","","","","","","","","","","","","","NaN",""
"","S1","","html-keyboard-response","149","334205","0.0-1.0-191.0","0","0","20867","","null","","","null","21","","","","","","","","","","","","","","","",""
"","ISI","","html-keyboard-response","150","335207","0.0-1.0-192.0","0","0","20867","","null","","","null","21","NaN","","","","","","","","","","","","","","",""
"","S2","","html-keyboard-response","151","335460","0.0-1.0-193.0","0","0","20867","","null","","","null","21","","NaN","","","","","","","","","","","","","",""
"","response","","html-keyboard-response","152","335475","0.0-1.0-194.0-0.0","0","0","20867","","14","","","68","21","","","1","21","training","adjacent","DE","4","5","L.jpg","M.jpg","0","1","0","",""
"","feedback","","html-keyboard-response","153","336478","0.0-1.0-195.0-0.0","0","0","20867","","null","","","null","21","","","","","","","","","","","","","","","",""
"","time_out","","html-keyboard-response","154","338482","0.0-1.0-197.0-0.0","0","0","20867","","null","","","null","21","","","","","","","","","","","","","","","",""
"","ITI","","html-keyboard-response","155","339485","0.0-1.0-198.0","0","0","20867","","null","","","null","21","","","","","","","","","","","","","","","NaN",""
"","S1","","html-keyboard-response","156","339738","0.0-1.0-200.0","0","0","20867","","null","","","null","22","","","","","","","","","","","","","","","",""
"","ISI","","html-keyboard-response","157","340741","0.0-1.0-201.0","0","0","20867","","null","","","null","22","NaN","","","","","","","","","","","","","","",""
"","S2","","html-keyboard-response","158","340994","0.0-1.0-202.0","0","0","20867","","null","","","null","22","","NaN","","","","","","","","","","","","","",""
"","response","","html-keyboard-response","159","341555","0.0-1.0-203.0-0.0","0","0","20867","","560","","","68","22","","","1","22","training","adjacent","CD","3","4","O.jpg","L.jpg","0","1","0","",""
"","feedback","","html-keyboard-response","160","342557","0.0-1.0-204.0-0.0","0","0","20867","","null","","","null","22","","","","","","","","","","","","","","","",""
"","time_out","","html-keyboard-response","161","344560","0.0-1.0-206.0-0.0","0","0","20867","","null","","","null","22","","","","","","","","","","","","","","","",""
"","ITI","","html-keyboard-response","162","345562","0.0-1.0-207.0","0","0","20867","","null","","","null","22","","","","","","","","","","","","","","","NaN",""
"","S1","","html-keyboard-response","163","345814","0.0-1.0-209.0","0","0","20867","","null","","","null","23","","","","","","","","","","","","","","","",""
"","ISI","","html-keyboard-response","164","346817","0.0-1.0-210.0","0","0","20867","","null","","","null","23","NaN","","","","","","","","","","","","","","",""
"","S2","","html-keyboard-response","165","347069","0.0-1.0-211.0","0","0","20867","","null","","","null","23","","NaN","","","","","","","","","","","","","",""
"","response","","html-keyboard-response","166","347122","0.0-1.0-212.0-0.0","0","0","20867","","52","","","68","23","","","1","23","training","adjacent","ED","5","4","M.jpg","L.jpg","0","0","1","",""
"","feedback","","html-keyboard-response","167","348126","0.0-1.0-213.0-0.0","0","0","20867","","null","","","null","23","","","","","","","","","","","","","","","",""
"","ITI","","html-keyboard-response","168","349128","0.0-1.0-216.0","0","0","20867","","null","","","null","23","","","","","","","","","","","","","","","NaN",""
"","S1","","html-keyboard-response","169","349380","0.0-1.0-218.0","0","0","20867","","null","","","null","24","","","","","","","","","","","","","","","",""
"","ISI","","html-keyboard-response","170","350382","0.0-1.0-219.0","0","0","20867","","null","","","null","24","NaN","","","","","","","","","","","","","","",""
"","S2","","html-keyboard-response","171","350635","0.0-1.0-220.0","0","0","20867","","null","","","null","24","","NaN","","","","","","","","","","","","","",""
"","response","","html-keyboard-response","172","352389","0.0-1.0-221.0-0.0","0","0","20867","","null","","","null","24","","","1","24","training","adjacent","DC","4","3","L.jpg","O.jpg","NaN","0","0","",""
"","too_slow_prompt","","html-keyboard-response","173","353391","0.0-1.0-223.0-0.0","1","0","20867","","null","","","null","","","","","","","","","","","","","","","","",""
"","time_out","","html-keyboard-response","174","355394","0.0-1.0-224.0-0.0","0","0","20867","","null","","","null","24","","","","","","","","","","","","","","","",""
"","ITI","","html-keyboard-response","175","356396","0.0-1.0-225.0","0","0","20867","","null","","","null","24","","","","","","","","","","","","","","","NaN",""
"","S1","","html-keyboard-response","176","356649","0.0-1.0-227.0","0","0","20867","","null","","","null","25","","","","","","","","","","","","","","","",""
"","ISI","","html-keyboard-response","177","357651","0.0-1.0-228.0","0","0","20867","","801","","","68","25","d","","","","","","","","","","","","","","",""
"","S2","","html-keyboard-response","178","357904","0.0-1.0-229.0","0","0","20867","","null","","","null","25","","NaN","","","","","","","","","","","","","",""
"","response","","html-keyboard-response","179","358099","0.0-1.0-230.0-0.0","0","0","20867","","193","","","68","25","","","1","25","training","adjacent","GF","7","6","Q.jpg","R.jpg","0","0","1","",""
"","feedback","","html-keyboard-response","180","359100","0.0-1.0-231.0-0.0","0","0","20867","","null","","","null","25","","","","","","","","","","","","","","","",""
"","ITI","","html-keyboard-response","181","360103","0.0-1.0-234.0","0","0","20867","","null","","","null","25","","","","","","","","","","","","","","","NaN",""
"","S1","","html-keyboard-response","182","360355","0.0-1.0-236.0","0","0","20867","","null","","","null","26","","","","","","","","","","","","","","","",""
"","ISI","","html-keyboard-response","183","361357","0.0-1.0-237.0","0","0","20867","","null","","","null","26","NaN","","","","","","","","","","","","","","",""
"","S2","","html-keyboard-response","184","361610","0.0-1.0-238.0","0","0","20867","","null","","","null","26","","NaN","","","","","","","","","","","","","",""
"","response","","html-keyboard-response","185","361706","0.0-1.0-239.0-0.0","0","0","20867","","95","","","68","26","","","1","26","training","adjacent","FG","6","7","R.jpg","Q.jpg","0","1","0","",""
"","feedback","","html-keyboard-response","186","362709","0.0-1.0-240.0-0.0","0","0","20867","","null","","","null","26","","","","","","","","","","","","","","","",""
"","time_out","","html-keyboard-response","187","364712","0.0-1.0-242.0-0.0","0","0","20867","","null","","","null","26","","","","","","","","","","","","","","","",""
"","ITI","","html-keyboard-response","188","365715","0.0-1.0-243.0","0","0","20867","","null","","","null","26","","","","","","","","","","","","","","","NaN",""
"","S1","","html-keyboard-response","189","365969","0.0-1.0-245.0","0","0","20867","","null","","","null","27","","","","","","","","","","","","","","","",""
"","ISI","","html-keyboard-response","190","366971","0.0-1.0-246.0","0","0","20867","","121","","","68","27","d","","","","","","","","","","","","","","",""
"","S2","","html-keyboard-response","191","367179","0.0-1.0-247.0","0","0","20867","","206","","","75","27","","k","1","27","training","adjacent","BC","2","3","P.jpg","O.jpg","1","1","1","",""
"","feedback","","html-keyboard-response","192","368182","0.0-1.0-249.0-0.0","0","0","20867","","null","","","null","27","","","","","","","","","","","","","","","",""
"","ITI","","html-keyboard-response","193","369184","0.0-1.0-252.0","0","0","20867","","null","","","null","27","","","","","","","","","","","","","","","NaN",""
"","S1","","html-keyboard-response","194","369436","0.0-1.0-254.0","0","0","20867","","null","","","null","28","","","","","","","","","","","","","","","",""
"","ISI","","html-keyboard-response","195","370438","0.0-1.0-255.0","0","0","20867","","null","","","null","28","NaN","","","","","","","","","","","","","","",""
"","S2","","html-keyboard-response","196","370690","0.0-1.0-256.0","0","0","20867","","null","","","null","28","","NaN","","","","","","","","","","","","","",""
"","response","","html-keyboard-response","197","371147","0.0-1.0-257.0-0.0","0","0","20867","","456","","","75","28","","","1","28","training","adjacent","AB","1","2","N.jpg","P.jpg","1","1","1","",""
"","feedback","","html-keyboard-response","198","372150","0.0-1.0-258.0-0.0","0","0","20867","","null","","","null","28","","","","","","","","","","","","","","","",""
"","ITI","","html-keyboard-response","199","373152","0.0-1.0-261.0","0","0","20867","","null","","","null","28","","","","","","","","","","","","","","","NaN",""
"","S1","","html-keyboard-response","200","373406","0.0-1.0-263.0","0","0","20867","","null","","","null","29","","","","","","","","","","","","","","","",""
"","ISI","","html-keyboard-response","201","374408","0.0-1.0-264.0","0","0","20867","","null","","","null","29","NaN","","","","","","","","","","","","","","",""
"","S2","","html-keyboard-response","202","374643","0.0-1.0-265.0","0","0","20867","","233","","","68","29","","d","1","29","training","adjacent","BC","2","3","P.jpg","O.jpg","0","1","0","",""
"","feedback","","html-keyboard-response","203","375646","0.0-1.0-267.0-0.0","0","0","20867","","null","","","null","29","","","","","","","","","","","","","","","",""
"","time_out","","html-keyboard-response","204","377648","0.0-1.0-269.0-0.0","0","0","20867","","null","","","null","29","","","","","","","","","","","","","","","",""
"","ITI","","html-keyboard-response","205","378650","0.0-1.0-270.0","0","0","20867","","null","","","null","29","","","","","","","","","","","","","","","NaN",""
"","S1","","html-keyboard-response","206","378904","0.0-1.0-272.0","0","0","20867","","null","","","null","30","","","","","","","","","","","","","","","",""
"","ISI","","html-keyboard-response","207","379906","0.0-1.0-273.0","0","0","20867","","null","","","null","30","NaN","","","","","","","","","","","","","","",""
"","S2","","html-keyboard-response","208","380159","0.0-1.0-274.0","0","0","20867","","null","","","null","30","","NaN","","","","","","","","","","","","","",""
"","response","","html-keyboard-response","209","380258","0.0-1.0-275.0-0.0","0","0","20867","","97","","","68","30","","","1","30","training","adjacent","BA","2","1","P.jpg","N.jpg","0","0","1","",""
"","feedback","","html-keyboard-response","210","381262","0.0-1.0-276.0-0.0","0","0","20867","","null","","","null","30","","","","","","","","","","","","","","","",""
"","ITI","","html-keyboard-response","211","382265","0.0-1.0-279.0","0","0","20867","","null","","","null","30","","","","","","","","","","","","","","","NaN",""
"","S1","","html-keyboard-response","212","382518","0.0-1.0-281.0","0","0","20867","","null","","","null","31","","","","","","","","","","","","","","","",""
"","ISI","","html-keyboard-response","213","383520","0.0-1.0-282.0","0","0","20867","","null","","","null","31","NaN","","","","","","","","","","","","","","",""
"","S2","","html-keyboard-response","214","383773","0.0-1.0-283.0","0","0","20867","","null","","","null","31","","NaN","","","","","","","","","","","","","",""
"","response","","html-keyboard-response","215","384515","0.0-1.0-284.0-0.0","0","0","20867","","740","","","75","31","","","1","31","training","adjacent","GF","7","6","Q.jpg","R.jpg","1","0","0","",""
"","feedback","","html-keyboard-response","216","385518","0.0-1.0-285.0-0.0","0","0","20867","","null","","","null","31","","","","","","","","","","","","","","","",""
"","time_out","","html-keyboard-response","217","387520","0.0-1.0-287.0-0.0","0","0","20867","","null","","","null","31","","","","","","","","","","","","","","","",""
"","ITI","","html-keyboard-response","218","388523","0.0-1.0-288.0","0","0","20867","","null","","","null","31","","","","","","","","","","","","","","","NaN",""
"","S1","","html-keyboard-response","219","388776","0.0-1.0-290.0","0","0","20867","","null","","","null","32","","","","","","","","","","","","","","","",""
"","ISI","","html-keyboard-response","220","389777","0.0-1.0-291.0","0","0","20867","","null","","","null","32","NaN","","","","","","","","","","","","","","",""
"","S2","","html-keyboard-response","221","390030","0.0-1.0-292.0","0","0","20867","","null","","","null","32","","NaN","","","","","","","","","","","","","",""
"","response","","html-keyboard-response","222","390146","0.0-1.0-293.0-0.0","0","0","20867","","114","","","68","32","","","1","32","training","adjacent","GF","7","6","Q.jpg","R.jpg","0","0","1","",""
"","feedback","","html-keyboard-response","223","391149","0.0-1.0-294.0-0.0","0","0","20867","","null","","","null","32","","","","","","","","","","","","","","","",""
"","ITI","","html-keyboard-response","224","392153","0.0-1.0-297.0","0","0","20867","","null","","","null","32","","","","","","","","","","","","","","","NaN",""
"","S1","","html-keyboard-response","225","392406","0.0-1.0-299.0","0","0","20867","","null","","","null","33","","","","","","","","","","","","","","","",""
"","ISI","","html-keyboard-response","226","393407","0.0-1.0-300.0","0","0","20867","","null","","","null","33","NaN","","","","","","","","","","","","","","",""
"","S2","","html-keyboard-response","227","393660","0.0-1.0-301.0","0","0","20867","","null","","","null","33","","NaN","","","","","","","","","","","","","",""
"","response","","html-keyboard-response","228","394523","0.0-1.0-302.0-0.0","0","0","20867","","860","","","68","33","","","1","33","training","adjacent","DE","4","5","L.jpg","M.jpg","0","1","0","",""
"","feedback","","html-keyboard-response","229","395526","0.0-1.0-303.0-0.0","0","0","20867","","null","","","null","33","","","","","","","","","","","","","","","",""
"","time_out","","html-keyboard-response","230","397529","0.0-1.0-305.0-0.0","0","0","20867","","null","","","null","33","","","","","","","","","","","","","","","",""
"","ITI","","html-keyboard-response","231","398533","0.0-1.0-306.0","0","0","20867","","null","","","null","33","","","","","","","","","","","","","","","NaN",""
"","S1","","html-keyboard-response","232","398785","0.0-1.0-308.0","0","0","20867","","null","","","null","34","","","","","","","","","","","","","","","",""
"","ISI","","html-keyboard-response","233","399788","0.0-1.0-309.0","0","0","20867","","176","","","68","34","d","","","","","","","","","","","","","","",""
"","S2","","html-keyboard-response","234","400041","0.0-1.0-310.0","0","0","20867","","null","","","null","34","","NaN","","","","","","","","","","","","","",""
"","response","","html-keyboard-response","235","400146","0.0-1.0-311.0-0.0","0","0","20867","","104","","","75","34","","","1","34","training","adjacent","CD","3","4","O.jpg","L.jpg","1","1","1","",""
"","feedback","","html-keyboard-response","236","401149","0.0-1.0-312.0-0.0","0","0","20867","","null","","","null","34","","","","","","","","","","","","","","","",""
"","ITI","","html-keyboard-response","237","402153","0.0-1.0-315.0","0","0","20867","","null","","","null","34","","","","","","","","","","","","","","","NaN",""
"","S1","","html-keyboard-response","238","402406","0.0-1.0-317.0","0","0","20867","","null","","","null","35","","","","","","","","","","","","","","","",""
"","ISI","","html-keyboard-response","239","403408","0.0-1.0-318.0","0","0","20867","","null","","","null","35","NaN","","","","","","","","","","","","","","",""
"","S2","","html-keyboard-response","240","403661","0.0-1.0-319.0","0","0","20867","","null","","","null","35","","NaN","","","","","","","","","","","","","",""
"","response","","html-keyboard-response","241","403826","0.0-1.0-320.0-0.0","0","0","20867","","163","","","68","35","","","1","35","training","adjacent","EF","5","6","M.jpg","R.jpg","0","1","0","",""
"","feedback","","html-keyboard-response","242","404829","0.0-1.0-321.0-0.0","0","0","20867","","null","","","null","35","","","","","","","","","","","","","","","",""
"","time_out","","html-keyboard-response","243","406832","0.0-1.0-323.0-0.0","0","0","20867","","null","","","null","35","","","","","","","","","","","","","","","",""
"","ITI","","html-keyboard-response","244","407834","0.0-1.0-324.0","0","0","20867","","null","","","null","35","","","","","","","","","","","","","","","NaN",""
"","S1","","html-keyboard-response","245","408086","0.0-1.0-326.0","0","0","20867","","null","","","null","36","","","","","","","","","","","","","","","",""
"","ISI","","html-keyboard-response","246","409089","0.0-1.0-327.0","0","0","20867","","null","","","null","36","NaN","","","","","","","","","","","","","","",""
"","S2","","html-keyboard-response","247","409346","0.0-1.0-328.0","0","0","20867","","null","","","null","36","","NaN","","","","","","","","","","","","","",""
"","response","","html-keyboard-response","248","410075","0.0-1.0-329.0-0.0","0","0","20867","","727","","","68","36","","","1","36","training","adjacent","ED","5","4","M.jpg","L.jpg","0","0","1","",""
"","feedback","","html-keyboard-response","249","411079","0.0-1.0-330.0-0.0","0","0","20867","","null","","","null","36","","","","","","","","","","","","","","","",""
"","ITI","","html-keyboard-response","250","412084","0.0-1.0-333.0","0","0","20867","","481","","","67","36","","","","","","","","","","","","","","","c",""
"","S1","","html-keyboard-response","251","412338","0.0-1.0-335.0","0","0","20867","","null","","","null","37","","","","","","","","","","","","","","","",""
"","ISI","","html-keyboard-response","252","413341","0.0-1.0-336.0","0","0","20867","","134","","","75","37","k","","","","","","","","","","","","","","",""
"","S2","","html-keyboard-response","253","413594","0.0-1.0-337.0","0","0","20867","","null","","","null","37","","NaN","","","","","","","","","","","","","",""
"","response","","html-keyboard-response","254","413755","0.0-1.0-338.0-0.0","0","0","20867","","159","","","75","37","","","1","37","training","adjacent","CB","3","2","O.jpg","P.jpg","1","0","0","",""
"","feedback","","html-keyboard-response","255","414759","0.0-1.0-339.0-0.0","0","0","20867","","null","","","null","37","","","","","","","","","","","","","","","",""
"","time_out","","html-keyboard-response","256","416762","0.0-1.0-341.0-0.0","0","0","20867","","null","","","null","37","","","","","","","","","","","","","","","",""
"","ITI","","html-keyboard-response","257","417765","0.0-1.0-342.0","0","0","20867","","null","","","null","37","","","","","","","","","","","","","","","NaN",""
"","S1","","html-keyboard-response","258","418018","0.0-1.0-344.0","0","0","20867","","null","","","null","38","","","","","","","","","","","","","","","",""
"","ISI","","html-keyboard-response","259","419021","0.0-1.0-345.0","0","0","20867","","128","","","67","38","c","","","","","","","","","","","","","","",""
"","S2","","html-keyboard-response","260","419275","0.0-1.0-346.0","0","0","20867","","null","","","null","38","","NaN","","","","","","","","","","","","","",""
"","response","","html-keyboard-response","261","421028","0.0-1.0-347.0-0.0","0","0","20867","","null","","","null","38","","","1","38","training","adjacent","BA","2","1","P.jpg","N.jpg","NaN","0","0","",""
"","too_slow_prompt","","html-keyboard-response","262","422031","0.0-1.0-349.0-0.0","1","0","20867","","null","","","null","","","","","","","","","","","","","","","","",""
"","time_out","","html-keyboard-response","263","424034","0.0-1.0-350.0-0.0","0","0","20867","","null","","","null","38","","","","","","","","","","","","","","","",""
"","ITI","","html-keyboard-response","264","425036","0.0-1.0-351.0","0","0","20867","","22","","","67","38","","","","","","","","","","","","","","","c",""
"","S1","","html-keyboard-response","265","425290","0.0-1.0-353.0","0","0","20867","","null","","","null","39","","","","","","","","","","","","","","","",""
"","ISI","","html-keyboard-response","266","426292","0.0-1.0-354.0","0","0","20867","","192","","","75","39","k","","","","","","","","","","","","","","",""
"","S2","","html-keyboard-response","267","426363","0.0-1.0-355.0","0","0","20867","","69","","","75","39","","k","1","39","training","adjacent","EF","5","6","M.jpg","R.jpg","1","1","1","",""
"","feedback","","html-keyboard-response","268","427365","0.0-1.0-357.0-0.0","0","0","20867","","null","","","null","39","","","","","","","","","","","","","","","",""
"","ITI","","html-keyboard-response","269","428369","0.0-1.0-360.0","0","0","20867","","51","","","75","39","","","","","","","","","","","","","","","k",""
"","S1","","html-keyboard-response","270","428622","0.0-1.0-362.0","0","0","20867","","null","","","null","40","","","","","","","","","","","","","","","",""
"","ISI","","html-keyboard-response","271","429632","0.0-1.0-363.0","0","0","20867","","146","","","67","40","c","","","","","","","","","","","","","","",""
"","S2","","html-keyboard-response","272","429885","0.0-1.0-364.0","0","0","20867","","null","","","null","40","","NaN","","","","","","","","","","","","","",""
"","response","","html-keyboard-response","273","430019","0.0-1.0-365.0-0.0","0","0","20867","","131","","","75","40","","","1","40","training","adjacent","CD","3","4","O.jpg","L.jpg","1","1","1","",""
"","feedback","","html-keyboard-response","274","431021","0.0-1.0-366.0-0.0","0","0","20867","","null","","","null","40","","","","","","","","","","","","","","","",""
"","ITI","","html-keyboard-response","275","432023","0.0-1.0-369.0","0","0","20867","","148","","","67","40","","","","","","","","","","","","","","","c",""
"","S1","","html-keyboard-response","276","432275","0.0-1.0-371.0","0","0","20867","","null","","","null","41","","","","","","","","","","","","","","","",""
"","ISI","","html-keyboard-response","277","433278","0.0-1.0-372.0","0","0","20867","","102","","","75","41","k","","","","","","","","","","","","","","",""
"","S2","","html-keyboard-response","278","433379","0.0-1.0-373.0","0","0","20867","","100","","","75","41","","k","1","41","training","adjacent","CB","3","2","O.jpg","P.jpg","1","0","0","",""
"","feedback","","html-keyboard-response","279","434382","0.0-1.0-375.0-0.0","0","0","20867","","null","","","null","41","","","","","","","","","","","","","","","",""
"","time_out","","html-keyboard-response","280","436386","0.0-1.0-377.0-0.0","0","0","20867","","null","","","null","41","","","","","","","","","","","","","","","",""
"","ITI","","html-keyboard-response","281","437388","0.0-1.0-378.0","0","0","20867","","96","","","75","41","","","","","","","","","","","","","","","k",""
"","S1","","html-keyboard-response","282","437640","0.0-1.0-380.0","0","0","20867","","null","","","null","42","","","","","","","","","","","","","","","",""
"","ISI","","html-keyboard-response","283","438643","0.0-1.0-381.0","0","0","20867","","112","","","75","42","k","","","","","","","","","","","","","","",""
"","S2","","html-keyboard-response","284","438897","0.0-1.0-382.0","0","0","20867","","null","","","null","42","","NaN","","","","","","","","","","","","","",""
"","response","","html-keyboard-response","285","439450","0.0-1.0-383.0-0.0","0","0","20867","","552","","","75","42","","","1","42","training","adjacent","FE","6","5","R.jpg","M.jpg","1","0","0","",""
"","feedback","","html-keyboard-response","286","440454","0.0-1.0-384.0-0.0","0","0","20867","","null","","","null","42","","","","","","","","","","","","","","","",""
"","time_out","","html-keyboard-response","287","442457","0.0-1.0-386.0-0.0","0","0","20867","","null","","","null","42","","","","","","","","","","","","","","","",""
"","ITI","","html-keyboard-response","288","443460","0.0-1.0-387.0","0","0","20867","","55","","","75","42","","","","","","","","","","","","","","","k",""
"","S1","","html-keyboard-response","289","443713","0.0-1.0-389.0","0","0","20867","","null","","","null","43","","","","","","","","","","","","","","","",""
"","ISI","","html-keyboard-response","290","444715","0.0-1.0-390.0","0","0","20867","","57","","","67","43","c","","","","","","","","","","","","","","",""
"","S2","","html-keyboard-response","291","444754","0.0-1.0-391.0","0","0","20867","","37","","","75","43","","k","1","43","training","adjacent","CD","3","4","O.jpg","L.jpg","1","1","1","",""
"","feedback","","html-keyboard-response","292","445756","0.0-1.0-393.0-0.0","0","0","20867","","null","","","null","43","","","","","","","","","","","","","","","",""
"","ITI","","html-keyboard-response","293","446759","0.0-1.0-396.0","0","0","20867","","12","","","67","43","","","","","","","","","","","","","","","c",""
"","S1","","html-keyboard-response","294","447012","0.0-1.0-398.0","0","0","20867","","null","","","null","44","","","","","","","","","","","","","","","",""
"","ISI","","html-keyboard-response","295","448014","0.0-1.0-399.0","0","0","20867","","196","","","75","44","k","","","","","","","","","","","","","","",""
"","S2","","html-keyboard-response","296","448162","0.0-1.0-400.0","0","0","20867","","146","","","75","44","","k","1","44","training","adjacent","FE","6","5","R.jpg","M.jpg","1","0","0","",""
"","feedback","","html-keyboard-response","297","449167","0.0-1.0-402.0-0.0","0","0","20867","","null","","","null","44","","","","","","","","","","","","","","","",""
"","time_out","","html-keyboard-response","298","451169","0.0-1.0-404.0-0.0","0","0","20867","","null","","","null","44","","","","","","","","","","","","","","","",""
"","ITI","","html-keyboard-response","299","452171","0.0-1.0-405.0","0","0","20867","","15","","","75","44","","","","","","","","","","","","","","","k",""
"","S1","","html-keyboard-response","300","452427","0.0-1.0-407.0","0","0","20867","","null","","","null","45","","","","","","","","","","","","","","","",""
"","ISI","","html-keyboard-response","301","453430","0.0-1.0-408.0","0","0","20867","","46","","","67","45","c","","","","","","","","","","","","","","",""
"","S2","","html-keyboard-response","302","453683","0.0-1.0-409.0","0","0","20867","","null","","","null","45","","NaN","","","","","","","","","","","","","",""
"","response","","html-keyboard-response","303","453874","0.0-1.0-410.0-0.0","0","0","20867","","189","","","75","45","","","1","45","training","adjacent","ED","5","4","M.jpg","L.jpg","1","0","0","",""
"","feedback","","html-keyboard-response","304","454877","0.0-1.0-411.0-0.0","0","0","20867","","null","","","null","45","","","","","","","","","","","","","","","",""
"","time_out","","html-keyboard-response","305","456879","0.0-1.0-413.0-0.0","0","0","20867","","null","","","null","45","","","","","","","","","","","","","","","",""
"","ITI","","html-keyboard-response","306","457882","0.0-1.0-414.0","0","0","20867","","73","","","67","45","","","","","","","","","","","","","","","c",""
"","S1","","html-keyboard-response","307","458135","0.0-1.0-416.0","0","0","20867","","null","","","null","46","","","","","","","","","","","","","","","",""
"","ISI","","html-keyboard-response","308","459138","0.0-1.0-417.0","0","0","20867","","99","","","75","46","k","","","","","","","","","","","","","","",""
"","S2","","html-keyboard-response","309","459391","0.0-1.0-418.0","0","0","20867","","null","","","null","46","","NaN","","","","","","","","","","","","","",""
"","response","","html-keyboard-response","310","459483","0.0-1.0-419.0-0.0","0","0","20867","","89","","","75","46","","","1","46","training","adjacent","AB","1","2","N.jpg","P.jpg","1","1","1","",""
"","feedback","","html-keyboard-response","311","460486","0.0-1.0-420.0-0.0","0","0","20867","","null","","","null","46","","","","","","","","","","","","","","","",""
"","ITI","","html-keyboard-response","312","461488","0.0-1.0-423.0","0","0","20867","","163","","","67","46","","","","","","","","","","","","","","","c",""
"","S1","","html-keyboard-response","313","461741","0.0-1.0-425.0","0","0","20867","","null","","","null","47","","","","","","","","","","","","","","","",""
"","ISI","","html-keyboard-response","314","462744","0.0-1.0-426.0","0","0","20867","","20","","","75","47","k","","","","","","","","","","","","","","",""
"","S2","","html-keyboard-response","315","462996","0.0-1.0-427.0","0","0","20867","","null","","","null","47","","NaN","","","","","","","","","","","","","",""
"","response","","html-keyboard-response","316","463042","0.0-1.0-428.0-0.0","0","0","20867","","44","","","75","47","","","1","47","training","adjacent","AB","1","2","N.jpg","P.jpg","1","1","1","",""
"","feedback","","html-keyboard-response","317","464046","0.0-1.0-429.0-0.0","0","0","20867","","null","","","null","47","","","","","","","","","","","","","","","",""
"","ITI","","html-keyboard-response","318","465048","0.0-1.0-432.0","0","0","20867","","68","","","67","47","","","","","","","","","","","","","","","c",""
"","block_over","","html-keyboard-response","319","472091","0.0-1.0-433.0-0.0","0","0","20867","","7041","","","32","47","","","","","","","","","","","","","","","",""
"","S1","","html-keyboard-response","320","472344","0.0-1.0-434.0","0","0","20867","","null","","","null","48","","","","","","","","","","","","","","","",""
"","ISI","","html-keyboard-response","321","473347","0.0-1.0-435.0","0","0","20867","","169","","","67","48","c","","","","","","","","","","","","","","",""
"","S2","","html-keyboard-response","322","473362","0.0-1.0-436.0","0","0","20867","","13","","","75","48","","k","2","48","training","adjacent","CB","3","2","O.jpg","P.jpg","1","0","0","",""
"","feedback","","html-keyboard-response","323","474365","0.0-1.0-438.0-0.0","0","0","20867","","null","","","null","48","","","","","","","","","","","","","","","",""
"","time_out","","html-keyboard-response","324","476367","0.0-1.0-440.0-0.0","0","0","20867","","null","","","null","48","","","","","","","","","","","","","","","",""
"","ITI","","html-keyboard-response","325","477370","0.0-1.0-441.0","0","0","20867","","41","","","67","48","","","","","","","","","","","","","","","c",""
"","S1","","html-keyboard-response","326","477622","0.0-1.0-443.0","0","0","20867","","null","","","null","49","","","","","","","","","","","","","","","",""
"","ISI","","html-keyboard-response","327","478625","0.0-1.0-444.0","0","0","20867","","2","","","75","49","k","","","","","","","","","","","","","","",""
"","S2","","html-keyboard-response","328","478818","0.0-1.0-445.0","0","0","20867","","191","","","75","49","","k","2","49","training","adjacent","CD","3","4","O.jpg","L.jpg","1","1","1","",""
"","feedback","","html-keyboard-response","329","479821","0.0-1.0-447.0-0.0","0","0","20867","","null","","","null","49","","","","","","","","","","","","","","","",""
"","ITI","","html-keyboard-response","330","480823","0.0-1.0-450.0","0","0","20867","","171","","","67","49","","","","","","","","","","","","","","","c",""
"","S1","","html-keyboard-response","331","481077","0.0-1.0-452.0","0","0","20867","","null","","","null","50","","","","","","","","","","","","","","","",""
"","ISI","","html-keyboard-response","332","482079","0.0-1.0-453.0","0","0","20867","","100","","","75","50","k","","","","","","","","","","","","","","",""
"","S2","","html-keyboard-response","333","482234","0.0-1.0-454.0","0","0","20867","","153","","","75","50","","k","2","50","training","adjacent","BA","2","1","P.jpg","N.jpg","1","0","0","",""
"","feedback","","html-keyboard-response","334","483237","0.0-1.0-456.0-0.0","0","0","20867","","null","","","null","50","","","","","","","","","","","","","","","",""
"","time_out","","html-keyboard-response","335","485239","0.0-1.0-458.0-0.0","0","0","20867","","null","","","null","50","","","","","","","","","","","","","","","",""
"","ITI","","html-keyboard-response","336","486241","0.0-1.0-459.0","0","0","20867","","9","","","67","50","","","","","","","","","","","","","","","c",""
"","S1","","html-keyboard-response","337","486494","0.0-1.0-461.0","0","0","20867","","null","","","null","51","","","","","","","","","","","","","","","",""
"","ISI","","html-keyboard-response","338","487496","0.0-1.0-462.0","0","0","20867","","84","","","75","51","k","","","","","","","","","","","","","","",""
"","S2","","html-keyboard-response","339","487749","0.0-1.0-463.0","0","0","20867","","null","","","null","51","","NaN","","","","","","","","","","","","","",""
"","response","","html-keyboard-response","340","487875","0.0-1.0-464.0-0.0","0","0","20867","","124","","","75","51","","","2","51","training","adjacent","AB","1","2","N.jpg","P.jpg","1","1","1","",""
"","feedback","","html-keyboard-response","341","488879","0.0-1.0-465.0-0.0","0","0","20867","","null","","","null","51","","","","","","","","","","","","","","","",""
"","ITI","","html-keyboard-response","342","489882","0.0-1.0-468.0","0","0","20867","","178","","","75","51","","","","","","","","","","","","","","","k",""
"","S1","","html-keyboard-response","343","490135","0.0-1.0-470.0","0","0","20867","","null","","","null","52","","","","","","","","","","","","","","","",""
"","ISI","","html-keyboard-response","344","491137","0.0-1.0-471.0","0","0","20867","","82","","","75","52","k","","","","","","","","","","","","","","",""
"","S2","","html-keyboard-response","345","491140","0.0-1.0-472.0","0","0","20867","","1","","","75","52","","k","2","52","training","adjacent","FE","6","5","R.jpg","M.jpg","1","0","0","",""
"","feedback","","html-keyboard-response","346","492143","0.0-1.0-474.0-0.0","0","0","20867","","null","","","null","52","","","","","","","","","","","","","","","",""
"","time_out","","html-keyboard-response","347","494145","0.0-1.0-476.0-0.0","0","0","20867","","null","","","null","52","","","","","","","","","","","","","","","",""
"","ITI","","html-keyboard-response","348","495148","0.0-1.0-477.0","0","0","20867","","169","","","75","52","","","","","","","","","","","","","","","k",""
"","S1","","html-keyboard-response","349","495402","0.0-1.0-479.0","0","0","20867","","null","","","null","53","","","","","","","","","","","","","","","",""
"","ISI","","html-keyboard-response","350","496405","0.0-1.0-480.0","0","0","20867","","87","","","67","53","c","","","","","","","","","","","","","","",""
"","S2","","html-keyboard-response","351","496659","0.0-1.0-481.0","0","0","20867","","null","","","null","53","","NaN","","","","","","","","","","","","","",""
"","response","","html-keyboard-response","352","496774","0.0-1.0-482.0-0.0","0","0","20867","","111","","","75","53","","","2","53","training","adjacent","DE","4","5","L.jpg","M.jpg","1","1","1","",""
"","feedback","","html-keyboard-response","353","497778","0.0-1.0-483.0-0.0","0","0","20867","","null","","","null","53","","","","","","","","","","","","","","","",""
"","ITI","","html-keyboard-response","354","498782","0.0-1.0-486.0","0","0","20867","","135","","","67","53","","","","","","","","","","","","","","","c",""
"","S1","","html-keyboard-response","355","499034","0.0-1.0-488.0","0","0","20867","","null","","","null","54","","","","","","","","","","","","","","","",""
"","ISI","","html-keyboard-response","356","500166","0.0-1.0-489.0","0","0","20867","","null","","","null","54","NaN","","","","","","","","","","","","","","",""
"","S2","","html-keyboard-response","357","501166","0.0-1.0-490.0","0","0","20867","","null","","","null","54","","NaN","","","","","","","","","","","","","",""
"","response","","html-keyboard-response","358","503165","0.0-1.0-491.0-0.0","0","0","20867","","null","","","null","54","","","2","54","training","adjacent","FG","6","7","R.jpg","Q.jpg","NaN","1","0","",""
"","too_slow_prompt","","html-keyboard-response","359","504167","0.0-1.0-493.0-0.0","1","0","20867","","null","","","null","","","","","","","","","","","","","","","","",""
"","time_out","","html-keyboard-response","360","506169","0.0-1.0-494.0-0.0","0","0","20867","","null","","","null","54","","","","","","","","","","","","","","","",""
"","ITI","","html-keyboard-response","361","507172","0.0-1.0-495.0","0","0","20867","","56","","","75","54","","","","","","","","","","","","","","","k",""
"","S1","","html-keyboard-response","362","507424","0.0-1.0-497.0","0","0","20867","","null","","","null","55","","","","","","","","","","","","","","","",""
"","ISI","","html-keyboard-response","363","508427","0.0-1.0-498.0","0","0","20867","","129","","","68","55","d","","","","","","","","","","","","","","",""
"","S2","","html-keyboard-response","364","508428","0.0-1.0-499.0","0","0","20867","","0","","","75","55","","k","2","55","training","adjacent","DE","4","5","L.jpg","M.jpg","1","1","1","",""
"","feedback","","html-keyboard-response","365","509431","0.0-1.0-501.0-0.0","0","0","20867","","null","","","null","55","","","","","","","","","","","","","","","",""
"","ITI","","html-keyboard-response","366","510434","0.0-1.0-504.0","0","0","20867","","43","","","75","55","","","","","","","","","","","","","","","k",""
"","S1","","html-keyboard-response","367","510688","0.0-1.0-506.0","0","0","20867","","null","","","null","56","","","","","","","","","","","","","","","",""
"","ISI","","html-keyboard-response","368","511690","0.0-1.0-507.0","0","0","20867","","162","","","75","56","k","","","","","","","","","","","","","","",""
"","S2","","html-keyboard-response","369","511915","0.0-1.0-508.0","0","0","20867","","223","","","75","56","","k","2","56","training","adjacent","ED","5","4","M.jpg","L.jpg","1","0","0","",""
"","feedback","","html-keyboard-response","370","512917","0.0-1.0-510.0-0.0","0","0","20867","","null","","","null","56","","","","","","","","","","","","","","","",""
"","time_out","","html-keyboard-response","371","514919","0.0-1.0-512.0-0.0","0","0","20867","","null","","","null","56","","","","","","","","","","","","","","","",""
"","ITI","","html-keyboard-response","372","515921","0.0-1.0-513.0","0","0","20867","","242","","","68","56","","","","","","","","","","","","","","","d",""
"","S1","","html-keyboard-response","373","516175","0.0-1.0-515.0","0","0","20867","","null","","","null","57","","","","","","","","","","","","","","","",""
"","ISI","","html-keyboard-response","374","517177","0.0-1.0-516.0","0","0","20867","","35","","","68","57","d","","","","","","","","","","","","","","",""
"","S2","","html-keyboard-response","375","517390","0.0-1.0-517.0","0","0","20867","","208","","","68","57","","d","2","57","training","adjacent","CB","3","2","O.jpg","P.jpg","0","0","1","",""
"","feedback","","html-keyboard-response","376","518394","0.0-1.0-519.0-0.0","0","0","20867","","null","","","null","57","","","","","","","","","","","","","","","",""
"","ITI","","html-keyboard-response","377","519396","0.0-1.0-522.0","0","0","20867","","200","","","68","57","","","","","","","","","","","","","","","d",""
"","S1","","html-keyboard-response","378","519649","0.0-1.0-524.0","0","0","20867","","null","","","null","58","","","","","","","","","","","","","","","",""
"","ISI","","html-keyboard-response","379","520652","0.0-1.0-525.0","0","0","20867","","48","","","68","58","d","","","","","","","","","","","","","","",""
"","S2","","html-keyboard-response","380","520747","0.0-1.0-526.0","0","0","20867","","93","","","68","58","","d","2","58","training","adjacent","ED","5","4","M.jpg","L.jpg","0","0","1","",""
"","feedback","","html-keyboard-response","381","521749","0.0-1.0-528.0-0.0","0","0","20867","","null","","","null","58","","","","","","","","","","","","","","","",""
"","ITI","","html-keyboard-response","382","522753","0.0-1.0-531.0","0","0","20867","","172","","","75","58","","","","","","","","","","","","","","","k",""
"","S1","","html-keyboard-response","383","523006","0.0-1.0-533.0","0","0","20867","","null","","","null","59","","","","","","","","","","","","","","","",""
"","ISI","","html-keyboard-response","384","524008","0.0-1.0-534.0","0","0","20867","","204","","","68","59","d","","","","","","","","","","","","","","",""
"","S2","","html-keyboard-response","385","524131","0.0-1.0-535.0","0","0","20867","","121","","","68","59","","d","2","59","training","adjacent","AB","1","2","N.jpg","P.jpg","0","1","0","",""
"","feedback","","html-keyboard-response","386","525134","0.0-1.0-537.0-0.0","0","0","20867","","null","","","null","59","","","","","","","","","","","","","","","",""
"","time_out","","html-keyboard-response","387","527137","0.0-1.0-539.0-0.0","0","0","20867","","null","","","null","59","","","","","","","","","","","","","","","",""
"","ITI","","html-keyboard-response","388","528139","0.0-1.0-540.0","0","0","20867","","465","","","68","59","","","","","","","","","","","","","","","d",""
"","S1","","html-keyboard-response","389","528393","0.0-1.0-542.0","0","0","20867","","null","","","null","60","","","","","","","","","","","","","","","",""
"","ISI","","html-keyboard-response","390","529396","0.0-1.0-543.0","0","0","20867","","561","","","68","60","d","","","","","","","","","","","","","","",""
"","S2","","html-keyboard-response","391","529523","0.0-1.0-544.0","0","0","20867","","125","","","75","60","","k","2","60","training","adjacent","CB","3","2","O.jpg","P.jpg","1","0","0","",""
"","feedback","","html-keyboard-response","392","530525","0.0-1.0-546.0-0.0","0","0","20867","","null","","","null","60","","","","","","","","","","","","","","","",""
"","time_out","","html-keyboard-response","393","532529","0.0-1.0-548.0-0.0","0","0","20867","","null","","","null","60","","","","","","","","","","","","","","","",""
"","ITI","","html-keyboard-response","394","533531","0.0-1.0-549.0","0","0","20867","","17","","","75","60","","","","","","","","","","","","","","","k",""
"","S1","","html-keyboard-response","395","533783","0.0-1.0-551.0","0","0","20867","","null","","","null","61","","","","","","","","","","","","","","","",""
"","ISI","","html-keyboard-response","396","534785","0.0-1.0-552.0","0","0","20867","","114","","","68","61","d","","","","","","","","","","","","","","",""
"","S2","","html-keyboard-response","397","534915","0.0-1.0-553.0","0","0","20867","","128","","","68","61","","d","2","61","training","adjacent","GF","7","6","Q.jpg","R.jpg","0","0","1","",""
"","feedback","","html-keyboard-response","398","535918","0.0-1.0-555.0-0.0","0","0","20867","","null","","","null","61","","","","","","","","","","","","","","","",""
"","ITI","","html-keyboard-response","399","536920","0.0-1.0-558.0","0","0","20867","","147","","","68","61","","","","","","","","","","","","","","","d",""
"","S1","","html-keyboard-response","400","537173","0.0-1.0-560.0","0","0","20867","","null","","","null","62","","","","","","","","","","","","","","","",""
"","ISI","","html-keyboard-response","401","538176","0.0-1.0-561.0","0","0","20867","","309","","","75","62","k","","","","","","","","","","","","","","",""
"","S2","","html-keyboard-response","402","538429","0.0-1.0-562.0","0","0","20867","","null","","","null","62","","NaN","","","","","","","","","","","","","",""
"","response","","html-keyboard-response","403","538523","0.0-1.0-563.0-0.0","0","0","20867","","93","","","68","62","","","2","62","training","adjacent","AB","1","2","N.jpg","P.jpg","0","1","0","",""
"","feedback","","html-keyboard-response","404","539525","0.0-1.0-564.0-0.0","0","0","20867","","null","","","null","62","","","","","","","","","","","","","","","",""
"","time_out","","html-keyboard-response","405","541529","0.0-1.0-566.0-0.0","0","0","20867","","null","","","null","62","","","","","","","","","","","","","","","",""
"","ITI","","html-keyboard-response","406","542531","0.0-1.0-567.0","0","0","20867","","169","","","68","62","","","","","","","","","","","","","","","d",""
"","S1","","html-keyboard-response","407","542783","0.0-1.0-569.0","0","0","20867","","null","","","null","63","","","","","","","","","","","","","","","",""
"","ISI","","html-keyboard-response","408","543786","0.0-1.0-570.0","0","0","20867","","98","","","75","63","k","","","","","","","","","","","","","","",""
"","S2","","html-keyboard-response","409","544038","0.0-1.0-571.0","0","0","20867","","null","","","null","63","","NaN","","","","","","","","","","","","","",""
"","response","","html-keyboard-response","410","544243","0.0-1.0-572.0-0.0","0","0","20867","","203","","","75","63","","","2","63","training","adjacent","DC","4","3","L.jpg","O.jpg","1","0","0","",""
"","feedback","","html-keyboard-response","411","545246","0.0-1.0-573.0-0.0","0","0","20867","","null","","","null","63","","","","","","","","","","","","","","","",""
"","time_out","","html-keyboard-response","412","547248","0.0-1.0-575.0-0.0","0","0","20867","","null","","","null","63","","","","","","","","","","","","","","","",""
"","ITI","","html-keyboard-response","413","548251","0.0-1.0-576.0","0","0","20867","","513","","","68","63","","","","","","","","","","","","","","","d",""
"","S1","","html-keyboard-response","414","548504","0.0-1.0-578.0","0","0","20867","","null","","","null","64","","","","","","","","","","","","","","","",""
"","ISI","","html-keyboard-response","415","549505","0.0-1.0-579.0","0","0","20867","","242","","","75","64","k","","","","","","","","","","","","","","",""
"","S2","","html-keyboard-response","416","549515","0.0-1.0-580.0","0","0","20867","","7","","","68","64","","d","2","64","training","adjacent","BA","2","1","P.jpg","N.jpg","0","0","1","",""
"","feedback","","html-keyboard-response","417","550519","0.0-1.0-582.0-0.0","0","0","20867","","null","","","null","64","","","","","","","","","","","","","","","",""
"","ITI","","html-keyboard-response","418","551521","0.0-1.0-585.0","0","0","20867","","82","","","75","64","","","","","","","","","","","","","","","k",""
"","S1","","html-keyboard-response","419","551773","0.0-1.0-587.0","0","0","20867","","null","","","null","65","","","","","","","","","","","","","","","",""
"","ISI","","html-keyboard-response","420","552789","0.0-1.0-588.0","0","0","20867","","123","","","68","65","d","","","","","","","","","","","","","","",""
"","S2","","html-keyboard-response","421","553042","0.0-1.0-589.0","0","0","20867","","null","","","null","65","","NaN","","","","","","","","","","","","","",""
"","response","","html-keyboard-response","422","553131","0.0-1.0-590.0-0.0","0","0","20867","","87","","","75","65","","","2","65","training","adjacent","FG","6","7","R.jpg","Q.jpg","1","1","1","",""
"","feedback","","html-keyboard-response","423","554134","0.0-1.0-591.0-0.0","0","0","20867","","null","","","null","65","","","","","","","","","","","","","","","",""
"","ITI","","html-keyboard-response","424","555137","0.0-1.0-594.0","0","0","20867","","284","","","68","65","","","","","","","","","","","","","","","d",""
"","S1","","html-keyboard-response","425","555391","0.0-1.0-596.0","0","0","20867","","null","","","null","66","","","","","","","","","","","","","","","",""
"","ISI","","html-keyboard-response","426","556394","0.0-1.0-597.0","0","0","20867","","18","","","75","66","k","","","","","","","","","","","","","","",""
"","S2","","html-keyboard-response","427","556578","0.0-1.0-598.0","0","0","20867","","182","","","75","66","","k","2","66","training","adjacent","BC","2","3","P.jpg","O.jpg","1","1","1","",""
"","feedback","","html-keyboard-response","428","557581","0.0-1.0-600.0-0.0","0","0","20867","","null","","","null","66","","","","","","","","","","","","","","","",""
"","ITI","","html-keyboard-response","429","558583","0.0-1.0-603.0","0","0","20867","","965","","","75","66","","","","","","","","","","","","","","","k",""
"","S1","","html-keyboard-response","430","558837","0.0-1.0-605.0","0","0","20867","","null","","","null","67","","","","","","","","","","","","","","","",""
"","ISI","","html-keyboard-response","431","559839","0.0-1.0-606.0","0","0","20867","","4","","","75","67","k","","","","","","","","","","","","","","",""
"","S2","","html-keyboard-response","432","559890","0.0-1.0-607.0","0","0","20867","","50","","","75","67","","k","2","67","training","adjacent","FG","6","7","R.jpg","Q.jpg","1","1","1","",""
"","feedback","","html-keyboard-response","433","560892","0.0-1.0-609.0-0.0","0","0","20867","","null","","","null","67","","","","","","","","","","","","","","","",""
"","ITI","","html-keyboard-response","434","561896","0.0-1.0-612.0","0","0","20867","","28","","","75","67","","","","","","","","","","","","","","","k",""
"","S1","","html-keyboard-response","435","562148","0.0-1.0-614.0","0","0","20867","","null","","","null","68","","","","","","","","","","","","","","","",""
"","ISI","","html-keyboard-response","436","563151","0.0-1.0-615.0","0","0","20867","","117","","","75","68","k","","","","","","","","","","","","","","",""
"","S2","","html-keyboard-response","437","563210","0.0-1.0-616.0","0","0","20867","","57","","","75","68","","k","2","68","training","adjacent","BC","2","3","P.jpg","O.jpg","1","1","1","",""
"","feedback","","html-keyboard-response","438","564214","0.0-1.0-618.0-0.0","0","0","20867","","null","","","null","68","","","","","","","","","","","","","","","",""
"","ITI","","html-keyboard-response","439","565216","0.0-1.0-621.0","0","0","20867","","219","","","75","68","","","","","","","","","","","","","","","k",""
"","S1","","html-keyboard-response","440","565469","0.0-1.0-623.0","0","0","20867","","null","","","null","69","","","","","","","","","","","","","","","",""
"","ISI","","html-keyboard-response","441","566471","0.0-1.0-624.0","0","0","20867","","204","","","75","69","k","","","","","","","","","","","","","","",""
"","S2","","html-keyboard-response","442","566651","0.0-1.0-625.0","0","0","20867","","177","","","75","69","","k","2","69","training","adjacent","FE","6","5","R.jpg","M.jpg","1","0","0","",""
"","feedback","","html-keyboard-response","443","567654","0.0-1.0-627.0-0.0","0","0","20867","","null","","","null","69","","","","","","","","","","","","","","","",""
"","time_out","","html-keyboard-response","444","569658","0.0-1.0-629.0-0.0","0","0","20867","","null","","","null","69","","","","","","","","","","","","","","","",""
"","ITI","","html-keyboard-response","445","570661","0.0-1.0-630.0","0","0","20867","","87","","","68","69","","","","","","","","","","","","","","","d",""
"","S1","","html-keyboard-response","446","570913","0.0-1.0-632.0","0","0","20867","","null","","","null","70","","","","","","","","","","","","","","","",""
"","ISI","","html-keyboard-response","447","571916","0.0-1.0-633.0","0","0","20867","","39","","","68","70","d","","","","","","","","","","","","","","",""
"","S2","","html-keyboard-response","448","571987","0.0-1.0-634.0","0","0","20867","","69","","","68","70","","d","2","70","training","adjacent","AB","1","2","N.jpg","P.jpg","0","1","0","",""
"","feedback","","html-keyboard-response","449","572994","0.0-1.0-636.0-0.0","0","0","20867","","null","","","null","70","","","","","","","","","","","","","","","",""
"","time_out","","html-keyboard-response","450","574998","0.0-1.0-638.0-0.0","0","0","20867","","null","","","null","70","","","","","","","","","","","","","","","",""
"","ITI","","html-keyboard-response","451","576000","0.0-1.0-639.0","0","0","20867","","3","","","68","70","","","","","","","","","","","","","","","d",""
"","S1","","html-keyboard-response","452","576252","0.0-1.0-641.0","0","0","20867","","null","","","null","71","","","","","","","","","","","","","","","",""
"","ISI","","html-keyboard-response","453","577254","0.0-1.0-642.0","0","0","20867","","13","","","68","71","d","","","","","","","","","","","","","","",""
"","S2","","html-keyboard-response","454","577347","0.0-1.0-643.0","0","0","20867","","90","","","68","71","","d","2","71","training","adjacent","GF","7","6","Q.jpg","R.jpg","0","0","1","",""
"","feedback","","html-keyboard-response","455","578350","0.0-1.0-645.0-0.0","0","0","20867","","null","","","null","71","","","","","","","","","","","","","","","",""
"","ITI","","html-keyboard-response","456","579353","0.0-1.0-648.0","0","0","20867","","10","","","68","71","","","","","","","","","","","","","","","d",""
"","S1","","html-keyboard-response","457","579606","0.0-1.0-650.0","0","0","20867","","null","","","null","72","","","","","","","","","","","","","","","",""
"","ISI","","html-keyboard-response","458","580608","0.0-1.0-651.0","0","0","20867","","619","","","68","72","d","","","","","","","","","","","","","","",""
"","S2","","html-keyboard-response","459","580862","0.0-1.0-652.0","0","0","20867","","null","","","null","72","","NaN","","","","","","","","","","","","","",""
"","response","","html-keyboard-response","460","580963","0.0-1.0-653.0-0.0","0","0","20867","","98","","","68","72","","","2","72","training","adjacent","EF","5","6","M.jpg","R.jpg","0","1","0","",""
"","feedback","","html-keyboard-response","461","581966","0.0-1.0-654.0-0.0","0","0","20867","","null","","","null","72","","","","","","","","","","","","","","","",""
"","time_out","","html-keyboard-response","462","583968","0.0-1.0-656.0-0.0","0","0","20867","","null","","","null","72","","","","","","","","","","","","","","","",""
"","ITI","","html-keyboard-response","463","584971","0.0-1.0-657.0","0","0","20867","","24","","","75","72","","","","","","","","","","","","","","","k",""
"","S1","","html-keyboard-response","464","585224","0.0-1.0-659.0","0","0","20867","","null","","","null","73","","","","","","","","","","","","","","","",""
"","ISI","","html-keyboard-response","465","586227","0.0-1.0-660.0","0","0","20867","","1","","","75","73","k","","","","","","","","","","","","","","",""
"","S2","","html-keyboard-response","466","586481","0.0-1.0-661.0","0","0","20867","","null","","","null","73","","NaN","","","","","","","","","","","","","",""
"","response","","html-keyboard-response","467","586844","0.0-1.0-662.0-0.0","0","0","20867","","361","","","75","73","","","2","73","training","adjacent","GF","7","6","Q.jpg","R.jpg","1","0","0","",""
"","feedback","","html-keyboard-response","468","587847","0.0-1.0-663.0-0.0","0","0","20867","","null","","","null","73","","","","","","","","","","","","","","","",""
"","time_out","","html-keyboard-response","469","589849","0.0-1.0-665.0-0.0","0","0","20867","","null","","","null","73","","","","","","","","","","","","","","","",""
"","ITI","","html-keyboard-response","470","590852","0.0-1.0-666.0","0","0","20867","","null","","","null","73","","","","","","","","","","","","","","","NaN",""
"","S1","","html-keyboard-response","471","591105","0.0-1.0-668.0","0","0","20867","","null","","","null","74","","","","","","","","","","","","","","","",""
"","ISI","","html-keyboard-response","472","592108","0.0-1.0-669.0","0","0","20867","","79","","","75","74","k","","","","","","","","","","","","","","",""
"","S2","","html-keyboard-response","473","592361","0.0-1.0-670.0","0","0","20867","","null","","","null","74","","NaN","","","","","","","","","","","","","",""
"","response","","html-keyboard-response","474","592482","0.0-1.0-671.0-0.0","0","0","20867","","120","","","75","74","","","2","74","training","adjacent","CD","3","4","O.jpg","L.jpg","1","1","1","",""
"","feedback","","html-keyboard-response","475","593485","0.0-1.0-672.0-0.0","0","0","20867","","null","","","null","74","","","","","","","","","","","","","","","",""
"","ITI","","html-keyboard-response","476","594488","0.0-1.0-675.0","0","0","20867","","51","","","75","74","","","","","","","","","","","","","","","k",""
"","S1","","html-keyboard-response","477","594741","0.0-1.0-677.0","0","0","20867","","null","","","null","75","","","","","","","","","","","","","","","",""
"","ISI","","html-keyboard-response","478","595744","0.0-1.0-678.0","0","0","20867","","19","","","75","75","k","","","","","","","","","","","","","","",""
"","S2","","html-keyboard-response","479","595997","0.0-1.0-679.0","0","0","20867","","null","","","null","75","","NaN","","","","","","","","","","","","","",""
"","response","","html-keyboard-response","480","596018","0.0-1.0-680.0-0.0","0","0","20867","","20","","","75","75","","","2","75","training","adjacent","EF","5","6","M.jpg","R.jpg","1","1","1","",""
"","feedback","","html-keyboard-response","481","597020","0.0-1.0-681.0-0.0","0","0","20867","","null","","","null","75","","","","","","","","","","","","","","","",""
"","ITI","","html-keyboard-response","482","598023","0.0-1.0-684.0","0","0","20867","","388","","","75","75","","","","","","","","","","","","","","","k",""
"","S1","","html-keyboard-response","483","598275","0.0-1.0-686.0","0","0","20867","","null","","","null","76","","","","","","","","","","","","","","","",""
"","ISI","","html-keyboard-response","484","599278","0.0-1.0-687.0","0","0","20867","","229","","","75","76","k","","","","","","","","","","","","","","",""
"","S2","","html-keyboard-response","485","599482","0.0-1.0-688.0","0","0","20867","","202","","","75","76","","k","2","76","training","adjacent","DE","4","5","L.jpg","M.jpg","1","1","1","",""
"","feedback","","html-keyboard-response","486","600485","0.0-1.0-690.0-0.0","0","0","20867","","null","","","null","76","","","","","","","","","","","","","","","",""
"","ITI","","html-keyboard-response","487","601488","0.0-1.0-693.0","0","0","20867","","131","","","75","76","","","","","","","","","","","","","","","k",""
"","S1","","html-keyboard-response","488","601742","0.0-1.0-695.0","0","0","20867","","null","","","null","77","","","","","","","","","","","","","","","",""
"","ISI","","html-keyboard-response","489","602745","0.0-1.0-696.0","0","0","20867","","82","","","75","77","k","","","","","","","","","","","","","","",""
"","S2","","html-keyboard-response","490","602747","0.0-1.0-697.0","0","0","20867","","0","","","75","77","","k","2","77","training","adjacent","DE","4","5","L.jpg","M.jpg","1","1","1","",""
"","feedback","","html-keyboard-response","491","603761","0.0-1.0-699.0-0.0","0","0","20867","","null","","","null","77","","","","","","","","","","","","","","","",""
"","ITI","","html-keyboard-response","492","604763","0.0-1.0-702.0","0","0","20867","","56","","","75","77","","","","","","","","","","","","","","","k",""
"","S1","","html-keyboard-response","493","605016","0.0-1.0-704.0","0","0","20867","","null","","","null","78","","","","","","","","","","","","","","","",""
"","ISI","","html-keyboard-response","494","606018","0.0-1.0-705.0","0","0","20867","","369","","","75","78","k","","","","","","","","","","","","","","",""
"","S2","","html-keyboard-response","495","606250","0.0-1.0-706.0","0","0","20867","","230","","","75","78","","k","2","78","training","adjacent","DC","4","3","L.jpg","O.jpg","1","0","0","",""
"","feedback","","html-keyboard-response","496","607254","0.0-1.0-708.0-0.0","0","0","20867","","null","","","null","78","","","","","","","","","","","","","","","",""
"","time_out","","html-keyboard-response","497","609256","0.0-1.0-710.0-0.0","0","0","20867","","null","","","null","78","","","","","","","","","","","","","","","",""
"","ITI","","html-keyboard-response","498","610257","0.0-1.0-711.0","0","0","20867","","177","","","68","78","","","","","","","","","","","","","","","d",""
"","S1","","html-keyboard-response","499","610510","0.0-1.0-713.0","0","0","20867","","null","","","null","79","","","","","","","","","","","","","","","",""
"","ISI","","html-keyboard-response","500","611512","0.0-1.0-714.0","0","0","20867","","187","","","68","79","d","","","","","","","","","","","","","","",""
"","S2","","html-keyboard-response","501","611775","0.0-1.0-715.0","0","0","20867","","null","","","null","79","","NaN","","","","","","","","","","","","","",""
"","response","","html-keyboard-response","502","611778","0.0-1.0-716.0-0.0","0","0","20867","","2","","","68","79","","","2","79","training","adjacent","BA","2","1","P.jpg","N.jpg","0","0","1","",""
"","feedback","","html-keyboard-response","503","612781","0.0-1.0-717.0-0.0","0","0","20867","","null","","","null","79","","","","","","","","","","","","","","","",""
"","ITI","","html-keyboard-response","504","613785","0.0-1.0-720.0","0","0","20867","","419","","","68","79","","","","","","","","","","","","","","","d",""
"","S1","","html-keyboard-response","505","614038","0.0-1.0-722.0","0","0","20867","","null","","","null","80","","","","","","","","","","","","","","","",""
"","ISI","","html-keyboard-response","506","615040","0.0-1.0-723.0","0","0","20867","","27","","","68","80","d","","","","","","","","","","","","","","",""
"","S2","","html-keyboard-response","507","615186","0.0-1.0-724.0","0","0","20867","","145","","","68","80","","d","2","80","training","adjacent","CB","3","2","O.jpg","P.jpg","0","0","1","",""
"","feedback","","html-keyboard-response","508","616190","0.0-1.0-726.0-0.0","0","0","20867","","null","","","null","80","","","","","","","","","","","","","","","",""
"","ITI","","html-keyboard-response","509","617191","0.0-1.0-729.0","0","0","20867","","323","","","68","80","","","","","","","","","","","","","","","d",""
"","S1","","html-keyboard-response","510","617444","0.0-1.0-731.0","0","0","20867","","null","","","null","81","","","","","","","","","","","","","","","",""
"","ISI","","html-keyboard-response","511","618448","0.0-1.0-732.0","0","0","20867","","28","","","68","81","d","","","","","","","","","","","","","","",""
"","S2","","html-keyboard-response","512","618709","0.0-1.0-733.0","0","0","20867","","null","","","null","81","","NaN","","","","","","","","","","","","","",""
"","response","","html-keyboard-response","513","618834","0.0-1.0-734.0-0.0","0","0","20867","","123","","","68","81","","","2","81","training","adjacent","BA","2","1","P.jpg","N.jpg","0","0","1","",""
"","feedback","","html-keyboard-response","514","619838","0.0-1.0-735.0-0.0","0","0","20867","","null","","","null","81","","","","","","","","","","","","","","","",""
"","ITI","","html-keyboard-response","515","620841","0.0-1.0-738.0","0","0","20867","","506","","","68","81","","","","","","","","","","","","","","","d",""
"","S1","","html-keyboard-response","516","621094","0.0-1.0-740.0","0","0","20867","","null","","","null","82","","","","","","","","","","","","","","","",""
"","ISI","","html-keyboard-response","517","622097","0.0-1.0-741.0","0","0","20867","","250","","","68","82","d","","","","","","","","","","","","","","",""
"","S2","","html-keyboard-response","518","622314","0.0-1.0-742.0","0","0","20867","","215","","","68","82","","d","2","82","training","adjacent","FE","6","5","R.jpg","M.jpg","0","0","1","",""
"","feedback","","html-keyboard-response","519","623325","0.0-1.0-744.0-0.0","0","0","20867","","null","","","null","82","","","","","","","","","","","","","","","",""
"","ITI","","html-keyboard-response","520","624327","0.0-1.0-747.0","0","0","20867","","355","","","68","82","","","","","","","","","","","","","","","d",""
"","S1","","html-keyboard-response","521","624579","0.0-1.0-749.0","0","0","20867","","null","","","null","83","","","","","","","","","","","","","","","",""
"","ISI","","html-keyboard-response","522","625582","0.0-1.0-750.0","0","0","20867","","30","","","68","83","d","","","","","","","","","","","","","","",""
"","S2","","html-keyboard-response","523","625610","0.0-1.0-751.0","0","0","20867","","26","","","68","83","","d","2","83","training","adjacent","BC","2","3","P.jpg","O.jpg","0","1","0","",""
"","feedback","","html-keyboard-response","524","626614","0.0-1.0-753.0-0.0","0","0","20867","","null","","","null","83","","","","","","","","","","","","","","","",""
"","time_out","","html-keyboard-response","525","628621","0.0-1.0-755.0-0.0","0","0","20867","","null","","","null","83","","","","","","","","","","","","","","","",""
"","ITI","","html-keyboard-response","526","629623","0.0-1.0-756.0","0","0","20867","","null","","","null","83","","","","","","","","","","","","","","","NaN",""
"","S1","","html-keyboard-response","527","629875","0.0-1.0-758.0","0","0","20867","","null","","","null","84","","","","","","","","","","","","","","","",""
"","ISI","","html-keyboard-response","528","630879","0.0-1.0-759.0","0","0","20867","","621","","","68","84","d","","","","","","","","","","","","","","",""
"","S2","","html-keyboard-response","529","631132","0.0-1.0-760.0","0","0","20867","","null","","","null","84","","NaN","","","","","","","","","","","","","",""
"","response","","html-keyboard-response","530","631146","0.0-1.0-761.0-0.0","0","0","20867","","12","","","68","84","","","2","84","training","adjacent","FG","6","7","R.jpg","Q.jpg","0","1","0","",""
"","feedback","","html-keyboard-response","531","632150","0.0-1.0-762.0-0.0","0","0","20867","","null","","","null","84","","","","","","","","","","","","","","","",""
"","time_out","","html-keyboard-response","532","634152","0.0-1.0-764.0-0.0","0","0","20867","","null","","","null","84","","","","","","","","","","","","","","","",""
"","ITI","","html-keyboard-response","533","635154","0.0-1.0-765.0","0","0","20867","","177","","","75","84","","","","","","","","","","","","","","","k",""
"","S1","","html-keyboard-response","534","635407","0.0-1.0-767.0","0","0","20867","","null","","","null","85","","","","","","","","","","","","","","","",""
"","ISI","","html-keyboard-response","535","636411","0.0-1.0-768.0","0","0","20867","","81","","","75","85","k","","","","","","","","","","","","","","",""
"","S2","","html-keyboard-response","536","636642","0.0-1.0-769.0","0","0","20867","","230","","","75","85","","k","2","85","training","adjacent","DC","4","3","L.jpg","O.jpg","1","0","0","",""
"","feedback","","html-keyboard-response","537","637646","0.0-1.0-771.0-0.0","0","0","20867","","null","","","null","85","","","","","","","","","","","","","","","",""
"","time_out","","html-keyboard-response","538","639648","0.0-1.0-773.0-0.0","0","0","20867","","null","","","null","85","","","","","","","","","","","","","","","",""
"","ITI","","html-keyboard-response","539","640651","0.0-1.0-774.0","0","0","20867","","null","","","null","85","","","","","","","","","","","","","","","NaN",""
"","S1","","html-keyboard-response","540","640904","0.0-1.0-776.0","0","0","20867","","null","","","null","86","","","","","","","","","","","","","","","",""
"","ISI","","html-keyboard-response","541","641906","0.0-1.0-777.0","0","0","20867","","null","","","null","86","NaN","","","","","","","","","","","","","","",""
"","S2","","html-keyboard-response","542","642159","0.0-1.0-778.0","0","0","20867","","null","","","null","86","","NaN","","","","","","","","","","","","","",""
"","response","","html-keyboard-response","543","642362","0.0-1.0-779.0-0.0","0","0","20867","","201","","","68","86","","","2","86","training","adjacent","CD","3","4","O.jpg","L.jpg","0","1","0","",""
"","feedback","","html-keyboard-response","544","643365","0.0-1.0-780.0-0.0","0","0","20867","","null","","","null","86","","","","","","","","","","","","","","","",""
"","time_out","","html-keyboard-response","545","645369","0.0-1.0-782.0-0.0","0","0","20867","","null","","","null","86","","","","","","","","","","","","","","","",""
"","ITI","","html-keyboard-response","546","646372","0.0-1.0-783.0","0","0","20867","","null","","","null","86","","","","","","","","","","","","","","","NaN",""
"","S1","","html-keyboard-response","547","646639","0.0-1.0-785.0","0","0","20867","","null","","","null","87","","","","","","","","","","","","","","","",""
"","ISI","","html-keyboard-response","548","647643","0.0-1.0-786.0","0","0","20867","","114","","","75","87","k","","","","","","","","","","","","","","",""
"","S2","","html-keyboard-response","549","647895","0.0-1.0-787.0","0","0","20867","","null","","","null","87","","NaN","","","","","","","","","","","","","",""
"","response","","html-keyboard-response","550","648050","0.0-1.0-788.0-0.0","0","0","20867","","153","","","75","87","","","2","87","training","adjacent","GF","7","6","Q.jpg","R.jpg","1","0","0","",""
"","feedback","","html-keyboard-response","551","649052","0.0-1.0-789.0-0.0","0","0","20867","","null","","","null","87","","","","","","","","","","","","","","","",""
"","time_out","","html-keyboard-response","552","651055","0.0-1.0-791.0-0.0","0","0","20867","","null","","","null","87","","","","","","","","","","","","","","","",""
"","ITI","","html-keyboard-response","553","652058","0.0-1.0-792.0","0","0","20867","","81","","","68","87","","","","","","","","","","","","","","","d",""
"","S1","","html-keyboard-response","554","652311","0.0-1.0-794.0","0","0","20867","","null","","","null","88","","","","","","","","","","","","","","","",""
"","ISI","","html-keyboard-response","555","653313","0.0-1.0-795.0","0","0","20867","","98","","","68","88","d","","","","","","","","","","","","","","",""
"","S2","","html-keyboard-response","556","653567","0.0-1.0-796.0","0","0","20867","","null","","","null","88","","NaN","","","","","","","","","","","","","",""
"","response","","html-keyboard-response","557","653666","0.0-1.0-797.0-0.0","0","0","20867","","97","","","68","88","","","2","88","training","adjacent","ED","5","4","M.jpg","L.jpg","0","0","1","",""
"","feedback","","html-keyboard-response","558","654668","0.0-1.0-798.0-0.0","0","0","20867","","null","","","null","88","","","","","","","","","","","","","","","",""
"","ITI","","html-keyboard-response","559","655671","0.0-1.0-801.0","0","0","20867","","null","","","null","88","","","","","","","","","","","","","","","NaN",""
"","S1","","html-keyboard-response","560","655924","0.0-1.0-803.0","0","0","20867","","null","","","null","89","","","","","","","","","","","","","","","",""
"","ISI","","html-keyboard-response","561","656927","0.0-1.0-804.0","0","0","20867","","null","","","null","89","NaN","","","","","","","","","","","","","","",""
"","S2","","html-keyboard-response","562","657058","0.0-1.0-805.0","0","0","20867","","129","","","68","89","","d","2","89","training","adjacent","BC","2","3","P.jpg","O.jpg","0","1","0","",""
"","feedback","","html-keyboard-response","563","658061","0.0-1.0-807.0-0.0","0","0","20867","","null","","","null","89","","","","","","","","","","","","","","","",""
"","time_out","","html-keyboard-response","564","660064","0.0-1.0-809.0-0.0","0","0","20867","","null","","","null","89","","","","","","","","","","","","","","","",""
"","ITI","","html-keyboard-response","565","661066","0.0-1.0-810.0","0","0","20867","","null","","","null","89","","","","","","","","","","","","","","","NaN",""
"","S1","","html-keyboard-response","566","661319","0.0-1.0-812.0","0","0","20867","","null","","","null","90","","","","","","","","","","","","","","","",""
"","ISI","","html-keyboard-response","567","662321","0.0-1.0-813.0","0","0","20867","","202","","","68","90","d","","","","","","","","","","","","","","",""
"","S2","","html-keyboard-response","568","662575","0.0-1.0-814.0","0","0","20867","","null","","","null","90","","NaN","","","","","","","","","","","","","",""
"","response","","html-keyboard-response","569","662858","0.0-1.0-815.0-0.0","0","0","20867","","282","","","68","90","","","2","90","training","adjacent","DC","4","3","L.jpg","O.jpg","0","0","1","",""
"","feedback","","html-keyboard-response","570","663862","0.0-1.0-816.0-0.0","0","0","20867","","null","","","null","90","","","","","","","","","","","","","","","",""
"","ITI","","html-keyboard-response","571","664865","0.0-1.0-819.0","0","0","20867","","null","","","null","90","","","","","","","","","","","","","","","NaN",""
"","S1","","html-keyboard-response","572","665117","0.0-1.0-821.0","0","0","20867","","null","","","null","91","","","","","","","","","","","","","","","",""
"","ISI","","html-keyboard-response","573","666122","0.0-1.0-822.0","0","0","20867","","916","","","68","91","d","","","","","","","","","","","","","","",""
"","S2","","html-keyboard-response","574","666374","0.0-1.0-823.0","0","0","20867","","null","","","null","91","","NaN","","","","","","","","","","","","","",""
"","response","","html-keyboard-response","575","666794","0.0-1.0-824.0-0.0","0","0","20867","","418","","","68","91","","","2","91","training","adjacent","EF","5","6","M.jpg","R.jpg","0","1","0","",""
"","feedback","","html-keyboard-response","576","667797","0.0-1.0-825.0-0.0","0","0","20867","","null","","","null","91","","","","","","","","","","","","","","","",""
"","time_out","","html-keyboard-response","577","669800","0.0-1.0-827.0-0.0","0","0","20867","","null","","","null","91","","","","","","","","","","","","","","","",""
"","ITI","","html-keyboard-response","578","670803","0.0-1.0-828.0","0","0","20867","","null","","","null","91","","","","","","","","","","","","","","","NaN",""
"","S1","","html-keyboard-response","579","671056","0.0-1.0-830.0","0","0","20867","","null","","","null","92","","","","","","","","","","","","","","","",""
"","ISI","","html-keyboard-response","580","672059","0.0-1.0-831.0","0","0","20867","","49","","","75","92","k","","","","","","","","","","","","","","",""
"","S2","","html-keyboard-response","581","672139","0.0-1.0-832.0","0","0","20867","","79","","","75","92","","k","2","92","training","adjacent","ED","5","4","M.jpg","L.jpg","1","0","0","",""
"","feedback","","html-keyboard-response","582","673141","0.0-1.0-834.0-0.0","0","0","20867","","null","","","null","92","","","","","","","","","","","","","","","",""
