"success","ttype","start_time","trial_type","trial_index","time_elapsed","internal_node_id","warning","missed_checkup","PID","view_history","rt","responses","repeat_instructions","key_press","index","keypress_isi","keypress_S2","block","trial_num","phase","group_type","pair_type","S1_stim","S2_stim","S1_img","S2_img","S1_chosen","S1_higher","accuracy","keypress_iti","total_bonus_tally"
"true","full_screen","d08052022hr1316","fullscreen","0","12217","0.0-0.0","0","0","91759","","","","","","","","","","","","","","","","","","","","","",""
"","instructions","","instructions","1","83988","0.0-1.0-0.0-0.0","0","0","91759","[{""page_index"":0,""viewing_time"":6026},{""page_index"":1,""viewing_time"":52209},{""page_index"":2,""viewing_time"":11593},{""page_index"":3,""viewing_time"":1940}]","71769","","","","","","","","","","","","","","","","","","","",""
"","comprehension_check","","survey-multi-choice","2","111486","0.0-1.0-0.0-1.0","0","0","91759","","27493","{""Q0"":""True"",""Q1"":""K"",""Q2"":""Once the second image appears and while the screen 'MAKE A CHOICE' is shown"",""Q3"":""Green mark"",""Q4"":""either D or K""}","0","","","","","","","","","","","","","","","","","",""
"","start_exp","","html-keyboard-response","3","116092","0.0-1.0-1.0","0","0","91759","","4603","","","32","","","","","","","","","","","","","","","","",""
"","S1","","html-keyboard-response","4","116344","0.0-1.0-2.0","0","0","91759","","null","","","null","0","","","","","","","","","","","","","","","",""
"","ISI","","html-keyboard-response","5","118348","0.0-1.0-3.0","0","0","91759","","null","","","null","0","NaN","","","","","","","","","","","","","","",""
"","S2","","html-keyboard-response","6","118601","0.0-1.0-4.0","0","0","91759","","null","","","null","0","","NaN","","","","","","","","","","","","","",""
"","response","","html-keyboard-response","7","120012","0.0-1.0-5.0-0.0","0","0","91759","","1410","","","75","0","","","1","0","training","adjacent","BC","2","3","Q.jpg","O.jpg","1","1","1","",""
"","feedback","","html-keyboard-response","8","121015","0.0-1.0-6.0-0.0","0","0","91759","","null","","","null","0","","","","","","","","","","","","","","","",""
"","ITI","","html-keyboard-response","9","122018","0.0-1.0-9.0","0","0","91759","","null","","","null","0","","","","","","","","","","","","","","","NaN",""
"","S1","","html-keyboard-response","10","122271","0.0-1.0-11.0","0","0","91759","","null","","","null","1","","","","","","","","","","","","","","","",""
"","ISI","","html-keyboard-response","11","124274","0.0-1.0-12.0","0","0","91759","","null","","","null","1","NaN","","","","","","","","","","","","","","",""
"","S2","","html-keyboard-response","12","124526","0.0-1.0-13.0","0","0","91759","","null","","","null","1","","NaN","","","","","","","","","","","","","",""
"","response","","html-keyboard-response","13","125340","0.0-1.0-14.0-0.0","0","0","91759","","812","","","75","1","","","1","1","training","adjacent","CD","3","4","O.jpg","R.jpg","1","1","1","",""
"","feedback","","html-keyboard-response","14","126343","0.0-1.0-15.0-0.0","0","0","91759","","null","","","null","1","","","","","","","","","","","","","","","",""
"","ITI","","html-keyboard-response","15","127346","0.0-1.0-18.0","0","0","91759","","null","","","null","1","","","","","","","","","","","","","","","NaN",""
"","S1","","html-keyboard-response","16","127598","0.0-1.0-20.0","0","0","91759","","null","","","null","2","","","","","","","","","","","","","","","",""
"","ISI","","html-keyboard-response","17","129600","0.0-1.0-21.0","0","0","91759","","null","","","null","2","NaN","","","","","","","","","","","","","","",""
"","S2","","html-keyboard-response","18","129853","0.0-1.0-22.0","0","0","91759","","null","","","null","2","","NaN","","","","","","","","","","","","","",""
"","response","","html-keyboard-response","19","130514","0.0-1.0-23.0-0.0","0","0","91759","","659","","","68","2","","","1","2","training","adjacent","FE","6","5","P.jpg","N.jpg","0","0","1","",""
"","feedback","","html-keyboard-response","20","131518","0.0-1.0-24.0-0.0","0","0","91759","","null","","","null","2","","","","","","","","","","","","","","","",""
"","ITI","","html-keyboard-response","21","132521","0.0-1.0-27.0","0","0","91759","","null","","","null","2","","","","","","","","","","","","","","","NaN",""
"","S1","","html-keyboard-response","22","132773","0.0-1.0-29.0","0","0","91759","","null","","","null","3","","","","","","","","","","","","","","","",""
"","ISI","","html-keyboard-response","23","134775","0.0-1.0-30.0","0","0","91759","","null","","","null","3","NaN","","","","","","","","","","","","","","",""
"","S2","","html-keyboard-response","24","135027","0.0-1.0-31.0","0","0","91759","","null","","","null","3","","NaN","","","","","","","","","","","","","",""
"","response","","html-keyboard-response","25","135582","0.0-1.0-32.0-0.0","0","0","91759","","553","","","75","3","","","1","3","training","adjacent","ED","5","4","N.jpg","R.jpg","1","0","0","",""
"","feedback","","html-keyboard-response","26","136584","0.0-1.0-33.0-0.0","0","0","91759","","null","","","null","3","","","","","","","","","","","","","","","",""
"","time_out","","html-keyboard-response","27","138587","0.0-1.0-35.0-0.0","0","0","91759","","null","","","null","3","","","","","","","","","","","","","","","",""
"","ITI","","html-keyboard-response","28","139589","0.0-1.0-36.0","0","0","91759","","null","","","null","3","","","","","","","","","","","","","","","NaN",""
"","S1","","html-keyboard-response","29","139841","0.0-1.0-38.0","0","0","91759","","null","","","null","4","","","","","","","","","","","","","","","",""
"","ISI","","html-keyboard-response","30","141843","0.0-1.0-39.0","0","0","91759","","null","","","null","4","NaN","","","","","","","","","","","","","","",""
"","S2","","html-keyboard-response","31","142096","0.0-1.0-40.0","0","0","91759","","null","","","null","4","","NaN","","","","","","","","","","","","","",""
"","response","","html-keyboard-response","32","142508","0.0-1.0-41.0-0.0","0","0","91759","","411","","","75","4","","","1","4","training","adjacent","CB","3","2","O.jpg","Q.jpg","1","0","0","",""
"","feedback","","html-keyboard-response","33","143512","0.0-1.0-42.0-0.0","0","0","91759","","null","","","null","4","","","","","","","","","","","","","","","",""
"","time_out","","html-keyboard-response","34","145515","0.0-1.0-44.0-0.0","0","0","91759","","null","","","null","4","","","","","","","","","","","","","","","",""
"","ITI","","html-keyboard-response","35","146518","0.0-1.0-45.0","0","0","91759","","null","","","null","4","","","","","","","","","","","","","","","NaN",""
"","S1","","html-keyboard-response","36","146771","0.0-1.0-47.0","0","0","91759","","null","","","null","5","","","","","","","","","","","","","","","",""
"","ISI","","html-keyboard-response","37","148773","0.0-1.0-48.0","0","0","91759","","null","","","null","5","NaN","","","","","","","","","","","","","","",""
"","S2","","html-keyboard-response","38","149025","0.0-1.0-49.0","0","0","91759","","null","","","null","5","","NaN","","","","","","","","","","","","","",""
"","response","","html-keyboard-response","39","149550","0.0-1.0-50.0-0.0","0","0","91759","","522","","","75","5","","","1","5","training","adjacent","DC","4","3","R.jpg","O.jpg","1","0","0","",""
"","feedback","","html-keyboard-response","40","150553","0.0-1.0-51.0-0.0","0","0","91759","","null","","","null","5","","","","","","","","","","","","","","","",""
"","time_out","","html-keyboard-response","41","152555","0.0-1.0-53.0-0.0","0","0","91759","","null","","","null","5","","","","","","","","","","","","","","","",""
"","ITI","","html-keyboard-response","42","153558","0.0-1.0-54.0","0","0","91759","","null","","","null","5","","","","","","","","","","","","","","","NaN",""
"","S1","","html-keyboard-response","43","153811","0.0-1.0-56.0","0","0","91759","","null","","","null","6","","","","","","","","","","","","","","","",""
"","ISI","","html-keyboard-response","44","155814","0.0-1.0-57.0","0","0","91759","","null","","","null","6","NaN","","","","","","","","","","","","","","",""
"","S2","","html-keyboard-response","45","156066","0.0-1.0-58.0","0","0","91759","","null","","","null","6","","NaN","","","","","","","","","","","","","",""
"","response","","html-keyboard-response","46","156620","0.0-1.0-59.0-0.0","0","0","91759","","552","","","68","6","","","1","6","training","adjacent","CD","3","4","O.jpg","R.jpg","0","1","0","",""
"","feedback","","html-keyboard-response","47","157623","0.0-1.0-60.0-0.0","0","0","91759","","null","","","null","6","","","","","","","","","","","","","","","",""
"","time_out","","html-keyboard-response","48","159625","0.0-1.0-62.0-0.0","0","0","91759","","null","","","null","6","","","","","","","","","","","","","","","",""
"","ITI","","html-keyboard-response","49","160627","0.0-1.0-63.0","0","0","91759","","null","","","null","6","","","","","","","","","","","","","","","NaN",""
"","S1","","html-keyboard-response","50","160879","0.0-1.0-65.0","0","0","91759","","null","","","null","7","","","","","","","","","","","","","","","",""
"","ISI","","html-keyboard-response","51","162881","0.0-1.0-66.0","0","0","91759","","null","","","null","7","NaN","","","","","","","","","","","","","","",""
"","S2","","html-keyboard-response","52","163133","0.0-1.0-67.0","0","0","91759","","null","","","null","7","","NaN","","","","","","","","","","","","","",""
"","response","","html-keyboard-response","53","163716","0.0-1.0-68.0-0.0","0","0","91759","","581","","","68","7","","","1","7","training","adjacent","FE","6","5","P.jpg","N.jpg","0","0","1","",""
"","feedback","","html-keyboard-response","54","164719","0.0-1.0-69.0-0.0","0","0","91759","","null","","","null","7","","","","","","","","","","","","","","","",""
"","ITI","","html-keyboard-response","55","165722","0.0-1.0-72.0","0","0","91759","","null","","","null","7","","","","","","","","","","","","","","","NaN",""
"","S1","","html-keyboard-response","56","165975","0.0-1.0-74.0","0","0","91759","","null","","","null","8","","","","","","","","","","","","","","","",""
"","ISI","","html-keyboard-response","57","167977","0.0-1.0-75.0","0","0","91759","","null","","","null","8","NaN","","","","","","","","","","","","","","",""
"","S2","","html-keyboard-response","58","168230","0.0-1.0-76.0","0","0","91759","","null","","","null","8","","NaN","","","","","","","","","","","","","",""
"","response","","html-keyboard-response","59","168812","0.0-1.0-77.0-0.0","0","0","91759","","580","","","68","8","","","1","8","training","adjacent","FG","6","7","P.jpg","L.jpg","0","1","0","",""
"","feedback","","html-keyboard-response","60","169815","0.0-1.0-78.0-0.0","0","0","91759","","null","","","null","8","","","","","","","","","","","","","","","",""
"","time_out","","html-keyboard-response","61","171817","0.0-1.0-80.0-0.0","0","0","91759","","null","","","null","8","","","","","","","","","","","","","","","",""
"","ITI","","html-keyboard-response","62","172820","0.0-1.0-81.0","0","0","91759","","null","","","null","8","","","","","","","","","","","","","","","NaN",""
"","S1","","html-keyboard-response","63","173073","0.0-1.0-83.0","0","0","91759","","null","","","null","9","","","","","","","","","","","","","","","",""
"","ISI","","html-keyboard-response","64","175076","0.0-1.0-84.0","0","0","91759","","null","","","null","9","NaN","","","","","","","","","","","","","","",""
"","S2","","html-keyboard-response","65","175329","0.0-1.0-85.0","0","0","91759","","null","","","null","9","","NaN","","","","","","","","","","","","","",""
"","response","","html-keyboard-response","66","176060","0.0-1.0-86.0-0.0","0","0","91759","","730","","","68","9","","","1","9","training","adjacent","GF","7","6","L.jpg","P.jpg","0","0","1","",""
"","feedback","","html-keyboard-response","67","177063","0.0-1.0-87.0-0.0","0","0","91759","","null","","","null","9","","","","","","","","","","","","","","","",""
"","ITI","","html-keyboard-response","68","178067","0.0-1.0-90.0","0","0","91759","","null","","","null","9","","","","","","","","","","","","","","","NaN",""
"","S1","","html-keyboard-response","69","178320","0.0-1.0-92.0","0","0","91759","","null","","","null","10","","","","","","","","","","","","","","","",""
"","ISI","","html-keyboard-response","70","180322","0.0-1.0-93.0","0","0","91759","","null","","","null","10","NaN","","","","","","","","","","","","","","",""
"","S2","","html-keyboard-response","71","180574","0.0-1.0-94.0","0","0","91759","","null","","","null","10","","NaN","","","","","","","","","","","","","",""
"","response","","html-keyboard-response","72","181202","0.0-1.0-95.0-0.0","0","0","91759","","627","","","68","10","","","1","10","training","adjacent","BC","2","3","Q.jpg","O.jpg","0","1","0","",""
"","feedback","","html-keyboard-response","73","182205","0.0-1.0-96.0-0.0","0","0","91759","","null","","","null","10","","","","","","","","","","","","","","","",""
"","time_out","","html-keyboard-response","74","184207","0.0-1.0-98.0-0.0","0","0","91759","","null","","","null","10","","","","","","","","","","","","","","","",""
"","ITI","","html-keyboard-response","75","185210","0.0-1.0-99.0","0","0","91759","","null","","","null","10","","","","","","","","","","","","","","","NaN",""
"","S1","","html-keyboard-response","76","185462","0.0-1.0-101.0","0","0","91759","","null","","","null","11","","","","","","","","","","","","","","","",""
"","ISI","","html-keyboard-response","77","187465","0.0-1.0-102.0","0","0","91759","","null","","","null","11","NaN","","","","","","","","","","","","","","",""
"","S2","","html-keyboard-response","78","187717","0.0-1.0-103.0","0","0","91759","","null","","","null","11","","NaN","","","","","","","","","","","","","",""
"","response","","html-keyboard-response","79","188363","0.0-1.0-104.0-0.0","0","0","91759","","644","","","68","11","","","1","11","training","adjacent","BA","2","1","Q.jpg","M.jpg","0","0","1","",""
"","feedback","","html-keyboard-response","80","189366","0.0-1.0-105.0-0.0","0","0","91759","","null","","","null","11","","","","","","","","","","","","","","","",""
"","ITI","","html-keyboard-response","81","190369","0.0-1.0-108.0","0","0","91759","","null","","","null","11","","","","","","","","","","","","","","","NaN",""
"","S1","","html-keyboard-response","82","190622","0.0-1.0-110.0","0","0","91759","","null","","","null","12","","","","","","","","","","","","","","","",""
"","ISI","","html-keyboard-response","83","192624","0.0-1.0-111.0","0","0","91759","","null","","","null","12","NaN","","","","","","","","","","","","","","",""
"","S2","","html-keyboard-response","84","192876","0.0-1.0-112.0","0","0","91759","","null","","","null","12","","NaN","","","","","","","","","","","","","",""
"","response","","html-keyboard-response","85","193376","0.0-1.0-113.0-0.0","0","0","91759","","499","","","68","12","","","1","12","training","adjacent","AB","1","2","M.jpg","Q.jpg","0","1","0","",""
"","feedback","","html-keyboard-response","86","194378","0.0-1.0-114.0-0.0","0","0","91759","","null","","","null","12","","","","","","","","","","","","","","","",""
"","time_out","","html-keyboard-response","87","196380","0.0-1.0-116.0-0.0","0","0","91759","","null","","","null","12","","","","","","","","","","","","","","","",""
"","ITI","","html-keyboard-response","88","197382","0.0-1.0-117.0","0","0","91759","","null","","","null","12","","","","","","","","","","","","","","","NaN",""
"","S1","","html-keyboard-response","89","197634","0.0-1.0-119.0","0","0","91759","","null","","","null","13","","","","","","","","","","","","","","","",""
"","ISI","","html-keyboard-response","90","199636","0.0-1.0-120.0","0","0","91759","","null","","","null","13","NaN","","","","","","","","","","","","","","",""
"","S2","","html-keyboard-response","91","199889","0.0-1.0-121.0","0","0","91759","","null","","","null","13","","NaN","","","","","","","","","","","","","",""
"","response","","html-keyboard-response","92","200333","0.0-1.0-122.0-0.0","0","0","91759","","441","","","75","13","","","1","13","training","adjacent","DE","4","5","R.jpg","N.jpg","1","1","1","",""
"","feedback","","html-keyboard-response","93","201336","0.0-1.0-123.0-0.0","0","0","91759","","null","","","null","13","","","","","","","","","","","","","","","",""
"","ITI","","html-keyboard-response","94","202339","0.0-1.0-126.0","0","0","91759","","null","","","null","13","","","","","","","","","","","","","","","NaN",""
"","S1","","html-keyboard-response","95","202592","0.0-1.0-128.0","0","0","91759","","null","","","null","14","","","","","","","","","","","","","","","",""
"","ISI","","html-keyboard-response","96","204595","0.0-1.0-129.0","0","0","91759","","null","","","null","14","NaN","","","","","","","","","","","","","","",""
"","S2","","html-keyboard-response","97","204848","0.0-1.0-130.0","0","0","91759","","null","","","null","14","","NaN","","","","","","","","","","","","","",""
"","response","","html-keyboard-response","98","205393","0.0-1.0-131.0-0.0","0","0","91759","","543","","","75","14","","","1","14","training","adjacent","DE","4","5","R.jpg","N.jpg","1","1","1","",""
"","feedback","","html-keyboard-response","99","206396","0.0-1.0-132.0-0.0","0","0","91759","","null","","","null","14","","","","","","","","","","","","","","","",""
"","ITI","","html-keyboard-response","100","207399","0.0-1.0-135.0","0","0","91759","","null","","","null","14","","","","","","","","","","","","","","","NaN",""
"","S1","","html-keyboard-response","101","207652","0.0-1.0-137.0","0","0","91759","","null","","","null","15","","","","","","","","","","","","","","","",""
"","ISI","","html-keyboard-response","102","209655","0.0-1.0-138.0","0","0","91759","","null","","","null","15","NaN","","","","","","","","","","","","","","",""
"","S2","","html-keyboard-response","103","209908","0.0-1.0-139.0","0","0","91759","","null","","","null","15","","NaN","","","","","","","","","","","","","",""
"","response","","html-keyboard-response","104","210238","0.0-1.0-140.0-0.0","0","0","91759","","329","","","75","15","","","1","15","training","adjacent","AB","1","2","M.jpg","Q.jpg","1","1","1","",""
"","feedback","","html-keyboard-response","105","211242","0.0-1.0-141.0-0.0","0","0","91759","","null","","","null","15","","","","","","","","","","","","","","","",""
"","ITI","","html-keyboard-response","106","212244","0.0-1.0-144.0","0","0","91759","","null","","","null","15","","","","","","","","","","","","","","","NaN",""
"","S1","","html-keyboard-response","107","212497","0.0-1.0-146.0","0","0","91759","","null","","","null","16","","","","","","","","","","","","","","","",""
"","ISI","","html-keyboard-response","108","214499","0.0-1.0-147.0","0","0","91759","","null","","","null","16","NaN","","","","","","","","","","","","","","",""
"","S2","","html-keyboard-response","109","214753","0.0-1.0-148.0","0","0","91759","","null","","","null","16","","NaN","","","","","","","","","","","","","",""
"","response","","html-keyboard-response","110","215236","0.0-1.0-149.0-0.0","0","0","91759","","482","","","68","16","","","1","16","training","adjacent","DE","4","5","R.jpg","N.jpg","0","1","0","",""
"","feedback","","html-keyboard-response","111","216239","0.0-1.0-150.0-0.0","0","0","91759","","null","","","null","16","","","","","","","","","","","","","","","",""
"","time_out","","html-keyboard-response","112","218241","0.0-1.0-152.0-0.0","0","0","91759","","null","","","null","16","","","","","","","","","","","","","","","",""
"","ITI","","html-keyboard-response","113","219244","0.0-1.0-153.0","0","0","91759","","null","","","null","16","","","","","","","","","","","","","","","NaN",""
"","S1","","html-keyboard-response","114","219496","0.0-1.0-155.0","0","0","91759","","null","","","null","17","","","","","","","","","","","","","","","",""
"","ISI","","html-keyboard-response","115","221499","0.0-1.0-156.0","0","0","91759","","null","","","null","17","NaN","","","","","","","","","","","","","","",""
"","S2","","html-keyboard-response","116","221752","0.0-1.0-157.0","0","0","91759","","null","","","null","17","","NaN","","","","","","","","","","","","","",""
"","response","","html-keyboard-response","117","222175","0.0-1.0-158.0-0.0","0","0","91759","","422","","","75","17","","","1","17","training","adjacent","ED","5","4","N.jpg","R.jpg","1","0","0","",""
"","feedback","","html-keyboard-response","118","223178","0.0-1.0-159.0-0.0","0","0","91759","","null","","","null","17","","","","","","","","","","","","","","","",""
"","time_out","","html-keyboard-response","119","225180","0.0-1.0-161.0-0.0","0","0","91759","","null","","","null","17","","","","","","","","","","","","","","","",""
"","ITI","","html-keyboard-response","120","226183","0.0-1.0-162.0","0","0","91759","","null","","","null","17","","","","","","","","","","","","","","","NaN",""
"","S1","","html-keyboard-response","121","226436","0.0-1.0-164.0","0","0","91759","","null","","","null","18","","","","","","","","","","","","","","","",""
"","ISI","","html-keyboard-response","122","228438","0.0-1.0-165.0","0","0","91759","","null","","","null","18","NaN","","","","","","","","","","","","","","",""
"","S2","","html-keyboard-response","123","228690","0.0-1.0-166.0","0","0","91759","","null","","","null","18","","NaN","","","","","","","","","","","","","",""
"","response","","html-keyboard-response","124","229198","0.0-1.0-167.0-0.0","0","0","91759","","506","","","68","18","","","1","18","training","adjacent","BA","2","1","Q.jpg","M.jpg","0","0","1","",""
"","feedback","","html-keyboard-response","125","230201","0.0-1.0-168.0-0.0","0","0","91759","","null","","","null","18","","","","","","","","","","","","","","","",""
"","ITI","","html-keyboard-response","126","231203","0.0-1.0-171.0","0","0","91759","","null","","","null","18","","","","","","","","","","","","","","","NaN",""
"","S1","","html-keyboard-response","127","231455","0.0-1.0-173.0","0","0","91759","","null","","","null","19","","","","","","","","","","","","","","","",""
"","ISI","","html-keyboard-response","128","233458","0.0-1.0-174.0","0","0","91759","","null","","","null","19","NaN","","","","","","","","","","","","","","",""
"","S2","","html-keyboard-response","129","233711","0.0-1.0-175.0","0","0","91759","","null","","","null","19","","NaN","","","","","","","","","","","","","",""
"","response","","html-keyboard-response","130","234172","0.0-1.0-176.0-0.0","0","0","91759","","460","","","68","19","","","1","19","training","adjacent","EF","5","6","N.jpg","P.jpg","0","1","0","",""
"","feedback","","html-keyboard-response","131","235175","0.0-1.0-177.0-0.0","0","0","91759","","null","","","null","19","","","","","","","","","","","","","","","",""
"","time_out","","html-keyboard-response","132","237177","0.0-1.0-179.0-0.0","0","0","91759","","null","","","null","19","","","","","","","","","","","","","","","",""
"","ITI","","html-keyboard-response","133","238179","0.0-1.0-180.0","0","0","91759","","null","","","null","19","","","","","","","","","","","","","","","NaN",""
"","S1","","html-keyboard-response","134","238432","0.0-1.0-182.0","0","0","91759","","null","","","null","20","","","","","","","","","","","","","","","",""
"","ISI","","html-keyboard-response","135","240435","0.0-1.0-183.0","0","0","91759","","null","","","null","20","NaN","","","","","","","","","","","","","","",""
"","S2","","html-keyboard-response","136","240687","0.0-1.0-184.0","0","0","91759","","null","","","null","20","","NaN","","","","","","","","","","","","","",""
"","response","","html-keyboard-response","137","241084","0.0-1.0-185.0-0.0","0","0","91759","","395","","","68","20","","","1","20","training","adjacent","FE","6","5","P.jpg","N.jpg","0","0","1","",""
"","feedback","","html-keyboard-response","138","242087","0.0-1.0-186.0-0.0","0","0","91759","","null","","","null","20","","","","","","","","","","","","","","","",""
"","ITI","","html-keyboard-response","139","243090","0.0-1.0-189.0","0","0","91759","","null","","","null","20","","","","","","","","","","","","","","","NaN",""
"","S1","","html-keyboard-response","140","243342","0.0-1.0-191.0","0","0","91759","","null","","","null","21","","","","","","","","","","","","","","","",""
"","ISI","","html-keyboard-response","141","245345","0.0-1.0-192.0","0","0","91759","","null","","","null","21","NaN","","","","","","","","","","","","","","",""
"","S2","","html-keyboard-response","142","245599","0.0-1.0-193.0","0","0","91759","","null","","","null","21","","NaN","","","","","","","","","","","","","",""
"","response","","html-keyboard-response","143","246007","0.0-1.0-194.0-0.0","0","0","91759","","406","","","75","21","","","1","21","training","adjacent","CB","3","2","O.jpg","Q.jpg","1","0","0","",""
"","feedback","","html-keyboard-response","144","247010","0.0-1.0-195.0-0.0","0","0","91759","","null","","","null","21","","","","","","","","","","","","","","","",""
"","time_out","","html-keyboard-response","145","249013","0.0-1.0-197.0-0.0","0","0","91759","","null","","","null","21","","","","","","","","","","","","","","","",""
"","ITI","","html-keyboard-response","146","250016","0.0-1.0-198.0","0","0","91759","","null","","","null","21","","","","","","","","","","","","","","","NaN",""
"","S1","","html-keyboard-response","147","250269","0.0-1.0-200.0","0","0","91759","","null","","","null","22","","","","","","","","","","","","","","","",""
"","ISI","","html-keyboard-response","148","252271","0.0-1.0-201.0","0","0","91759","","null","","","null","22","NaN","","","","","","","","","","","","","","",""
"","S2","","html-keyboard-response","149","252523","0.0-1.0-202.0","0","0","91759","","null","","","null","22","","NaN","","","","","","","","","","","","","",""
"","response","","html-keyboard-response","150","252946","0.0-1.0-203.0-0.0","0","0","91759","","421","","","75","22","","","1","22","training","adjacent","AB","1","2","M.jpg","Q.jpg","1","1","1","",""
"","feedback","","html-keyboard-response","151","253949","0.0-1.0-204.0-0.0","0","0","91759","","null","","","null","22","","","","","","","","","","","","","","","",""
"","ITI","","html-keyboard-response","152","254952","0.0-1.0-207.0","0","0","91759","","null","","","null","22","","","","","","","","","","","","","","","NaN",""
"","S1","","html-keyboard-response","153","255205","0.0-1.0-209.0","0","0","91759","","null","","","null","23","","","","","","","","","","","","","","","",""
"","ISI","","html-keyboard-response","154","257207","0.0-1.0-210.0","0","0","91759","","null","","","null","23","NaN","","","","","","","","","","","","","","",""
"","S2","","html-keyboard-response","155","257460","0.0-1.0-211.0","0","0","91759","","null","","","null","23","","NaN","","","","","","","","","","","","","",""
"","response","","html-keyboard-response","156","257868","0.0-1.0-212.0-0.0","0","0","91759","","407","","","68","23","","","1","23","training","adjacent","FG","6","7","P.jpg","L.jpg","0","1","0","",""
"","feedback","","html-keyboard-response","157","258872","0.0-1.0-213.0-0.0","0","0","91759","","null","","","null","23","","","","","","","","","","","","","","","",""
"","time_out","","html-keyboard-response","158","260874","0.0-1.0-215.0-0.0","0","0","91759","","null","","","null","23","","","","","","","","","","","","","","","",""
"","ITI","","html-keyboard-response","159","261876","0.0-1.0-216.0","0","0","91759","","null","","","null","23","","","","","","","","","","","","","","","NaN",""
"","S1","","html-keyboard-response","160","262129","0.0-1.0-218.0","0","0","91759","","null","","","null","24","","","","","","","","","","","","","","","",""
"","ISI","","html-keyboard-response","161","264131","0.0-1.0-219.0","0","0","91759","","null","","","null","24","NaN","","","","","","","","","","","","","","",""
"","S2","","html-keyboard-response","162","264384","0.0-1.0-220.0","0","0","91759","","null","","","null","24","","NaN","","","","","","","","","","","","","",""
"","response","","html-keyboard-response","163","264820","0.0-1.0-221.0-0.0","0","0","91759","","434","","","68","24","","","1","24","training","adjacent","EF","5","6","N.jpg","P.jpg","0","1","0","",""
"","feedback","","html-keyboard-response","164","265822","0.0-1.0-222.0-0.0","0","0","91759","","null","","","null","24","","","","","","","","","","","","","","","",""
"","time_out","","html-keyboard-response","165","267825","0.0-1.0-224.0-0.0","0","0","91759","","null","","","null","24","","","","","","","","","","","","","","","",""
"","ITI","","html-keyboard-response","166","268827","0.0-1.0-225.0","0","0","91759","","null","","","null","24","","","","","","","","","","","","","","","NaN",""
"","S1","","html-keyboard-response","167","269080","0.0-1.0-227.0","0","0","91759","","null","","","null","25","","","","","","","","","","","","","","","",""
"","ISI","","html-keyboard-response","168","271082","0.0-1.0-228.0","0","0","91759","","null","","","null","25","NaN","","","","","","","","","","","","","","",""
"","S2","","html-keyboard-response","169","271335","0.0-1.0-229.0","0","0","91759","","null","","","null","25","","NaN","","","","","","","","","","","","","",""
"","response","","html-keyboard-response","170","271674","0.0-1.0-230.0-0.0","0","0","91759","","337","","","75","25","","","1","25","training","adjacent","BA","2","1","Q.jpg","M.jpg","1","0","0","",""
"","feedback","","html-keyboard-response","171","272678","0.0-1.0-231.0-0.0","0","0","91759","","null","","","null","25","","","","","","","","","","","","","","","",""
"","time_out","","html-keyboard-response","172","274680","0.0-1.0-233.0-0.0","0","0","91759","","null","","","null","25","","","","","","","","","","","","","","","",""
"","ITI","","html-keyboard-response","173","275682","0.0-1.0-234.0","0","0","91759","","null","","","null","25","","","","","","","","","","","","","","","NaN",""
"","S1","","html-keyboard-response","174","275934","0.0-1.0-236.0","0","0","91759","","null","","","null","26","","","","","","","","","","","","","","","",""
"","ISI","","html-keyboard-response","175","277936","0.0-1.0-237.0","0","0","91759","","null","","","null","26","NaN","","","","","","","","","","","","","","",""
"","S2","","html-keyboard-response","176","278190","0.0-1.0-238.0","0","0","91759","","null","","","null","26","","NaN","","","","","","","","","","","","","",""
"","response","","html-keyboard-response","177","278410","0.0-1.0-239.0-0.0","0","0","91759","","219","","","75","26","","","1","26","training","adjacent","FG","6","7","P.jpg","L.jpg","1","1","1","",""
"","feedback","","html-keyboard-response","178","279413","0.0-1.0-240.0-0.0","0","0","91759","","null","","","null","26","","","","","","","","","","","","","","","",""
"","ITI","","html-keyboard-response","179","280416","0.0-1.0-243.0","0","0","91759","","null","","","null","26","","","","","","","","","","","","","","","NaN",""
"","S1","","html-keyboard-response","180","280668","0.0-1.0-245.0","0","0","91759","","null","","","null","27","","","","","","","","","","","","","","","",""
"","ISI","","html-keyboard-response","181","282671","0.0-1.0-246.0","0","0","91759","","null","","","null","27","NaN","","","","","","","","","","","","","","",""
"","S2","","html-keyboard-response","182","282923","0.0-1.0-247.0","0","0","91759","","null","","","null","27","","NaN","","","","","","","","","","","","","",""
"","response","","html-keyboard-response","183","283332","0.0-1.0-248.0-0.0","0","0","91759","","408","","","75","27","","","1","27","training","adjacent","GF","7","6","L.jpg","P.jpg","1","0","0","",""
"","feedback","","html-keyboard-response","184","284335","0.0-1.0-249.0-0.0","0","0","91759","","null","","","null","27","","","","","","","","","","","","","","","",""
"","time_out","","html-keyboard-response","185","286338","0.0-1.0-251.0-0.0","0","0","91759","","null","","","null","27","","","","","","","","","","","","","","","",""
"","ITI","","html-keyboard-response","186","287341","0.0-1.0-252.0","0","0","91759","","null","","","null","27","","","","","","","","","","","","","","","NaN",""
"","S1","","html-keyboard-response","187","287594","0.0-1.0-254.0","0","0","91759","","null","","","null","28","","","","","","","","","","","","","","","",""
"","ISI","","html-keyboard-response","188","289597","0.0-1.0-255.0","0","0","91759","","null","","","null","28","NaN","","","","","","","","","","","","","","",""
"","S2","","html-keyboard-response","189","289850","0.0-1.0-256.0","0","0","91759","","null","","","null","28","","NaN","","","","","","","","","","","","","",""
"","response","","html-keyboard-response","190","290254","0.0-1.0-257.0-0.0","0","0","91759","","403","","","68","28","","","1","28","training","adjacent","CB","3","2","O.jpg","Q.jpg","0","0","1","",""
"","feedback","","html-keyboard-response","191","291257","0.0-1.0-258.0-0.0","0","0","91759","","null","","","null","28","","","","","","","","","","","","","","","",""
"","ITI","","html-keyboard-response","192","292260","0.0-1.0-261.0","0","0","91759","","null","","","null","28","","","","","","","","","","","","","","","NaN",""
"","S1","","html-keyboard-response","193","292512","0.0-1.0-263.0","0","0","91759","","null","","","null","29","","","","","","","","","","","","","","","",""
"","ISI","","html-keyboard-response","194","294514","0.0-1.0-264.0","0","0","91759","","null","","","null","29","NaN","","","","","","","","","","","","","","",""
"","S2","","html-keyboard-response","195","294767","0.0-1.0-265.0","0","0","91759","","null","","","null","29","","NaN","","","","","","","","","","","","","",""
"","response","","html-keyboard-response","196","295202","0.0-1.0-266.0-0.0","0","0","91759","","433","","","68","29","","","1","29","training","adjacent","AB","1","2","M.jpg","Q.jpg","0","1","0","",""
"","feedback","","html-keyboard-response","197","296204","0.0-1.0-267.0-0.0","0","0","91759","","null","","","null","29","","","","","","","","","","","","","","","",""
"","time_out","","html-keyboard-response","198","298207","0.0-1.0-269.0-0.0","0","0","91759","","null","","","null","29","","","","","","","","","","","","","","","",""
"","ITI","","html-keyboard-response","199","299210","0.0-1.0-270.0","0","0","91759","","null","","","null","29","","","","","","","","","","","","","","","NaN",""
"","S1","","html-keyboard-response","200","299463","0.0-1.0-272.0","0","0","91759","","null","","","null","30","","","","","","","","","","","","","","","",""
"","ISI","","html-keyboard-response","201","301466","0.0-1.0-273.0","0","0","91759","","null","","","null","30","NaN","","","","","","","","","","","","","","",""
"","S2","","html-keyboard-response","202","301719","0.0-1.0-274.0","0","0","91759","","null","","","null","30","","NaN","","","","","","","","","","","","","",""
"","response","","html-keyboard-response","203","302116","0.0-1.0-275.0-0.0","0","0","91759","","396","","","75","30","","","1","30","training","adjacent","BC","2","3","Q.jpg","O.jpg","1","1","1","",""
"","feedback","","html-keyboard-response","204","303119","0.0-1.0-276.0-0.0","0","0","91759","","null","","","null","30","","","","","","","","","","","","","","","",""
"","ITI","","html-keyboard-response","205","304121","0.0-1.0-279.0","0","0","91759","","null","","","null","30","","","","","","","","","","","","","","","NaN",""
"","S1","","html-keyboard-response","206","304373","0.0-1.0-281.0","0","0","91759","","null","","","null","31","","","","","","","","","","","","","","","",""
"","ISI","","html-keyboard-response","207","306376","0.0-1.0-282.0","0","0","91759","","null","","","null","31","NaN","","","","","","","","","","","","","","",""
"","S2","","html-keyboard-response","208","306629","0.0-1.0-283.0","0","0","91759","","null","","","null","31","","NaN","","","","","","","","","","","","","",""
"","response","","html-keyboard-response","209","307040","0.0-1.0-284.0-0.0","0","0","91759","","410","","","75","31","","","1","31","training","adjacent","FG","6","7","P.jpg","L.jpg","1","1","1","",""
"","feedback","","html-keyboard-response","210","308044","0.0-1.0-285.0-0.0","0","0","91759","","null","","","null","31","","","","","","","","","","","","","","","",""
"","ITI","","html-keyboard-response","211","309046","0.0-1.0-288.0","0","0","91759","","null","","","null","31","","","","","","","","","","","","","","","NaN",""
"","S1","","html-keyboard-response","212","309298","0.0-1.0-290.0","0","0","91759","","null","","","null","32","","","","","","","","","","","","","","","",""
"","ISI","","html-keyboard-response","213","311301","0.0-1.0-291.0","0","0","91759","","null","","","null","32","NaN","","","","","","","","","","","","","","",""
"","S2","","html-keyboard-response","214","311553","0.0-1.0-292.0","0","0","91759","","null","","","null","32","","NaN","","","","","","","","","","","","","",""
"","response","","html-keyboard-response","215","311728","0.0-1.0-293.0-0.0","0","0","91759","","174","","","68","32","","","1","32","training","adjacent","DC","4","3","R.jpg","O.jpg","0","0","1","",""
"","feedback","","html-keyboard-response","216","312731","0.0-1.0-294.0-0.0","0","0","91759","","null","","","null","32","","","","","","","","","","","","","","","",""
"","ITI","","html-keyboard-response","217","313734","0.0-1.0-297.0","0","0","91759","","null","","","null","32","","","","","","","","","","","","","","","NaN",""
"","S1","","html-keyboard-response","218","313986","0.0-1.0-299.0","0","0","91759","","null","","","null","33","","","","","","","","","","","","","","","",""
"","ISI","","html-keyboard-response","219","315988","0.0-1.0-300.0","0","0","91759","","null","","","null","33","NaN","","","","","","","","","","","","","","",""
"","S2","","html-keyboard-response","220","316240","0.0-1.0-301.0","0","0","91759","","null","","","null","33","","NaN","","","","","","","","","","","","","",""
"","response","","html-keyboard-response","221","316639","0.0-1.0-302.0-0.0","0","0","91759","","397","","","75","33","","","1","33","training","adjacent","BC","2","3","Q.jpg","O.jpg","1","1","1","",""
"","feedback","","html-keyboard-response","222","317643","0.0-1.0-303.0-0.0","0","0","91759","","null","","","null","33","","","","","","","","","","","","","","","",""
"","ITI","","html-keyboard-response","223","318645","0.0-1.0-306.0","0","0","91759","","null","","","null","33","","","","","","","","","","","","","","","NaN",""
"","S1","","html-keyboard-response","224","318897","0.0-1.0-308.0","0","0","91759","","null","","","null","34","","","","","","","","","","","","","","","",""
"","ISI","","html-keyboard-response","225","320899","0.0-1.0-309.0","0","0","91759","","null","","","null","34","NaN","","","","","","","","","","","","","","",""
"","S2","","html-keyboard-response","226","321151","0.0-1.0-310.0","0","0","91759","","null","","","null","34","","NaN","","","","","","","","","","","","","",""
"","response","","html-keyboard-response","227","321733","0.0-1.0-311.0-0.0","0","0","91759","","581","","","68","34","","","1","34","training","adjacent","GF","7","6","L.jpg","P.jpg","0","0","1","",""
"","feedback","","html-keyboard-response","228","322735","0.0-1.0-312.0-0.0","0","0","91759","","null","","","null","34","","","","","","","","","","","","","","","",""
"","ITI","","html-keyboard-response","229","323738","0.0-1.0-315.0","0","0","91759","","null","","","null","34","","","","","","","","","","","","","","","NaN",""
"","S1","","html-keyboard-response","230","323991","0.0-1.0-317.0","0","0","91759","","null","","","null","35","","","","","","","","","","","","","","","",""
"","ISI","","html-keyboard-response","231","325992","0.0-1.0-318.0","0","0","91759","","null","","","null","35","NaN","","","","","","","","","","","","","","",""
"","S2","","html-keyboard-response","232","326246","0.0-1.0-319.0","0","0","91759","","null","","","null","35","","NaN","","","","","","","","","","","","","",""
"","response","","html-keyboard-response","233","326416","0.0-1.0-320.0-0.0","0","0","91759","","169","","","68","35","","","1","35","training","adjacent","DC","4","3","R.jpg","O.jpg","0","0","1","",""
"","feedback","","html-keyboard-response","234","327419","0.0-1.0-321.0-0.0","0","0","91759","","null","","","null","35","","","","","","","","","","","","","","","",""
"","ITI","","html-keyboard-response","235","328421","0.0-1.0-324.0","0","0","91759","","null","","","null","35","","","","","","","","","","","","","","","NaN",""
"","S1","","html-keyboard-response","236","328674","0.0-1.0-326.0","0","0","91759","","null","","","null","36","","","","","","","","","","","","","","","",""
"","ISI","","html-keyboard-response","237","330677","0.0-1.0-327.0","0","0","91759","","null","","","null","36","NaN","","","","","","","","","","","","","","",""
"","S2","","html-keyboard-response","238","330930","0.0-1.0-328.0","0","0","91759","","null","","","null","36","","NaN","","","","","","","","","","","","","",""
"","response","","html-keyboard-response","239","331234","0.0-1.0-329.0-0.0","0","0","91759","","301","","","68","36","","","1","36","training","adjacent","ED","5","4","N.jpg","R.jpg","0","0","1","",""
"","feedback","","html-keyboard-response","240","332236","0.0-1.0-330.0-0.0","0","0","91759","","null","","","null","36","","","","","","","","","","","","","","","",""
"","ITI","","html-keyboard-response","241","333239","0.0-1.0-333.0","0","0","91759","","null","","","null","36","","","","","","","","","","","","","","","NaN",""
"","S1","","html-keyboard-response","242","333491","0.0-1.0-335.0","0","0","91759","","null","","","null","37","","","","","","","","","","","","","","","",""
"","ISI","","html-keyboard-response","243","335493","0.0-1.0-336.0","0","0","91759","","null","","","null","37","NaN","","","","","","","","","","","","","","",""
"","S2","","html-keyboard-response","244","335745","0.0-1.0-337.0","0","0","91759","","null","","","null","37","","NaN","","","","","","","","","","","","","",""
"","response","","html-keyboard-response","245","336366","0.0-1.0-338.0-0.0","0","0","91759","","619","","","68","37","","","1","37","training","adjacent","ED","5","4","N.jpg","R.jpg","0","0","1","",""
"","feedback","","html-keyboard-response","246","337369","0.0-1.0-339.0-0.0","0","0","91759","","null","","","null","37","","","","","","","","","","","","","","","",""
"","ITI","","html-keyboard-response","247","338371","0.0-1.0-342.0","0","0","91759","","null","","","null","37","","","","","","","","","","","","","","","NaN",""
"","S1","","html-keyboard-response","248","338624","0.0-1.0-344.0","0","0","91759","","null","","","null","38","","","","","","","","","","","","","","","",""
"","ISI","","html-keyboard-response","249","340627","0.0-1.0-345.0","0","0","91759","","null","","","null","38","NaN","","","","","","","","","","","","","","",""
"","S2","","html-keyboard-response","250","340880","0.0-1.0-346.0","0","0","91759","","null","","","null","38","","NaN","","","","","","","","","","","","","",""
"","response","","html-keyboard-response","251","341321","0.0-1.0-347.0-0.0","0","0","91759","","440","","","68","38","","","1","38","training","adjacent","EF","5","6","N.jpg","P.jpg","0","1","0","",""
"","feedback","","html-keyboard-response","252","342324","0.0-1.0-348.0-0.0","0","0","91759","","null","","","null","38","","","","","","","","","","","","","","","",""
"","time_out","","html-keyboard-response","253","344326","0.0-1.0-350.0-0.0","0","0","91759","","null","","","null","38","","","","","","","","","","","","","","","",""
"","ITI","","html-keyboard-response","254","345329","0.0-1.0-351.0","0","0","91759","","null","","","null","38","","","","","","","","","","","","","","","NaN",""
"","S1","","html-keyboard-response","255","345581","0.0-1.0-353.0","0","0","91759","","null","","","null","39","","","","","","","","","","","","","","","",""
"","ISI","","html-keyboard-response","256","347584","0.0-1.0-354.0","0","0","91759","","null","","","null","39","NaN","","","","","","","","","","","","","","",""
"","S2","","html-keyboard-response","257","347837","0.0-1.0-355.0","0","0","91759","","null","","","null","39","","NaN","","","","","","","","","","","","","",""
"","response","","html-keyboard-response","258","348192","0.0-1.0-356.0-0.0","0","0","91759","","354","","","75","39","","","1","39","training","adjacent","CD","3","4","O.jpg","R.jpg","1","1","1","",""
"","feedback","","html-keyboard-response","259","349195","0.0-1.0-357.0-0.0","0","0","91759","","null","","","null","39","","","","","","","","","","","","","","","",""
"","ITI","","html-keyboard-response","260","350197","0.0-1.0-360.0","0","0","91759","","null","","","null","39","","","","","","","","","","","","","","","NaN",""
"","S1","","html-keyboard-response","261","350450","0.0-1.0-362.0","0","0","91759","","null","","","null","40","","","","","","","","","","","","","","","",""
"","ISI","","html-keyboard-response","262","352453","0.0-1.0-363.0","0","0","91759","","null","","","null","40","NaN","","","","","","","","","","","","","","",""
"","S2","","html-keyboard-response","263","352705","0.0-1.0-364.0","0","0","91759","","null","","","null","40","","NaN","","","","","","","","","","","","","",""
"","response","","html-keyboard-response","264","352810","0.0-1.0-365.0-0.0","0","0","91759","","103","","","75","40","","","1","40","training","adjacent","FE","6","5","P.jpg","N.jpg","1","0","0","",""
"","feedback","","html-keyboard-response","265","353813","0.0-1.0-366.0-0.0","0","0","91759","","null","","","null","40","","","","","","","","","","","","","","","",""
"","time_out","","html-keyboard-response","266","355815","0.0-1.0-368.0-0.0","0","0","91759","","null","","","null","40","","","","","","","","","","","","","","","",""
"","ITI","","html-keyboard-response","267","356817","0.0-1.0-369.0","0","0","91759","","null","","","null","40","","","","","","","","","","","","","","","NaN",""
"","S1","","html-keyboard-response","268","357070","0.0-1.0-371.0","0","0","91759","","null","","","null","41","","","","","","","","","","","","","","","",""
"","ISI","","html-keyboard-response","269","359072","0.0-1.0-372.0","0","0","91759","","null","","","null","41","NaN","","","","","","","","","","","","","","",""
"","S2","","html-keyboard-response","270","359325","0.0-1.0-373.0","0","0","91759","","null","","","null","41","","NaN","","","","","","","","","","","","","",""
"","response","","html-keyboard-response","271","359682","0.0-1.0-374.0-0.0","0","0","91759","","356","","","68","41","","","1","41","training","adjacent","GF","7","6","L.jpg","P.jpg","0","0","1","",""
"","feedback","","html-keyboard-response","272","360685","0.0-1.0-375.0-0.0","0","0","91759","","null","","","null","41","","","","","","","","","","","","","","","",""
"","ITI","","html-keyboard-response","273","361687","0.0-1.0-378.0","0","0","91759","","null","","","null","41","","","","","","","","","","","","","","","NaN",""
"","S1","","html-keyboard-response","274","361941","0.0-1.0-380.0","0","0","91759","","null","","","null","42","","","","","","","","","","","","","","","",""
"","ISI","","html-keyboard-response","275","363943","0.0-1.0-381.0","0","0","91759","","null","","","null","42","NaN","","","","","","","","","","","","","","",""
"","S2","","html-keyboard-response","276","364195","0.0-1.0-382.0","0","0","91759","","null","","","null","42","","NaN","","","","","","","","","","","","","",""
"","response","","html-keyboard-response","277","364575","0.0-1.0-383.0-0.0","0","0","91759","","378","","","68","42","","","1","42","training","adjacent","DC","4","3","R.jpg","O.jpg","0","0","1","",""
"","feedback","","html-keyboard-response","278","365578","0.0-1.0-384.0-0.0","0","0","91759","","null","","","null","42","","","","","","","","","","","","","","","",""
"","ITI","","html-keyboard-response","279","366581","0.0-1.0-387.0","0","0","91759","","null","","","null","42","","","","","","","","","","","","","","","NaN",""
"","S1","","html-keyboard-response","280","366834","0.0-1.0-389.0","0","0","91759","","null","","","null","43","","","","","","","","","","","","","","","",""
"","ISI","","html-keyboard-response","281","368836","0.0-1.0-390.0","0","0","91759","","null","","","null","43","NaN","","","","","","","","","","","","","","",""
"","S2","","html-keyboard-response","282","369089","0.0-1.0-391.0","0","0","91759","","null","","","null","43","","NaN","","","","","","","","","","","","","",""
"","response","","html-keyboard-response","283","369657","0.0-1.0-392.0-0.0","0","0","91759","","566","","","68","43","","","1","43","training","adjacent","CB","3","2","O.jpg","Q.jpg","0","0","1","",""
"","feedback","","html-keyboard-response","284","370661","0.0-1.0-393.0-0.0","0","0","91759","","null","","","null","43","","","","","","","","","","","","","","","",""
"","ITI","","html-keyboard-response","285","371663","0.0-1.0-396.0","0","0","91759","","null","","","null","43","","","","","","","","","","","","","","","NaN",""
"","S1","","html-keyboard-response","286","371915","0.0-1.0-398.0","0","0","91759","","null","","","null","44","","","","","","","","","","","","","","","",""
"","ISI","","html-keyboard-response","287","373917","0.0-1.0-399.0","0","0","91759","","null","","","null","44","NaN","","","","","","","","","","","","","","",""
"","S2","","html-keyboard-response","288","374170","0.0-1.0-400.0","0","0","91759","","null","","","null","44","","NaN","","","","","","","","","","","","","",""
"","response","","html-keyboard-response","289","374604","0.0-1.0-401.0-0.0","0","0","91759","","433","","","75","44","","","1","44","training","adjacent","DE","4","5","R.jpg","N.jpg","1","1","1","",""
"","feedback","","html-keyboard-response","290","375606","0.0-1.0-402.0-0.0","0","0","91759","","null","","","null","44","","","","","","","","","","","","","","","",""
"","ITI","","html-keyboard-response","291","376609","0.0-1.0-405.0","0","0","91759","","null","","","null","44","","","","","","","","","","","","","","","NaN",""
"","S1","","html-keyboard-response","292","376861","0.0-1.0-407.0","0","0","91759","","null","","","null","45","","","","","","","","","","","","","","","",""
"","ISI","","html-keyboard-response","293","378864","0.0-1.0-408.0","0","0","91759","","null","","","null","45","NaN","","","","","","","","","","","","","","",""
"","S2","","html-keyboard-response","294","379117","0.0-1.0-409.0","0","0","91759","","null","","","null","45","","NaN","","","","","","","","","","","","","",""
"","response","","html-keyboard-response","295","379701","0.0-1.0-410.0-0.0","0","0","91759","","583","","","75","45","","","1","45","training","adjacent","EF","5","6","N.jpg","P.jpg","1","1","1","",""
"","feedback","","html-keyboard-response","296","380705","0.0-1.0-411.0-0.0","0","0","91759","","null","","","null","45","","","","","","","","","","","","","","","",""
"","ITI","","html-keyboard-response","297","381708","0.0-1.0-414.0","0","0","91759","","null","","","null","45","","","","","","","","","","","","","","","NaN",""
"","S1","","html-keyboard-response","298","381961","0.0-1.0-416.0","0","0","91759","","null","","","null","46","","","","","","","","","","","","","","","",""
"","ISI","","html-keyboard-response","299","383963","0.0-1.0-417.0","0","0","91759","","null","","","null","46","NaN","","","","","","","","","","","","","","",""
"","S2","","html-keyboard-response","300","384215","0.0-1.0-418.0","0","0","91759","","null","","","null","46","","NaN","","","","","","","","","","","","","",""
"","response","","html-keyboard-response","301","384513","0.0-1.0-419.0-0.0","0","0","91759","","297","","","75","46","","","1","46","training","adjacent","BA","2","1","Q.jpg","M.jpg","1","0","0","",""
"","feedback","","html-keyboard-response","302","385516","0.0-1.0-420.0-0.0","0","0","91759","","null","","","null","46","","","","","","","","","","","","","","","",""
"","time_out","","html-keyboard-response","303","387518","0.0-1.0-422.0-0.0","0","0","91759","","null","","","null","46","","","","","","","","","","","","","","","",""
"","ITI","","html-keyboard-response","304","388520","0.0-1.0-423.0","0","0","91759","","null","","","null","46","","","","","","","","","","","","","","","NaN",""
"","S1","","html-keyboard-response","305","388772","0.0-1.0-425.0","0","0","91759","","null","","","null","47","","","","","","","","","","","","","","","",""
"","ISI","","html-keyboard-response","306","390775","0.0-1.0-426.0","0","0","91759","","null","","","null","47","NaN","","","","","","","","","","","","","","",""
"","S2","","html-keyboard-response","307","391028","0.0-1.0-427.0","0","0","91759","","null","","","null","47","","NaN","","","","","","","","","","","","","",""
"","response","","html-keyboard-response","308","391403","0.0-1.0-428.0-0.0","0","0","91759","","373","","","75","47","","","1","47","training","adjacent","CD","3","4","O.jpg","R.jpg","1","1","1","",""
"","feedback","","html-keyboard-response","309","392406","0.0-1.0-429.0-0.0","0","0","91759","","null","","","null","47","","","","","","","","","","","","","","","",""
"","ITI","","html-keyboard-response","310","393409","0.0-1.0-432.0","0","0","91759","","null","","","null","47","","","","","","","","","","","","","","","NaN",""
"","block_over","","html-keyboard-response","311","407406","0.0-1.0-433.0-0.0","0","0","91759","","13995","","","32","47","","","","","","","","","","","","","","","",""
"","S1","","html-keyboard-response","312","407659","0.0-1.0-434.0","0","0","91759","","null","","","null","48","","","","","","","","","","","","","","","",""
"","ISI","","html-keyboard-response","313","409661","0.0-1.0-435.0","0","0","91759","","null","","","null","48","NaN","","","","","","","","","","","","","","",""
"","S2","","html-keyboard-response","314","409913","0.0-1.0-436.0","0","0","91759","","null","","","null","48","","NaN","","","","","","","","","","","","","",""
"","response","","html-keyboard-response","315","410560","0.0-1.0-437.0-0.0","0","0","91759","","644","","","75","48","","","2","48","training","adjacent","CD","3","4","O.jpg","R.jpg","1","1","1","",""
"","feedback","","html-keyboard-response","316","411570","0.0-1.0-438.0-0.0","0","0","91759","","null","","","null","48","","","","","","","","","","","","","","","",""
"","ITI","","html-keyboard-response","317","412574","0.0-1.0-441.0","0","0","91759","","null","","","null","48","","","","","","","","","","","","","","","NaN",""
"","S1","","html-keyboard-response","318","412826","0.0-1.0-443.0","0","0","91759","","null","","","null","49","","","","","","","","","","","","","","","",""
"","ISI","","html-keyboard-response","319","414829","0.0-1.0-444.0","0","0","91759","","null","","","null","49","NaN","","","","","","","","","","","","","","",""
"","S2","","html-keyboard-response","320","415082","0.0-1.0-445.0","0","0","91759","","null","","","null","49","","NaN","","","","","","","","","","","","","",""
"","response","","html-keyboard-response","321","415155","0.0-1.0-446.0-0.0","0","0","91759","","71","","","68","49","","","2","49","training","adjacent","AB","1","2","M.jpg","Q.jpg","0","1","0","",""
"","feedback","","html-keyboard-response","322","416158","0.0-1.0-447.0-0.0","0","0","91759","","null","","","null","49","","","","","","","","","","","","","","","",""
"","time_out","","html-keyboard-response","323","418161","0.0-1.0-449.0-0.0","0","0","91759","","null","","","null","49","","","","","","","","","","","","","","","",""
"","ITI","","html-keyboard-response","324","419164","0.0-1.0-450.0","0","0","91759","","null","","","null","49","","","","","","","","","","","","","","","NaN",""
"","S1","","html-keyboard-response","325","419417","0.0-1.0-452.0","0","0","91759","","null","","","null","50","","","","","","","","","","","","","","","",""
"","ISI","","html-keyboard-response","326","421420","0.0-1.0-453.0","0","0","91759","","null","","","null","50","NaN","","","","","","","","","","","","","","",""
"","S2","","html-keyboard-response","327","421673","0.0-1.0-454.0","0","0","91759","","null","","","null","50","","NaN","","","","","","","","","","","","","",""
"","response","","html-keyboard-response","328","422148","0.0-1.0-455.0-0.0","0","0","91759","","474","","","75","50","","","2","50","training","adjacent","FG","6","7","P.jpg","L.jpg","1","1","1","",""
"","feedback","","html-keyboard-response","329","423152","0.0-1.0-456.0-0.0","0","0","91759","","null","","","null","50","","","","","","","","","","","","","","","",""
"","ITI","","html-keyboard-response","330","424155","0.0-1.0-459.0","0","0","91759","","null","","","null","50","","","","","","","","","","","","","","","NaN",""
"","S1","","html-keyboard-response","331","424408","0.0-1.0-461.0","0","0","91759","","null","","","null","51","","","","","","","","","","","","","","","",""
"","ISI","","html-keyboard-response","332","426410","0.0-1.0-462.0","0","0","91759","","null","","","null","51","NaN","","","","","","","","","","","","","","",""
"","S2","","html-keyboard-response","333","426663","0.0-1.0-463.0","0","0","91759","","null","","","null","51","","NaN","","","","","","","","","","","","","",""
"","response","","html-keyboard-response","334","426795","0.0-1.0-464.0-0.0","0","0","91759","","130","","","75","51","","","2","51","training","adjacent","GF","7","6","L.jpg","P.jpg","1","0","0","",""
"","feedback","","html-keyboard-response","335","427797","0.0-1.0-465.0-0.0","0","0","91759","","null","","","null","51","","","","","","","","","","","","","","","",""
"","time_out","","html-keyboard-response","336","429799","0.0-1.0-467.0-0.0","0","0","91759","","null","","","null","51","","","","","","","","","","","","","","","",""
"","ITI","","html-keyboard-response","337","430802","0.0-1.0-468.0","0","0","91759","","null","","","null","51","","","","","","","","","","","","","","","NaN",""
"","S1","","html-keyboard-response","338","431054","0.0-1.0-470.0","0","0","91759","","null","","","null","52","","","","","","","","","","","","","","","",""
"","ISI","","html-keyboard-response","339","433056","0.0-1.0-471.0","0","0","91759","","null","","","null","52","NaN","","","","","","","","","","","","","","",""
"","S2","","html-keyboard-response","340","433309","0.0-1.0-472.0","0","0","91759","","null","","","null","52","","NaN","","","","","","","","","","","","","",""
"","response","","html-keyboard-response","341","433722","0.0-1.0-473.0-0.0","0","0","91759","","410","","","68","52","","","2","52","training","adjacent","CD","3","4","O.jpg","R.jpg","0","1","0","",""
"","feedback","","html-keyboard-response","342","434724","0.0-1.0-474.0-0.0","0","0","91759","","null","","","null","52","","","","","","","","","","","","","","","",""
"","time_out","","html-keyboard-response","343","436726","0.0-1.0-476.0-0.0","0","0","91759","","null","","","null","52","","","","","","","","","","","","","","","",""
"","ITI","","html-keyboard-response","344","437729","0.0-1.0-477.0","0","0","91759","","null","","","null","52","","","","","","","","","","","","","","","NaN",""
"","S1","","html-keyboard-response","345","437981","0.0-1.0-479.0","0","0","91759","","null","","","null","53","","","","","","","","","","","","","","","",""
"","ISI","","html-keyboard-response","346","439984","0.0-1.0-480.0","0","0","91759","","null","","","null","53","NaN","","","","","","","","","","","","","","",""
"","S2","","html-keyboard-response","347","440237","0.0-1.0-481.0","0","0","91759","","null","","","null","53","","NaN","","","","","","","","","","","","","",""
"","response","","html-keyboard-response","348","440591","0.0-1.0-482.0-0.0","0","0","91759","","353","","","75","53","","","2","53","training","adjacent","FG","6","7","P.jpg","L.jpg","1","1","1","",""
"","feedback","","html-keyboard-response","349","441594","0.0-1.0-483.0-0.0","0","0","91759","","null","","","null","53","","","","","","","","","","","","","","","",""
"","ITI","","html-keyboard-response","350","442596","0.0-1.0-486.0","0","0","91759","","null","","","null","53","","","","","","","","","","","","","","","NaN",""
"","S1","","html-keyboard-response","351","442848","0.0-1.0-488.0","0","0","91759","","null","","","null","54","","","","","","","","","","","","","","","",""
"","ISI","","html-keyboard-response","352","444850","0.0-1.0-489.0","0","0","91759","","null","","","null","54","NaN","","","","","","","","","","","","","","",""
"","S2","","html-keyboard-response","353","445103","0.0-1.0-490.0","0","0","91759","","null","","","null","54","","NaN","","","","","","","","","","","","","",""
"","response","","html-keyboard-response","354","445535","0.0-1.0-491.0-0.0","0","0","91759","","431","","","75","54","","","2","54","training","adjacent","EF","5","6","N.jpg","P.jpg","1","1","1","",""
"","feedback","","html-keyboard-response","355","446538","0.0-1.0-492.0-0.0","0","0","91759","","null","","","null","54","","","","","","","","","","","","","","","",""
"","ITI","","html-keyboard-response","356","447540","0.0-1.0-495.0","0","0","91759","","null","","","null","54","","","","","","","","","","","","","","","NaN",""
"","S1","","html-keyboard-response","357","447793","0.0-1.0-497.0","0","0","91759","","null","","","null","55","","","","","","","","","","","","","","","",""
"","ISI","","html-keyboard-response","358","449796","0.0-1.0-498.0","0","0","91759","","null","","","null","55","NaN","","","","","","","","","","","","","","",""
"","S2","","html-keyboard-response","359","450048","0.0-1.0-499.0","0","0","91759","","null","","","null","55","","NaN","","","","","","","","","","","","","",""
"","response","","html-keyboard-response","360","450129","0.0-1.0-500.0-0.0","0","0","91759","","79","","","68","55","","","2","55","training","adjacent","AB","1","2","M.jpg","Q.jpg","0","1","0","",""
"","feedback","","html-keyboard-response","361","451132","0.0-1.0-501.0-0.0","0","0","91759","","null","","","null","55","","","","","","","","","","","","","","","",""
"","time_out","","html-keyboard-response","362","453134","0.0-1.0-503.0-0.0","0","0","91759","","null","","","null","55","","","","","","","","","","","","","","","",""
"","ITI","","html-keyboard-response","363","454136","0.0-1.0-504.0","0","0","91759","","null","","","null","55","","","","","","","","","","","","","","","NaN",""
"","S1","","html-keyboard-response","364","454389","0.0-1.0-506.0","0","0","91759","","null","","","null","56","","","","","","","","","","","","","","","",""
"","ISI","","html-keyboard-response","365","456392","0.0-1.0-507.0","0","0","91759","","null","","","null","56","NaN","","","","","","","","","","","","","","",""
"","S2","","html-keyboard-response","366","456644","0.0-1.0-508.0","0","0","91759","","null","","","null","56","","NaN","","","","","","","","","","","","","",""
"","response","","html-keyboard-response","367","456797","0.0-1.0-509.0-0.0","0","0","91759","","151","","","75","56","","","2","56","training","adjacent","DC","4","3","R.jpg","O.jpg","1","0","0","",""
"","feedback","","html-keyboard-response","368","457801","0.0-1.0-510.0-0.0","0","0","91759","","null","","","null","56","","","","","","","","","","","","","","","",""
"","time_out","","html-keyboard-response","369","459804","0.0-1.0-512.0-0.0","0","0","91759","","null","","","null","56","","","","","","","","","","","","","","","",""
"","ITI","","html-keyboard-response","370","460807","0.0-1.0-513.0","0","0","91759","","null","","","null","56","","","","","","","","","","","","","","","NaN",""
"","S1","","html-keyboard-response","371","461059","0.0-1.0-515.0","0","0","91759","","null","","","null","57","","","","","","","","","","","","","","","",""
"","ISI","","html-keyboard-response","372","463061","0.0-1.0-516.0","0","0","91759","","null","","","null","57","NaN","","","","","","","","","","","","","","",""
"","S2","","html-keyboard-response","373","463313","0.0-1.0-517.0","0","0","91759","","null","","","null","57","","NaN","","","","","","","","","","","","","",""
"","response","","html-keyboard-response","374","463647","0.0-1.0-518.0-0.0","0","0","91759","","333","","","75","57","","","2","57","training","adjacent","FG","6","7","P.jpg","L.jpg","1","1","1","",""
"","feedback","","html-keyboard-response","375","464650","0.0-1.0-519.0-0.0","0","0","91759","","null","","","null","57","","","","","","","","","","","","","","","",""
"","ITI","","html-keyboard-response","376","465652","0.0-1.0-522.0","0","0","91759","","null","","","null","57","","","","","","","","","","","","","","","NaN",""
"","S1","","html-keyboard-response","377","465904","0.0-1.0-524.0","0","0","91759","","null","","","null","58","","","","","","","","","","","","","","","",""
"","ISI","","html-keyboard-response","378","467907","0.0-1.0-525.0","0","0","91759","","null","","","null","58","NaN","","","","","","","","","","","","","","",""
"","S2","","html-keyboard-response","379","468159","0.0-1.0-526.0","0","0","91759","","null","","","null","58","","NaN","","","","","","","","","","","","","",""
"","response","","html-keyboard-response","380","468359","0.0-1.0-527.0-0.0","0","0","91759","","198","","","75","58","","","2","58","training","adjacent","ED","5","4","N.jpg","R.jpg","1","0","0","",""
"","feedback","","html-keyboard-response","381","469363","0.0-1.0-528.0-0.0","0","0","91759","","null","","","null","58","","","","","","","","","","","","","","","",""
"","time_out","","html-keyboard-response","382","471366","0.0-1.0-530.0-0.0","0","0","91759","","null","","","null","58","","","","","","","","","","","","","","","",""
"","ITI","","html-keyboard-response","383","472369","0.0-1.0-531.0","0","0","91759","","null","","","null","58","","","","","","","","","","","","","","","NaN",""
"","S1","","html-keyboard-response","384","472622","0.0-1.0-533.0","0","0","91759","","null","","","null","59","","","","","","","","","","","","","","","",""
"","ISI","","html-keyboard-response","385","474625","0.0-1.0-534.0","0","0","91759","","null","","","null","59","NaN","","","","","","","","","","","","","","",""
"","S2","","html-keyboard-response","386","474878","0.0-1.0-535.0","0","0","91759","","null","","","null","59","","NaN","","","","","","","","","","","","","",""
"","response","","html-keyboard-response","387","475305","0.0-1.0-536.0-0.0","0","0","91759","","426","","","75","59","","","2","59","training","adjacent","FE","6","5","P.jpg","N.jpg","1","0","0","",""
"","feedback","","html-keyboard-response","388","476308","0.0-1.0-537.0-0.0","0","0","91759","","null","","","null","59","","","","","","","","","","","","","","","",""
"","time_out","","html-keyboard-response","389","478311","0.0-1.0-539.0-0.0","0","0","91759","","null","","","null","59","","","","","","","","","","","","","","","",""
"","ITI","","html-keyboard-response","390","479313","0.0-1.0-540.0","0","0","91759","","null","","","null","59","","","","","","","","","","","","","","","NaN",""
"","S1","","html-keyboard-response","391","479565","0.0-1.0-542.0","0","0","91759","","null","","","null","60","","","","","","","","","","","","","","","",""
"","ISI","","html-keyboard-response","392","481568","0.0-1.0-543.0","0","0","91759","","null","","","null","60","NaN","","","","","","","","","","","","","","",""
"","S2","","html-keyboard-response","393","481820","0.0-1.0-544.0","0","0","91759","","null","","","null","60","","NaN","","","","","","","","","","","","","",""
"","response","","html-keyboard-response","394","482273","0.0-1.0-545.0-0.0","0","0","91759","","451","","","75","60","","","2","60","training","adjacent","BC","2","3","Q.jpg","O.jpg","1","1","1","",""
"","feedback","","html-keyboard-response","395","483277","0.0-1.0-546.0-0.0","0","0","91759","","null","","","null","60","","","","","","","","","","","","","","","",""
"","ITI","","html-keyboard-response","396","484280","0.0-1.0-549.0","0","0","91759","","null","","","null","60","","","","","","","","","","","","","","","NaN",""
"","S1","","html-keyboard-response","397","484532","0.0-1.0-551.0","0","0","91759","","null","","","null","61","","","","","","","","","","","","","","","",""
"","ISI","","html-keyboard-response","398","486535","0.0-1.0-552.0","0","0","91759","","null","","","null","61","NaN","","","","","","","","","","","","","","",""
"","S2","","html-keyboard-response","399","486787","0.0-1.0-553.0","0","0","91759","","null","","","null","61","","NaN","","","","","","","","","","","","","",""
"","response","","html-keyboard-response","400","487119","0.0-1.0-554.0-0.0","0","0","91759","","330","","","68","61","","","2","61","training","adjacent","DE","4","5","R.jpg","N.jpg","0","1","0","",""
"","feedback","","html-keyboard-response","401","488121","0.0-1.0-555.0-0.0","0","0","91759","","null","","","null","61","","","","","","","","","","","","","","","",""
"","time_out","","html-keyboard-response","402","490124","0.0-1.0-557.0-0.0","0","0","91759","","null","","","null","61","","","","","","","","","","","","","","","",""
"","ITI","","html-keyboard-response","403","491127","0.0-1.0-558.0","0","0","91759","","null","","","null","61","","","","","","","","","","","","","","","NaN",""
"","S1","","html-keyboard-response","404","491388","0.0-1.0-560.0","0","0","91759","","null","","","null","62","","","","","","","","","","","","","","","",""
"","ISI","","html-keyboard-response","405","493391","0.0-1.0-561.0","0","0","91759","","null","","","null","62","NaN","","","","","","","","","","","","","","",""
"","S2","","html-keyboard-response","406","493643","0.0-1.0-562.0","0","0","91759","","null","","","null","62","","NaN","","","","","","","","","","","","","",""
"","response","","html-keyboard-response","407","494087","0.0-1.0-563.0-0.0","0","0","91759","","442","","","68","62","","","2","62","training","adjacent","DC","4","3","R.jpg","O.jpg","0","0","1","",""
"","feedback","","html-keyboard-response","408","495091","0.0-1.0-564.0-0.0","0","0","91759","","null","","","null","62","","","","","","","","","","","","","","","",""
"","ITI","","html-keyboard-response","409","496094","0.0-1.0-567.0","0","0","91759","","null","","","null","62","","","","","","","","","","","","","","","NaN",""
"","S1","","html-keyboard-response","410","496346","0.0-1.0-569.0","0","0","91759","","null","","","null","63","","","","","","","","","","","","","","","",""
"","ISI","","html-keyboard-response","411","498349","0.0-1.0-570.0","0","0","91759","","null","","","null","63","NaN","","","","","","","","","","","","","","",""
"","S2","","html-keyboard-response","412","498601","0.0-1.0-571.0","0","0","91759","","null","","","null","63","","NaN","","","","","","","","","","","","","",""
"","response","","html-keyboard-response","413","499017","0.0-1.0-572.0-0.0","0","0","91759","","415","","","75","63","","","2","63","training","adjacent","ED","5","4","N.jpg","R.jpg","1","0","0","",""
"","feedback","","html-keyboard-response","414","500020","0.0-1.0-573.0-0.0","0","0","91759","","null","","","null","63","","","","","","","","","","","","","","","",""
"","time_out","","html-keyboard-response","415","502022","0.0-1.0-575.0-0.0","0","0","91759","","null","","","null","63","","","","","","","","","","","","","","","",""
"","ITI","","html-keyboard-response","416","503025","0.0-1.0-576.0","0","0","91759","","null","","","null","63","","","","","","","","","","","","","","","NaN",""
"","S1","","html-keyboard-response","417","503278","0.0-1.0-578.0","0","0","91759","","null","","","null","64","","","","","","","","","","","","","","","",""
"","ISI","","html-keyboard-response","418","505281","0.0-1.0-579.0","0","0","91759","","null","","","null","64","NaN","","","","","","","","","","","","","","",""
"","S2","","html-keyboard-response","419","505534","0.0-1.0-580.0","0","0","91759","","null","","","null","64","","NaN","","","","","","","","","","","","","",""
"","response","","html-keyboard-response","420","505980","0.0-1.0-581.0-0.0","0","0","91759","","444","","","75","64","","","2","64","training","adjacent","CD","3","4","O.jpg","R.jpg","1","1","1","",""
"","feedback","","html-keyboard-response","421","506983","0.0-1.0-582.0-0.0","0","0","91759","","null","","","null","64","","","","","","","","","","","","","","","",""
"","ITI","","html-keyboard-response","422","507986","0.0-1.0-585.0","0","0","91759","","null","","","null","64","","","","","","","","","","","","","","","NaN",""
"","S1","","html-keyboard-response","423","508239","0.0-1.0-587.0","0","0","91759","","null","","","null","65","","","","","","","","","","","","","","","",""
"","ISI","","html-keyboard-response","424","510241","0.0-1.0-588.0","0","0","91759","","null","","","null","65","NaN","","","","","","","","","","","","","","",""
"","S2","","html-keyboard-response","425","510495","0.0-1.0-589.0","0","0","91759","","null","","","null","65","","NaN","","","","","","","","","","","","","",""
"","response","","html-keyboard-response","426","510843","0.0-1.0-590.0-0.0","0","0","91759","","346","","","68","65","","","2","65","training","adjacent","ED","5","4","N.jpg","R.jpg","0","0","1","",""
"","feedback","","html-keyboard-response","427","511846","0.0-1.0-591.0-0.0","0","0","91759","","null","","","null","65","","","","","","","","","","","","","","","",""
"","ITI","","html-keyboard-response","428","512849","0.0-1.0-594.0","0","0","91759","","null","","","null","65","","","","","","","","","","","","","","","NaN",""
"","S1","","html-keyboard-response","429","513101","0.0-1.0-596.0","0","0","91759","","null","","","null","66","","","","","","","","","","","","","","","",""
"","ISI","","html-keyboard-response","430","515103","0.0-1.0-597.0","0","0","91759","","null","","","null","66","NaN","","","","","","","","","","","","","","",""
"","S2","","html-keyboard-response","431","515356","0.0-1.0-598.0","0","0","91759","","null","","","null","66","","NaN","","","","","","","","","","","","","",""
"","response","","html-keyboard-response","432","515727","0.0-1.0-599.0-0.0","0","0","91759","","370","","","75","66","","","2","66","training","adjacent","BA","2","1","Q.jpg","M.jpg","1","0","0","",""
"","feedback","","html-keyboard-response","433","516730","0.0-1.0-600.0-0.0","0","0","91759","","null","","","null","66","","","","","","","","","","","","","","","",""
"","time_out","","html-keyboard-response","434","518733","0.0-1.0-602.0-0.0","0","0","91759","","null","","","null","66","","","","","","","","","","","","","","","",""
"","ITI","","html-keyboard-response","435","519735","0.0-1.0-603.0","0","0","91759","","null","","","null","66","","","","","","","","","","","","","","","NaN",""
"","S1","","html-keyboard-response","436","519988","0.0-1.0-605.0","0","0","91759","","null","","","null","67","","","","","","","","","","","","","","","",""
"","ISI","","html-keyboard-response","437","521991","0.0-1.0-606.0","0","0","91759","","null","","","null","67","NaN","","","","","","","","","","","","","","",""
"","S2","","html-keyboard-response","438","522244","0.0-1.0-607.0","0","0","91759","","null","","","null","67","","NaN","","","","","","","","","","","","","",""
"","response","","html-keyboard-response","439","522575","0.0-1.0-608.0-0.0","0","0","91759","","329","","","75","67","","","2","67","training","adjacent","FE","6","5","P.jpg","N.jpg","1","0","0","",""
"","feedback","","html-keyboard-response","440","523579","0.0-1.0-609.0-0.0","0","0","91759","","null","","","null","67","","","","","","","","","","","","","","","",""
"","time_out","","html-keyboard-response","441","525582","0.0-1.0-611.0-0.0","0","0","91759","","null","","","null","67","","","","","","","","","","","","","","","",""
"","ITI","","html-keyboard-response","442","526584","0.0-1.0-612.0","0","0","91759","","null","","","null","67","","","","","","","","","","","","","","","NaN",""
"","S1","","html-keyboard-response","443","526837","0.0-1.0-614.0","0","0","91759","","null","","","null","68","","","","","","","","","","","","","","","",""
"","ISI","","html-keyboard-response","444","528840","0.0-1.0-615.0","0","0","91759","","null","","","null","68","NaN","","","","","","","","","","","","","","",""
"","S2","","html-keyboard-response","445","529092","0.0-1.0-616.0","0","0","91759","","null","","","null","68","","NaN","","","","","","","","","","","","","",""
"","response","","html-keyboard-response","446","529376","0.0-1.0-617.0-0.0","0","0","91759","","282","","","68","68","","","2","68","training","adjacent","BA","2","1","Q.jpg","M.jpg","0","0","1","",""
"","feedback","","html-keyboard-response","447","530379","0.0-1.0-618.0-0.0","0","0","91759","","null","","","null","68","","","","","","","","","","","","","","","",""
"","ITI","","html-keyboard-response","448","531381","0.0-1.0-621.0","0","0","91759","","null","","","null","68","","","","","","","","","","","","","","","NaN",""
"","S1","","html-keyboard-response","449","531633","0.0-1.0-623.0","0","0","91759","","null","","","null","69","","","","","","","","","","","","","","","",""
"","ISI","","html-keyboard-response","450","533635","0.0-1.0-624.0","0","0","91759","","null","","","null","69","NaN","","","","","","","","","","","","","","",""
"","S2","","html-keyboard-response","451","533888","0.0-1.0-625.0","0","0","91759","","null","","","null","69","","NaN","","","","","","","","","","","","","",""
"","response","","html-keyboard-response","452","534353","0.0-1.0-626.0-0.0","0","0","91759","","464","","","68","69","","","2","69","training","adjacent","CB","3","2","O.jpg","Q.jpg","0","0","1","",""
"","feedback","","html-keyboard-response","453","535356","0.0-1.0-627.0-0.0","0","0","91759","","null","","","null","69","","","","","","","","","","","","","","","",""
"","ITI","","html-keyboard-response","454","536358","0.0-1.0-630.0","0","0","91759","","null","","","null","69","","","","","","","","","","","","","","","NaN",""
"","S1","","html-keyboard-response","455","536610","0.0-1.0-632.0","0","0","91759","","null","","","null","70","","","","","","","","","","","","","","","",""
"","ISI","","html-keyboard-response","456","538612","0.0-1.0-633.0","0","0","91759","","null","","","null","70","NaN","","","","","","","","","","","","","","",""
"","S2","","html-keyboard-response","457","538865","0.0-1.0-634.0","0","0","91759","","null","","","null","70","","NaN","","","","","","","","","","","","","",""
"","response","","html-keyboard-response","458","539246","0.0-1.0-635.0-0.0","0","0","91759","","380","","","75","70","","","2","70","training","adjacent","EF","5","6","N.jpg","P.jpg","1","1","1","",""
"","feedback","","html-keyboard-response","459","540249","0.0-1.0-636.0-0.0","0","0","91759","","null","","","null","70","","","","","","","","","","","","","","","",""
"","ITI","","html-keyboard-response","460","541252","0.0-1.0-639.0","0","0","91759","","null","","","null","70","","","","","","","","","","","","","","","NaN",""
"","S1","","html-keyboard-response","461","541504","0.0-1.0-641.0","0","0","91759","","null","","","null","71","","","","","","","","","","","","","","","",""
"","ISI","","html-keyboard-response","462","543507","0.0-1.0-642.0","0","0","91759","","null","","","null","71","NaN","","","","","","","","","","","","","","",""
"","S2","","html-keyboard-response","463","543759","0.0-1.0-643.0","0","0","91759","","null","","","null","71","","NaN","","","","","","","","","","","","","",""
"","response","","html-keyboard-response","464","544298","0.0-1.0-644.0-0.0","0","0","91759","","537","","","68","71","","","2","71","training","adjacent","FE","6","5","P.jpg","N.jpg","0","0","1","",""
"","feedback","","html-keyboard-response","465","545302","0.0-1.0-645.0-0.0","0","0","91759","","null","","","null","71","","","","","","","","","","","","","","","",""
"","ITI","","html-keyboard-response","466","546305","0.0-1.0-648.0","0","0","91759","","null","","","null","71","","","","","","","","","","","","","","","NaN",""
"","S1","","html-keyboard-response","467","546558","0.0-1.0-650.0","0","0","91759","","null","","","null","72","","","","","","","","","","","","","","","",""
"","ISI","","html-keyboard-response","468","548560","0.0-1.0-651.0","0","0","91759","","null","","","null","72","NaN","","","","","","","","","","","","","","",""
"","S2","","html-keyboard-response","469","548813","0.0-1.0-652.0","0","0","91759","","null","","","null","72","","NaN","","","","","","","","","","","","","",""
"","response","","html-keyboard-response","470","549137","0.0-1.0-653.0-0.0","0","0","91759","","322","","","68","72","","","2","72","training","adjacent","BA","2","1","Q.jpg","M.jpg","0","0","1","",""
"","feedback","","html-keyboard-response","471","550140","0.0-1.0-654.0-0.0","0","0","91759","","null","","","null","72","","","","","","","","","","","","","","","",""
"","ITI","","html-keyboard-response","472","551143","0.0-1.0-657.0","0","0","91759","","null","","","null","72","","","","","","","","","","","","","","","NaN",""
"","S1","","html-keyboard-response","473","551395","0.0-1.0-659.0","0","0","91759","","null","","","null","73","","","","","","","","","","","","","","","",""
"","ISI","","html-keyboard-response","474","553398","0.0-1.0-660.0","0","0","91759","","null","","","null","73","NaN","","","","","","","","","","","","","","",""
"","S2","","html-keyboard-response","475","553651","0.0-1.0-661.0","0","0","91759","","null","","","null","73","","NaN","","","","","","","","","","","","","",""
"","response","","html-keyboard-response","476","553976","0.0-1.0-662.0-0.0","0","0","91759","","324","","","75","73","","","2","73","training","adjacent","BC","2","3","Q.jpg","O.jpg","1","1","1","",""
"","feedback","","html-keyboard-response","477","554979","0.0-1.0-663.0-0.0","0","0","91759","","null","","","null","73","","","","","","","","","","","","","","","",""
"","ITI","","html-keyboard-response","478","555981","0.0-1.0-666.0","0","0","91759","","null","","","null","73","","","","","","","","","","","","","","","NaN",""
"","S1","","html-keyboard-response","479","556234","0.0-1.0-668.0","0","0","91759","","null","","","null","74","","","","","","","","","","","","","","","",""
"","ISI","","html-keyboard-response","480","558237","0.0-1.0-669.0","0","0","91759","","null","","","null","74","NaN","","","","","","","","","","","","","","",""
"","S2","","html-keyboard-response","481","558489","0.0-1.0-670.0","0","0","91759","","null","","","null","74","","NaN","","","","","","","","","","","","","",""
"","response","","html-keyboard-response","482","558614","0.0-1.0-671.0-0.0","0","0","91759","","124","","","75","74","","","2","74","training","adjacent","CB","3","2","O.jpg","Q.jpg","1","0","0","",""
"","feedback","","html-keyboard-response","483","559617","0.0-1.0-672.0-0.0","0","0","91759","","null","","","null","74","","","","","","","","","","","","","","","",""
"","time_out","","html-keyboard-response","484","561619","0.0-1.0-674.0-0.0","0","0","91759","","null","","","null","74","","","","","","","","","","","","","","","",""
"","ITI","","html-keyboard-response","485","562621","0.0-1.0-675.0","0","0","91759","","null","","","null","74","","","","","","","","","","","","","","","NaN",""
"","S1","","html-keyboard-response","486","562873","0.0-1.0-677.0","0","0","91759","","null","","","null","75","","","","","","","","","","","","","","","",""
"","ISI","","html-keyboard-response","487","564875","0.0-1.0-678.0","0","0","91759","","null","","","null","75","NaN","","","","","","","","","","","","","","",""
"","S2","","html-keyboard-response","488","565128","0.0-1.0-679.0","0","0","91759","","null","","","null","75","","NaN","","","","","","","","","","","","","",""
"","response","","html-keyboard-response","489","565505","0.0-1.0-680.0-0.0","0","0","91759","","375","","","75","75","","","2","75","training","adjacent","ED","5","4","N.jpg","R.jpg","1","0","0","",""
"","feedback","","html-keyboard-response","490","566508","0.0-1.0-681.0-0.0","0","0","91759","","null","","","null","75","","","","","","","","","","","","","","","",""
"","time_out","","html-keyboard-response","491","568511","0.0-1.0-683.0-0.0","0","0","91759","","null","","","null","75","","","","","","","","","","","","","","","",""
"","ITI","","html-keyboard-response","492","569512","0.0-1.0-684.0","0","0","91759","","null","","","null","75","","","","","","","","","","","","","","","NaN",""
"","S1","","html-keyboard-response","493","569765","0.0-1.0-686.0","0","0","91759","","null","","","null","76","","","","","","","","","","","","","","","",""
"","ISI","","html-keyboard-response","494","571767","0.0-1.0-687.0","0","0","91759","","null","","","null","76","NaN","","","","","","","","","","","","","","",""
"","S2","","html-keyboard-response","495","572021","0.0-1.0-688.0","0","0","91759","","null","","","null","76","","NaN","","","","","","","","","","","","","",""
"","response","","html-keyboard-response","496","572384","0.0-1.0-689.0-0.0","0","0","91759","","362","","","68","76","","","2","76","training","adjacent","FE","6","5","P.jpg","N.jpg","0","0","1","",""
"","feedback","","html-keyboard-response","497","573387","0.0-1.0-690.0-0.0","0","0","91759","","null","","","null","76","","","","","","","","","","","","","","","",""
"","ITI","","html-keyboard-response","498","574390","0.0-1.0-693.0","0","0","91759","","null","","","null","76","","","","","","","","","","","","","","","NaN",""
"","S1","","html-keyboard-response","499","574643","0.0-1.0-695.0","0","0","91759","","null","","","null","77","","","","","","","","","","","","","","","",""
"","ISI","","html-keyboard-response","500","576646","0.0-1.0-696.0","0","0","91759","","null","","","null","77","NaN","","","","","","","","","","","","","","",""
"","S2","","html-keyboard-response","501","576899","0.0-1.0-697.0","0","0","91759","","null","","","null","77","","NaN","","","","","","","","","","","","","",""
"","response","","html-keyboard-response","502","577535","0.0-1.0-698.0-0.0","0","0","91759","","633","","","75","77","","","2","77","training","adjacent","AB","1","2","M.jpg","Q.jpg","1","1","1","",""
"","feedback","","html-keyboard-response","503","578538","0.0-1.0-699.0-0.0","0","0","91759","","null","","","null","77","","","","","","","","","","","","","","","",""
"","ITI","","html-keyboard-response","504","579540","0.0-1.0-702.0","0","0","91759","","null","","","null","77","","","","","","","","","","","","","","","NaN",""
"","S1","","html-keyboard-response","505","579794","0.0-1.0-704.0","0","0","91759","","null","","","null","78","","","","","","","","","","","","","","","",""
"","ISI","","html-keyboard-response","506","581796","0.0-1.0-705.0","0","0","91759","","null","","","null","78","NaN","","","","","","","","","","","","","","",""
"","S2","","html-keyboard-response","507","582048","0.0-1.0-706.0","0","0","91759","","null","","","null","78","","NaN","","","","","","","","","","","","","",""
"","response","","html-keyboard-response","508","582674","0.0-1.0-707.0-0.0","0","0","91759","","624","","","68","78","","","2","78","training","adjacent","DE","4","5","R.jpg","N.jpg","0","1","0","",""
"","feedback","","html-keyboard-response","509","583677","0.0-1.0-708.0-0.0","0","0","91759","","null","","","null","78","","","","","","","","","","","","","","","",""
"","time_out","","html-keyboard-response","510","585679","0.0-1.0-710.0-0.0","0","0","91759","","null","","","null","78","","","","","","","","","","","","","","","",""
"","ITI","","html-keyboard-response","511","586682","0.0-1.0-711.0","0","0","91759","","null","","","null","78","","","","","","","","","","","","","","","NaN",""
"","S1","","html-keyboard-response","512","586935","0.0-1.0-713.0","0","0","91759","","null","","","null","79","","","","","","","","","","","","","","","",""
"","ISI","","html-keyboard-response","513","588936","0.0-1.0-714.0","0","0","91759","","null","","","null","79","NaN","","","","","","","","","","","","","","",""
"","S2","","html-keyboard-response","514","589190","0.0-1.0-715.0","0","0","91759","","null","","","null","79","","NaN","","","","","","","","","","","","","",""
"","response","","html-keyboard-response","515","589529","0.0-1.0-716.0-0.0","0","0","91759","","337","","","68","79","","","2","79","training","adjacent","EF","5","6","N.jpg","P.jpg","0","1","0","",""
"","feedback","","html-keyboard-response","516","590531","0.0-1.0-717.0-0.0","0","0","91759","","null","","","null","79","","","","","","","","","","","","","","","",""
"","time_out","","html-keyboard-response","517","592534","0.0-1.0-719.0-0.0","0","0","91759","","null","","","null","79","","","","","","","","","","","","","","","",""
"","ITI","","html-keyboard-response","518","593536","0.0-1.0-720.0","0","0","91759","","null","","","null","79","","","","","","","","","","","","","","","NaN",""
"","S1","","html-keyboard-response","519","593789","0.0-1.0-722.0","0","0","91759","","null","","","null","80","","","","","","","","","","","","","","","",""
"","ISI","","html-keyboard-response","520","595791","0.0-1.0-723.0","0","0","91759","","null","","","null","80","NaN","","","","","","","","","","","","","","",""
"","S2","","html-keyboard-response","521","596043","0.0-1.0-724.0","0","0","91759","","null","","","null","80","","NaN","","","","","","","","","","","","","",""
"","response","","html-keyboard-response","522","596450","0.0-1.0-725.0-0.0","0","0","91759","","406","","","75","80","","","2","80","training","adjacent","GF","7","6","L.jpg","P.jpg","1","0","0","",""
"","feedback","","html-keyboard-response","523","597454","0.0-1.0-726.0-0.0","0","0","91759","","null","","","null","80","","","","","","","","","","","","","","","",""
"","time_out","","html-keyboard-response","524","599456","0.0-1.0-728.0-0.0","0","0","91759","","null","","","null","80","","","","","","","","","","","","","","","",""
"","ITI","","html-keyboard-response","525","600458","0.0-1.0-729.0","0","0","91759","","null","","","null","80","","","","","","","","","","","","","","","NaN",""
"","S1","","html-keyboard-response","526","600710","0.0-1.0-731.0","0","0","91759","","null","","","null","81","","","","","","","","","","","","","","","",""
"","ISI","","html-keyboard-response","527","602712","0.0-1.0-732.0","0","0","91759","","null","","","null","81","NaN","","","","","","","","","","","","","","",""
"","S2","","html-keyboard-response","528","602965","0.0-1.0-733.0","0","0","91759","","null","","","null","81","","NaN","","","","","","","","","","","","","",""
"","response","","html-keyboard-response","529","603155","0.0-1.0-734.0-0.0","0","0","91759","","188","","","75","81","","","2","81","training","adjacent","FG","6","7","P.jpg","L.jpg","1","1","1","",""
"","feedback","","html-keyboard-response","530","604158","0.0-1.0-735.0-0.0","0","0","91759","","null","","","null","81","","","","","","","","","","","","","","","",""
"","ITI","","html-keyboard-response","531","605160","0.0-1.0-738.0","0","0","91759","","null","","","null","81","","","","","","","","","","","","","","","NaN",""
"","S1","","html-keyboard-response","532","605412","0.0-1.0-740.0","0","0","91759","","null","","","null","82","","","","","","","","","","","","","","","",""
"","ISI","","html-keyboard-response","533","607415","0.0-1.0-741.0","0","0","91759","","null","","","null","82","NaN","","","","","","","","","","","","","","",""
"","S2","","html-keyboard-response","534","607668","0.0-1.0-742.0","0","0","91759","","null","","","null","82","","NaN","","","","","","","","","","","","","",""
"","response","","html-keyboard-response","535","607952","0.0-1.0-743.0-0.0","0","0","91759","","283","","","68","82","","","2","82","training","adjacent","CD","3","4","O.jpg","R.jpg","0","1","0","",""
"","feedback","","html-keyboard-response","536","608956","0.0-1.0-744.0-0.0","0","0","91759","","null","","","null","82","","","","","","","","","","","","","","","",""
"","time_out","","html-keyboard-response","537","610959","0.0-1.0-746.0-0.0","0","0","91759","","null","","","null","82","","","","","","","","","","","","","","","",""
"","ITI","","html-keyboard-response","538","611962","0.0-1.0-747.0","0","0","91759","","null","","","null","82","","","","","","","","","","","","","","","NaN",""
"","S1","","html-keyboard-response","539","612215","0.0-1.0-749.0","0","0","91759","","null","","","null","83","","","","","","","","","","","","","","","",""
"","ISI","","html-keyboard-response","540","614217","0.0-1.0-750.0","0","0","91759","","null","","","null","83","NaN","","","","","","","","","","","","","","",""
"","S2","","html-keyboard-response","541","614470","0.0-1.0-751.0","0","0","91759","","null","","","null","83","","NaN","","","","","","","","","","","","","",""
"","response","","html-keyboard-response","542","614734","0.0-1.0-752.0-0.0","0","0","91759","","262","","","68","83","","","2","83","training","adjacent","BA","2","1","Q.jpg","M.jpg","0","0","1","",""
"","feedback","","html-keyboard-response","543","615737","0.0-1.0-753.0-0.0","0","0","91759","","null","","","null","83","","","","","","","","","","","","","","","",""
"","ITI","","html-keyboard-response","544","616739","0.0-1.0-756.0","0","0","91759","","null","","","null","83","","","","","","","","","","","","","","","NaN",""
"","S1","","html-keyboard-response","545","616991","0.0-1.0-758.0","0","0","91759","","null","","","null","84","","","","","","","","","","","","","","","",""
"","ISI","","html-keyboard-response","546","618994","0.0-1.0-759.0","0","0","91759","","null","","","null","84","NaN","","","","","","","","","","","","","","",""
"","S2","","html-keyboard-response","547","619247","0.0-1.0-760.0","0","0","91759","","null","","","null","84","","NaN","","","","","","","","","","","","","",""
"","response","","html-keyboard-response","548","619688","0.0-1.0-761.0-0.0","0","0","91759","","440","","","75","84","","","2","84","training","adjacent","GF","7","6","L.jpg","P.jpg","1","0","0","",""
"","feedback","","html-keyboard-response","549","620690","0.0-1.0-762.0-0.0","0","0","91759","","null","","","null","84","","","","","","","","","","","","","","","",""
"","time_out","","html-keyboard-response","550","622693","0.0-1.0-764.0-0.0","0","0","91759","","null","","","null","84","","","","","","","","","","","","","","","",""
"","ITI","","html-keyboard-response","551","623695","0.0-1.0-765.0","0","0","91759","","null","","","null","84","","","","","","","","","","","","","","","NaN",""
"","S1","","html-keyboard-response","552","623948","0.0-1.0-767.0","0","0","91759","","null","","","null","85","","","","","","","","","","","","","","","",""
"","ISI","","html-keyboard-response","553","625951","0.0-1.0-768.0","0","0","91759","","null","","","null","85","NaN","","","","","","","","","","","","","","",""
"","S2","","html-keyboard-response","554","626203","0.0-1.0-769.0","0","0","91759","","null","","","null","85","","NaN","","","","","","","","","","","","","",""
"","response","","html-keyboard-response","555","626577","0.0-1.0-770.0-0.0","0","0","91759","","372","","","75","85","","","2","85","training","adjacent","GF","7","6","L.jpg","P.jpg","1","0","0","",""
"","feedback","","html-keyboard-response","556","627580","0.0-1.0-771.0-0.0","0","0","91759","","null","","","null","85","","","","","","","","","","","","","","","",""
"","time_out","","html-keyboard-response","557","629583","0.0-1.0-773.0-0.0","0","0","91759","","null","","","null","85","","","","","","","","","","","","","","","",""
"","ITI","","html-keyboard-response","558","630585","0.0-1.0-774.0","0","0","91759","","null","","","null","85","","","","","","","","","","","","","","","NaN",""
"","S1","","html-keyboard-response","559","630838","0.0-1.0-776.0","0","0","91759","","null","","","null","86","","","","","","","","","","","","","","","",""
"","ISI","","html-keyboard-response","560","632840","0.0-1.0-777.0","0","0","91759","","null","","","null","86","NaN","","","","","","","","","","","","","","",""
"","S2","","html-keyboard-response","561","633092","0.0-1.0-778.0","0","0","91759","","null","","","null","86","","NaN","","","","","","","","","","","","","",""
"","response","","html-keyboard-response","562","633459","0.0-1.0-779.0-0.0","0","0","91759","","366","","","68","86","","","2","86","training","adjacent","DE","4","5","R.jpg","N.jpg","0","1","0","",""
"","feedback","","html-keyboard-response","563","634461","0.0-1.0-780.0-0.0","0","0","91759","","null","","","null","86","","","","","","","","","","","","","","","",""
"","time_out","","html-keyboard-response","564","636464","0.0-1.0-782.0-0.0","0","0","91759","","null","","","null","86","","","","","","","","","","","","","","","",""
"","ITI","","html-keyboard-response","565","637466","0.0-1.0-783.0","0","0","91759","","null","","","null","86","","","","","","","","","","","","","","","NaN",""
"","S1","","html-keyboard-response","566","637718","0.0-1.0-785.0","0","0","91759","","null","","","null","87","","","","","","","","","","","","","","","",""
"","ISI","","html-keyboard-response","567","639721","0.0-1.0-786.0","0","0","91759","","null","","","null","87","NaN","","","","","","","","","","","","","","",""
"","S2","","html-keyboard-response","568","639974","0.0-1.0-787.0","0","0","91759","","null","","","null","87","","NaN","","","","","","","","","","","","","",""
"","response","","html-keyboard-response","569","640244","0.0-1.0-788.0-0.0","0","0","91759","","269","","","75","87","","","2","87","training","adjacent","DC","4","3","R.jpg","O.jpg","1","0","0","",""
"","feedback","","html-keyboard-response","570","641247","0.0-1.0-789.0-0.0","0","0","91759","","null","","","null","87","","","","","","","","","","","","","","","",""
"","time_out","","html-keyboard-response","571","643250","0.0-1.0-791.0-0.0","0","0","91759","","null","","","null","87","","","","","","","","","","","","","","","",""
"","ITI","","html-keyboard-response","572","644252","0.0-1.0-792.0","0","0","91759","","null","","","null","87","","","","","","","","","","","","","","","NaN",""
"","S1","","html-keyboard-response","573","644505","0.0-1.0-794.0","0","0","91759","","null","","","null","88","","","","","","","","","","","","","","","",""
"","ISI","","html-keyboard-response","574","646508","0.0-1.0-795.0","0","0","91759","","null","","","null","88","NaN","","","","","","","","","","","","","","",""
"","S2","","html-keyboard-response","575","646761","0.0-1.0-796.0","0","0","91759","","null","","","null","88","","NaN","","","","","","","","","","","","","",""
"","response","","html-keyboard-response","576","646912","0.0-1.0-797.0-0.0","0","0","91759","","150","","","68","88","","","2","88","training","adjacent","CB","3","2","O.jpg","Q.jpg","0","0","1","",""
"","feedback","","html-keyboard-response","577","647914","0.0-1.0-798.0-0.0","0","0","91759","","null","","","null","88","","","","","","","","","","","","","","","",""
"","ITI","","html-keyboard-response","578","648916","0.0-1.0-801.0","0","0","91759","","null","","","null","88","","","","","","","","","","","","","","","NaN",""
"","S1","","html-keyboard-response","579","649168","0.0-1.0-803.0","0","0","91759","","null","","","null","89","","","","","","","","","","","","","","","",""
"","ISI","","html-keyboard-response","580","651170","0.0-1.0-804.0","0","0","91759","","null","","","null","89","NaN","","","","","","","","","","","","","","",""
"","S2","","html-keyboard-response","581","651424","0.0-1.0-805.0","0","0","91759","","null","","","null","89","","NaN","","","","","","","","","","","","","",""
"","response","","html-keyboard-response","582","651963","0.0-1.0-806.0-0.0","0","0","91759","","538","","","68","89","","","2","89","training","adjacent","DC","4","3","R.jpg","O.jpg","0","0","1","",""
