"success","ttype","start_time","trial_type","trial_index","time_elapsed","internal_node_id","warning","missed_checkup","PID","view_history","rt","responses","repeat_instructions","key_press","index","keypress_isi","keypress_S2","block","trial_num","phase","group_type","pair_type","S1_stim","S2_stim","S1_img","S2_img","S1_chosen","S1_higher","accuracy","keypress_iti","total_bonus_tally"
"true","full_screen","d03042023hr1430","fullscreen","0","2694","0.0-0.0","0","0","94815","","","","","","","","","","","","","","","","","","","","","",""
"","instructions","","instructions","1","688656","0.0-1.0-0.0-0.0","0","0","94815","[{""page_index"":0,""viewing_time"":4189},{""page_index"":1,""viewing_time"":64759},{""page_index"":2,""viewing_time"":320007},{""page_index"":3,""viewing_time"":297006}]","685961","","","","","","","","","","","","","","","","","","","",""
"","comprehension_check","","survey-multi-choice","2","714346","0.0-1.0-0.0-1.0","0","0","94815","","25683","{""Q0"":""True"",""Q1"":""K"",""Q2"":""Once the second image appears and while the screen 'MAKE A CHOICE' is shown"",""Q3"":""Green mark"",""Q4"":""either D or K""}","0","","","","","","","","","","","","","","","","","",""
"","start_exp","","html-keyboard-response","3","718665","0.0-1.0-1.0","0","0","94815","","4314","","","32","","","","","","","","","","","","","","","","",""
"","S1","","html-keyboard-response","4","718918","0.0-1.0-2.0","0","0","94815","","null","","","null","0","","","","","","","","","","","","","","","",""
"","ISI","","html-keyboard-response","5","719423","0.0-1.0-3.0","0","0","94815","","null","","","null","0","NaN","","","","","","","","","","","","","","",""
"","S2","","html-keyboard-response","6","719675","0.0-1.0-4.0","0","0","94815","","null","","","null","0","","NaN","","","","","","","","","","","","","",""
"","response","","html-keyboard-response","7","720178","0.0-1.0-5.0-0.0","0","0","94815","","501","","","75","0","","","1","0","training","adjacent","ED","5","4","M.jpg","R.jpg","1","0","0","",""
"","feedback","","html-keyboard-response","8","721181","0.0-1.0-6.0-0.0","0","0","94815","","null","","","null","0","","","","","","","","","","","","","","","",""
"","time_out","","html-keyboard-response","9","723185","0.0-1.0-8.0-0.0","0","0","94815","","null","","","null","0","","","","","","","","","","","","","","","",""
"","ITI","","html-keyboard-response","10","724187","0.0-1.0-9.0","0","0","94815","","null","","","null","0","","","","","","","","","","","","","","","NaN",""
"","S1","","html-keyboard-response","11","724440","0.0-1.0-11.0","0","0","94815","","null","","","null","1","","","","","","","","","","","","","","","",""
"","ISI","","html-keyboard-response","12","724943","0.0-1.0-12.0","0","0","94815","","null","","","null","1","NaN","","","","","","","","","","","","","","",""
"","S2","","html-keyboard-response","13","725197","0.0-1.0-13.0","0","0","94815","","null","","","null","1","","NaN","","","","","","","","","","","","","",""
"","response","","html-keyboard-response","14","725676","0.0-1.0-14.0-0.0","0","0","94815","","478","","","75","1","","","1","1","training","adjacent","FE","6","5","P.jpg","M.jpg","1","0","0","",""
"","feedback","","html-keyboard-response","15","726678","0.0-1.0-15.0-0.0","0","0","94815","","null","","","null","1","","","","","","","","","","","","","","","",""
"","time_out","","html-keyboard-response","16","728682","0.0-1.0-17.0-0.0","0","0","94815","","null","","","null","1","","","","","","","","","","","","","","","",""
"","ITI","","html-keyboard-response","17","729684","0.0-1.0-18.0","0","0","94815","","null","","","null","1","","","","","","","","","","","","","","","NaN",""
"","S1","","html-keyboard-response","18","729937","0.0-1.0-20.0","0","0","94815","","null","","","null","2","","","","","","","","","","","","","","","",""
"","ISI","","html-keyboard-response","19","730440","0.0-1.0-21.0","0","0","94815","","null","","","null","2","NaN","","","","","","","","","","","","","","",""
"","S2","","html-keyboard-response","20","730695","0.0-1.0-22.0","0","0","94815","","null","","","null","2","","NaN","","","","","","","","","","","","","",""
"","response","","html-keyboard-response","21","731091","0.0-1.0-23.0-0.0","0","0","94815","","393","","","68","2","","","1","2","training","adjacent","FG","6","7","P.jpg","L.jpg","0","1","0","",""
"","feedback","","html-keyboard-response","22","732095","0.0-1.0-24.0-0.0","0","0","94815","","null","","","null","2","","","","","","","","","","","","","","","",""
"","time_out","","html-keyboard-response","23","734097","0.0-1.0-26.0-0.0","0","0","94815","","null","","","null","2","","","","","","","","","","","","","","","",""
"","ITI","","html-keyboard-response","24","735099","0.0-1.0-27.0","0","0","94815","","null","","","null","2","","","","","","","","","","","","","","","NaN",""
"","S1","","html-keyboard-response","25","735353","0.0-1.0-29.0","0","0","94815","","null","","","null","3","","","","","","","","","","","","","","","",""
"","ISI","","html-keyboard-response","26","735857","0.0-1.0-30.0","0","0","94815","","null","","","null","3","NaN","","","","","","","","","","","","","","",""
"","S2","","html-keyboard-response","27","736113","0.0-1.0-31.0","0","0","94815","","null","","","null","3","","NaN","","","","","","","","","","","","","",""
"","response","","html-keyboard-response","28","736524","0.0-1.0-32.0-0.0","0","0","94815","","408","","","75","3","","","1","3","training","adjacent","DC","4","3","R.jpg","O.jpg","1","0","0","",""
"","feedback","","html-keyboard-response","29","737527","0.0-1.0-33.0-0.0","0","0","94815","","null","","","null","3","","","","","","","","","","","","","","","",""
"","time_out","","html-keyboard-response","30","739530","0.0-1.0-35.0-0.0","0","0","94815","","null","","","null","3","","","","","","","","","","","","","","","",""
"","ITI","","html-keyboard-response","31","740533","0.0-1.0-36.0","0","0","94815","","null","","","null","3","","","","","","","","","","","","","","","NaN",""
"","S1","","html-keyboard-response","32","740786","0.0-1.0-38.0","0","0","94815","","null","","","null","4","","","","","","","","","","","","","","","",""
"","ISI","","html-keyboard-response","33","741288","0.0-1.0-39.0","0","0","94815","","null","","","null","4","NaN","","","","","","","","","","","","","","",""
"","S2","","html-keyboard-response","34","741444","0.0-1.0-40.0","0","0","94815","","155","","","75","4","","k","1","4","training","adjacent","EF","5","6","M.jpg","P.jpg","1","1","1","",""
"","feedback","","html-keyboard-response","35","742447","0.0-1.0-42.0-0.0","0","0","94815","","null","","","null","4","","","","","","","","","","","","","","","",""
"","ITI","","html-keyboard-response","36","743451","0.0-1.0-45.0","0","0","94815","","null","","","null","4","","","","","","","","","","","","","","","NaN",""
"","S1","","html-keyboard-response","37","743704","0.0-1.0-47.0","0","0","94815","","null","","","null","5","","","","","","","","","","","","","","","",""
"","ISI","","html-keyboard-response","38","744207","0.0-1.0-48.0","0","0","94815","","null","","","null","5","NaN","","","","","","","","","","","","","","",""
"","S2","","html-keyboard-response","39","744459","0.0-1.0-49.0","0","0","94815","","null","","","null","5","","NaN","","","","","","","","","","","","","",""
"","response","","html-keyboard-response","40","744493","0.0-1.0-50.0-0.0","0","0","94815","","33","","","75","5","","","1","5","training","adjacent","CB","3","2","O.jpg","Q.jpg","1","0","0","",""
"","feedback","","html-keyboard-response","41","745496","0.0-1.0-51.0-0.0","0","0","94815","","null","","","null","5","","","","","","","","","","","","","","","",""
"","time_out","","html-keyboard-response","42","747498","0.0-1.0-53.0-0.0","0","0","94815","","null","","","null","5","","","","","","","","","","","","","","","",""
"","ITI","","html-keyboard-response","43","748500","0.0-1.0-54.0","0","0","94815","","null","","","null","5","","","","","","","","","","","","","","","NaN",""
"","S1","","html-keyboard-response","44","748754","0.0-1.0-56.0","0","0","94815","","null","","","null","6","","","","","","","","","","","","","","","",""
"","ISI","","html-keyboard-response","45","749256","0.0-1.0-57.0","0","0","94815","","null","","","null","6","NaN","","","","","","","","","","","","","","",""
"","S2","","html-keyboard-response","46","749510","0.0-1.0-58.0","0","0","94815","","null","","","null","6","","NaN","","","","","","","","","","","","","",""
"","response","","html-keyboard-response","47","749570","0.0-1.0-59.0-0.0","0","0","94815","","57","","","75","6","","","1","6","training","adjacent","CB","3","2","O.jpg","Q.jpg","1","0","0","",""
"","feedback","","html-keyboard-response","48","750574","0.0-1.0-60.0-0.0","0","0","94815","","null","","","null","6","","","","","","","","","","","","","","","",""
"","time_out","","html-keyboard-response","49","752577","0.0-1.0-62.0-0.0","0","0","94815","","null","","","null","6","","","","","","","","","","","","","","","",""
"","ITI","","html-keyboard-response","50","753581","0.0-1.0-63.0","0","0","94815","","null","","","null","6","","","","","","","","","","","","","","","NaN",""
"","S1","","html-keyboard-response","51","753834","0.0-1.0-65.0","0","0","94815","","null","","","null","7","","","","","","","","","","","","","","","",""
"","ISI","","html-keyboard-response","52","754337","0.0-1.0-66.0","0","0","94815","","null","","","null","7","NaN","","","","","","","","","","","","","","",""
"","S2","","html-keyboard-response","53","754590","0.0-1.0-67.0","0","0","94815","","null","","","null","7","","NaN","","","","","","","","","","","","","",""
"","response","","html-keyboard-response","54","754982","0.0-1.0-68.0-0.0","0","0","94815","","390","","","68","7","","","1","7","training","adjacent","BC","2","3","Q.jpg","O.jpg","0","1","0","",""
"","feedback","","html-keyboard-response","55","755985","0.0-1.0-69.0-0.0","0","0","94815","","null","","","null","7","","","","","","","","","","","","","","","",""
"","time_out","","html-keyboard-response","56","757988","0.0-1.0-71.0-0.0","0","0","94815","","null","","","null","7","","","","","","","","","","","","","","","",""
"","ITI","","html-keyboard-response","57","758990","0.0-1.0-72.0","0","0","94815","","null","","","null","7","","","","","","","","","","","","","","","NaN",""
"","S1","","html-keyboard-response","58","759242","0.0-1.0-74.0","0","0","94815","","null","","","null","8","","","","","","","","","","","","","","","",""
"","ISI","","html-keyboard-response","59","759745","0.0-1.0-75.0","0","0","94815","","null","","","null","8","NaN","","","","","","","","","","","","","","",""
"","S2","","html-keyboard-response","60","759998","0.0-1.0-76.0","0","0","94815","","null","","","null","8","","NaN","","","","","","","","","","","","","",""
"","response","","html-keyboard-response","61","760511","0.0-1.0-77.0-0.0","0","0","94815","","510","","","75","8","","","1","8","training","adjacent","GF","7","6","L.jpg","P.jpg","1","0","0","",""
"","feedback","","html-keyboard-response","62","761514","0.0-1.0-78.0-0.0","0","0","94815","","null","","","null","8","","","","","","","","","","","","","","","",""
"","time_out","","html-keyboard-response","63","763516","0.0-1.0-80.0-0.0","0","0","94815","","null","","","null","8","","","","","","","","","","","","","","","",""
"","ITI","","html-keyboard-response","64","764521","0.0-1.0-81.0","0","0","94815","","null","","","null","8","","","","","","","","","","","","","","","NaN",""
"","S1","","html-keyboard-response","65","764775","0.0-1.0-83.0","0","0","94815","","null","","","null","9","","","","","","","","","","","","","","","",""
"","ISI","","html-keyboard-response","66","765277","0.0-1.0-84.0","0","0","94815","","null","","","null","9","NaN","","","","","","","","","","","","","","",""
"","S2","","html-keyboard-response","67","765531","0.0-1.0-85.0","0","0","94815","","null","","","null","9","","NaN","","","","","","","","","","","","","",""
"","response","","html-keyboard-response","68","766180","0.0-1.0-86.0-0.0","0","0","94815","","648","","","75","9","","","1","9","training","adjacent","DC","4","3","R.jpg","O.jpg","1","0","0","",""
"","feedback","","html-keyboard-response","69","767184","0.0-1.0-87.0-0.0","0","0","94815","","null","","","null","9","","","","","","","","","","","","","","","",""
"","time_out","","html-keyboard-response","70","769186","0.0-1.0-89.0-0.0","0","0","94815","","null","","","null","9","","","","","","","","","","","","","","","",""
"","ITI","","html-keyboard-response","71","770189","0.0-1.0-90.0","0","0","94815","","94","","","68","9","","","","","","","","","","","","","","","d",""
"","S1","","html-keyboard-response","72","770444","0.0-1.0-92.0","0","0","94815","","null","","","null","10","","","","","","","","","","","","","","","",""
"","ISI","","html-keyboard-response","73","770945","0.0-1.0-93.0","0","0","94815","","null","","","null","10","NaN","","","","","","","","","","","","","","",""
"","S2","","html-keyboard-response","74","771199","0.0-1.0-94.0","0","0","94815","","null","","","null","10","","NaN","","","","","","","","","","","","","",""
"","response","","html-keyboard-response","75","771311","0.0-1.0-95.0-0.0","0","0","94815","","110","","","68","10","","","1","10","training","adjacent","BC","2","3","Q.jpg","O.jpg","0","1","0","",""
"","feedback","","html-keyboard-response","76","772316","0.0-1.0-96.0-0.0","0","0","94815","","null","","","null","10","","","","","","","","","","","","","","","",""
"","time_out","","html-keyboard-response","77","774319","0.0-1.0-98.0-0.0","0","0","94815","","null","","","null","10","","","","","","","","","","","","","","","",""
"","ITI","","html-keyboard-response","78","775322","0.0-1.0-99.0","0","0","94815","","null","","","null","10","","","","","","","","","","","","","","","NaN",""
"","S1","","html-keyboard-response","79","775575","0.0-1.0-101.0","0","0","94815","","null","","","null","11","","","","","","","","","","","","","","","",""
"","ISI","","html-keyboard-response","80","776078","0.0-1.0-102.0","0","0","94815","","null","","","null","11","NaN","","","","","","","","","","","","","","",""
"","S2","","html-keyboard-response","81","776331","0.0-1.0-103.0","0","0","94815","","null","","","null","11","","NaN","","","","","","","","","","","","","",""
"","response","","html-keyboard-response","82","776642","0.0-1.0-104.0-0.0","0","0","94815","","308","","","75","11","","","1","11","training","adjacent","EF","5","6","M.jpg","P.jpg","1","1","1","",""
"","feedback","","html-keyboard-response","83","777645","0.0-1.0-105.0-0.0","0","0","94815","","null","","","null","11","","","","","","","","","","","","","","","",""
"","ITI","","html-keyboard-response","84","778648","0.0-1.0-108.0","0","0","94815","","null","","","null","11","","","","","","","","","","","","","","","NaN",""
"","S1","","html-keyboard-response","85","778901","0.0-1.0-110.0","0","0","94815","","null","","","null","12","","","","","","","","","","","","","","","",""
"","ISI","","html-keyboard-response","86","779404","0.0-1.0-111.0","0","0","94815","","null","","","null","12","NaN","","","","","","","","","","","","","","",""
"","S2","","html-keyboard-response","87","779648","0.0-1.0-112.0","0","0","94815","","242","","","75","12","","k","1","12","training","adjacent","BA","2","1","Q.jpg","N.jpg","1","0","0","",""
"","feedback","","html-keyboard-response","88","780652","0.0-1.0-114.0-0.0","0","0","94815","","null","","","null","12","","","","","","","","","","","","","","","",""
"","time_out","","html-keyboard-response","89","782655","0.0-1.0-116.0-0.0","0","0","94815","","null","","","null","12","","","","","","","","","","","","","","","",""
"","ITI","","html-keyboard-response","90","783657","0.0-1.0-117.0","0","0","94815","","null","","","null","12","","","","","","","","","","","","","","","NaN",""
"","S1","","html-keyboard-response","91","783911","0.0-1.0-119.0","0","0","94815","","null","","","null","13","","","","","","","","","","","","","","","",""
"","ISI","","html-keyboard-response","92","784414","0.0-1.0-120.0","0","0","94815","","null","","","null","13","NaN","","","","","","","","","","","","","","",""
"","S2","","html-keyboard-response","93","784668","0.0-1.0-121.0","0","0","94815","","null","","","null","13","","NaN","","","","","","","","","","","","","",""
"","response","","html-keyboard-response","94","785139","0.0-1.0-122.0-0.0","0","0","94815","","471","","","68","13","","","1","13","training","adjacent","AB","1","2","N.jpg","Q.jpg","0","1","0","",""
"","feedback","","html-keyboard-response","95","786142","0.0-1.0-123.0-0.0","0","0","94815","","null","","","null","13","","","","","","","","","","","","","","","",""
"","time_out","","html-keyboard-response","96","788144","0.0-1.0-125.0-0.0","0","0","94815","","null","","","null","13","","","","","","","","","","","","","","","",""
"","ITI","","html-keyboard-response","97","789146","0.0-1.0-126.0","0","0","94815","","null","","","null","13","","","","","","","","","","","","","","","NaN",""
"","S1","","html-keyboard-response","98","789400","0.0-1.0-128.0","0","0","94815","","null","","","null","14","","","","","","","","","","","","","","","",""
"","ISI","","html-keyboard-response","99","789904","0.0-1.0-129.0","0","0","94815","","null","","","null","14","NaN","","","","","","","","","","","","","","",""
"","S2","","html-keyboard-response","100","790026","0.0-1.0-130.0","0","0","94815","","121","","","68","14","","d","1","14","training","adjacent","CB","3","2","O.jpg","Q.jpg","0","0","1","",""
"","feedback","","html-keyboard-response","101","791029","0.0-1.0-132.0-0.0","0","0","94815","","null","","","null","14","","","","","","","","","","","","","","","",""
"","ITI","","html-keyboard-response","102","792032","0.0-1.0-135.0","0","0","94815","","null","","","null","14","","","","","","","","","","","","","","","NaN",""
"","S1","","html-keyboard-response","103","792286","0.0-1.0-137.0","0","0","94815","","null","","","null","15","","","","","","","","","","","","","","","",""
"","ISI","","html-keyboard-response","104","792789","0.0-1.0-138.0","0","0","94815","","null","","","null","15","NaN","","","","","","","","","","","","","","",""
"","S2","","html-keyboard-response","105","793042","0.0-1.0-139.0","0","0","94815","","null","","","null","15","","NaN","","","","","","","","","","","","","",""
"","response","","html-keyboard-response","106","793394","0.0-1.0-140.0-0.0","0","0","94815","","350","","","75","15","","","1","15","training","adjacent","FE","6","5","P.jpg","M.jpg","1","0","0","",""
"","feedback","","html-keyboard-response","107","794397","0.0-1.0-141.0-0.0","0","0","94815","","null","","","null","15","","","","","","","","","","","","","","","",""
"","time_out","","html-keyboard-response","108","796399","0.0-1.0-143.0-0.0","0","0","94815","","null","","","null","15","","","","","","","","","","","","","","","",""
"","ITI","","html-keyboard-response","109","797401","0.0-1.0-144.0","0","0","94815","","null","","","null","15","","","","","","","","","","","","","","","NaN",""
"","S1","","html-keyboard-response","110","797655","0.0-1.0-146.0","0","0","94815","","null","","","null","16","","","","","","","","","","","","","","","",""
"","ISI","","html-keyboard-response","111","798158","0.0-1.0-147.0","0","0","94815","","null","","","null","16","NaN","","","","","","","","","","","","","","",""
"","S2","","html-keyboard-response","112","798172","0.0-1.0-148.0","0","0","94815","","12","","","68","16","","d","1","16","training","adjacent","BA","2","1","Q.jpg","N.jpg","0","0","1","",""
"","feedback","","html-keyboard-response","113","799175","0.0-1.0-150.0-0.0","0","0","94815","","null","","","null","16","","","","","","","","","","","","","","","",""
"","ITI","","html-keyboard-response","114","800178","0.0-1.0-153.0","0","0","94815","","null","","","null","16","","","","","","","","","","","","","","","NaN",""
"","S1","","html-keyboard-response","115","800430","0.0-1.0-155.0","0","0","94815","","null","","","null","17","","","","","","","","","","","","","","","",""
"","ISI","","html-keyboard-response","116","800934","0.0-1.0-156.0","0","0","94815","","null","","","null","17","NaN","","","","","","","","","","","","","","",""
"","S2","","html-keyboard-response","117","801186","0.0-1.0-157.0","0","0","94815","","null","","","null","17","","NaN","","","","","","","","","","","","","",""
"","response","","html-keyboard-response","118","801615","0.0-1.0-158.0-0.0","0","0","94815","","427","","","75","17","","","1","17","training","adjacent","BA","2","1","Q.jpg","N.jpg","1","0","0","",""
"","feedback","","html-keyboard-response","119","802619","0.0-1.0-159.0-0.0","0","0","94815","","null","","","null","17","","","","","","","","","","","","","","","",""
"","time_out","","html-keyboard-response","120","804621","0.0-1.0-161.0-0.0","0","0","94815","","null","","","null","17","","","","","","","","","","","","","","","",""
"","ITI","","html-keyboard-response","121","805624","0.0-1.0-162.0","0","0","94815","","null","","","null","17","","","","","","","","","","","","","","","NaN",""
"","S1","","html-keyboard-response","122","805878","0.0-1.0-164.0","0","0","94815","","null","","","null","18","","","","","","","","","","","","","","","",""
"","ISI","","html-keyboard-response","123","806395","0.0-1.0-165.0","0","0","94815","","null","","","null","18","NaN","","","","","","","","","","","","","","",""
"","S2","","html-keyboard-response","124","806565","0.0-1.0-166.0","0","0","94815","","168","","","75","18","","k","1","18","training","adjacent","GF","7","6","L.jpg","P.jpg","1","0","0","",""
"","feedback","","html-keyboard-response","125","807568","0.0-1.0-168.0-0.0","0","0","94815","","null","","","null","18","","","","","","","","","","","","","","","",""
"","time_out","","html-keyboard-response","126","809571","0.0-1.0-170.0-0.0","0","0","94815","","null","","","null","18","","","","","","","","","","","","","","","",""
"","ITI","","html-keyboard-response","127","810574","0.0-1.0-171.0","0","0","94815","","null","","","null","18","","","","","","","","","","","","","","","NaN",""
"","S1","","html-keyboard-response","128","810826","0.0-1.0-173.0","0","0","94815","","null","","","null","19","","","","","","","","","","","","","","","",""
"","ISI","","html-keyboard-response","129","811328","0.0-1.0-174.0","0","0","94815","","null","","","null","19","NaN","","","","","","","","","","","","","","",""
"","S2","","html-keyboard-response","130","811581","0.0-1.0-175.0","0","0","94815","","null","","","null","19","","NaN","","","","","","","","","","","","","",""
"","response","","html-keyboard-response","131","812399","0.0-1.0-176.0-0.0","0","0","94815","","816","","","68","19","","","1","19","training","adjacent","DE","4","5","R.jpg","M.jpg","0","1","0","",""
"","feedback","","html-keyboard-response","132","813403","0.0-1.0-177.0-0.0","0","0","94815","","null","","","null","19","","","","","","","","","","","","","","","",""
"","time_out","","html-keyboard-response","133","815405","0.0-1.0-179.0-0.0","0","0","94815","","null","","","null","19","","","","","","","","","","","","","","","",""
"","ITI","","html-keyboard-response","134","816410","0.0-1.0-180.0","0","0","94815","","null","","","null","19","","","","","","","","","","","","","","","NaN",""
"","S1","","html-keyboard-response","135","816663","0.0-1.0-182.0","0","0","94815","","null","","","null","20","","","","","","","","","","","","","","","",""
"","ISI","","html-keyboard-response","136","817166","0.0-1.0-183.0","0","0","94815","","null","","","null","20","NaN","","","","","","","","","","","","","","",""
"","S2","","html-keyboard-response","137","817419","0.0-1.0-184.0","0","0","94815","","null","","","null","20","","NaN","","","","","","","","","","","","","",""
"","response","","html-keyboard-response","138","817784","0.0-1.0-185.0-0.0","0","0","94815","","363","","","68","20","","","1","20","training","adjacent","AB","1","2","N.jpg","Q.jpg","0","1","0","",""
"","feedback","","html-keyboard-response","139","818787","0.0-1.0-186.0-0.0","0","0","94815","","null","","","null","20","","","","","","","","","","","","","","","",""
"","time_out","","html-keyboard-response","140","820790","0.0-1.0-188.0-0.0","0","0","94815","","null","","","null","20","","","","","","","","","","","","","","","",""
"","ITI","","html-keyboard-response","141","821794","0.0-1.0-189.0","0","0","94815","","null","","","null","20","","","","","","","","","","","","","","","NaN",""
"","S1","","html-keyboard-response","142","822048","0.0-1.0-191.0","0","0","94815","","null","","","null","21","","","","","","","","","","","","","","","",""
"","ISI","","html-keyboard-response","143","822552","0.0-1.0-192.0","0","0","94815","","null","","","null","21","NaN","","","","","","","","","","","","","","",""
"","S2","","html-keyboard-response","144","822817","0.0-1.0-193.0","0","0","94815","","null","","","null","21","","NaN","","","","","","","","","","","","","",""
"","response","","html-keyboard-response","145","823193","0.0-1.0-194.0-0.0","0","0","94815","","375","","","68","21","","","1","21","training","adjacent","CB","3","2","O.jpg","Q.jpg","0","0","1","",""
"","feedback","","html-keyboard-response","146","824195","0.0-1.0-195.0-0.0","0","0","94815","","null","","","null","21","","","","","","","","","","","","","","","",""
"","ITI","","html-keyboard-response","147","825199","0.0-1.0-198.0","0","0","94815","","null","","","null","21","","","","","","","","","","","","","","","NaN",""
"","S1","","html-keyboard-response","148","825453","0.0-1.0-200.0","0","0","94815","","null","","","null","22","","","","","","","","","","","","","","","",""
"","ISI","","html-keyboard-response","149","825955","0.0-1.0-201.0","0","0","94815","","null","","","null","22","NaN","","","","","","","","","","","","","","",""
"","S2","","html-keyboard-response","150","826208","0.0-1.0-202.0","0","0","94815","","null","","","null","22","","NaN","","","","","","","","","","","","","",""
"","response","","html-keyboard-response","151","826508","0.0-1.0-203.0-0.0","0","0","94815","","299","","","75","22","","","1","22","training","adjacent","FG","6","7","P.jpg","L.jpg","1","1","1","",""
"","feedback","","html-keyboard-response","152","827510","0.0-1.0-204.0-0.0","0","0","94815","","null","","","null","22","","","","","","","","","","","","","","","",""
"","ITI","","html-keyboard-response","153","828514","0.0-1.0-207.0","0","0","94815","","null","","","null","22","","","","","","","","","","","","","","","NaN",""
"","S1","","html-keyboard-response","154","828766","0.0-1.0-209.0","0","0","94815","","null","","","null","23","","","","","","","","","","","","","","","",""
"","ISI","","html-keyboard-response","155","829270","0.0-1.0-210.0","0","0","94815","","null","","","null","23","NaN","","","","","","","","","","","","","","",""
"","S2","","html-keyboard-response","156","829523","0.0-1.0-211.0","0","0","94815","","null","","","null","23","","NaN","","","","","","","","","","","","","",""
"","response","","html-keyboard-response","157","830129","0.0-1.0-212.0-0.0","0","0","94815","","603","","","68","23","","","1","23","training","adjacent","BC","2","3","Q.jpg","O.jpg","0","1","0","",""
"","feedback","","html-keyboard-response","158","831132","0.0-1.0-213.0-0.0","0","0","94815","","null","","","null","23","","","","","","","","","","","","","","","",""
"","time_out","","html-keyboard-response","159","833135","0.0-1.0-215.0-0.0","0","0","94815","","null","","","null","23","","","","","","","","","","","","","","","",""
"","ITI","","html-keyboard-response","160","834137","0.0-1.0-216.0","0","0","94815","","null","","","null","23","","","","","","","","","","","","","","","NaN",""
"","S1","","html-keyboard-response","161","834395","0.0-1.0-218.0","0","0","94815","","null","","","null","24","","","","","","","","","","","","","","","",""
"","ISI","","html-keyboard-response","162","834897","0.0-1.0-219.0","0","0","94815","","null","","","null","24","NaN","","","","","","","","","","","","","","",""
"","S2","","html-keyboard-response","163","835156","0.0-1.0-220.0","0","0","94815","","null","","","null","24","","NaN","","","","","","","","","","","","","",""
"","response","","html-keyboard-response","164","835698","0.0-1.0-221.0-0.0","0","0","94815","","541","","","75","24","","","1","24","training","adjacent","DE","4","5","R.jpg","M.jpg","1","1","1","",""
"","feedback","","html-keyboard-response","165","836701","0.0-1.0-222.0-0.0","0","0","94815","","null","","","null","24","","","","","","","","","","","","","","","",""
"","ITI","","html-keyboard-response","166","837704","0.0-1.0-225.0","0","0","94815","","null","","","null","24","","","","","","","","","","","","","","","NaN",""
"","S1","","html-keyboard-response","167","837957","0.0-1.0-227.0","0","0","94815","","null","","","null","25","","","","","","","","","","","","","","","",""
"","ISI","","html-keyboard-response","168","838459","0.0-1.0-228.0","0","0","94815","","null","","","null","25","NaN","","","","","","","","","","","","","","",""
"","S2","","html-keyboard-response","169","838713","0.0-1.0-229.0","0","0","94815","","null","","","null","25","","NaN","","","","","","","","","","","","","",""
"","response","","html-keyboard-response","170","839082","0.0-1.0-230.0-0.0","0","0","94815","","368","","","75","25","","","1","25","training","adjacent","FE","6","5","P.jpg","M.jpg","1","0","0","",""
"","feedback","","html-keyboard-response","171","840086","0.0-1.0-231.0-0.0","0","0","94815","","null","","","null","25","","","","","","","","","","","","","","","",""
"","time_out","","html-keyboard-response","172","842089","0.0-1.0-233.0-0.0","0","0","94815","","null","","","null","25","","","","","","","","","","","","","","","",""
"","ITI","","html-keyboard-response","173","843092","0.0-1.0-234.0","0","0","94815","","null","","","null","25","","","","","","","","","","","","","","","NaN",""
"","S1","","html-keyboard-response","174","843346","0.0-1.0-236.0","0","0","94815","","null","","","null","26","","","","","","","","","","","","","","","",""
"","ISI","","html-keyboard-response","175","843848","0.0-1.0-237.0","0","0","94815","","null","","","null","26","NaN","","","","","","","","","","","","","","",""
"","S2","","html-keyboard-response","176","844103","0.0-1.0-238.0","0","0","94815","","null","","","null","26","","NaN","","","","","","","","","","","","","",""
"","response","","html-keyboard-response","177","844657","0.0-1.0-239.0-0.0","0","0","94815","","551","","","75","26","","","1","26","training","adjacent","DE","4","5","R.jpg","M.jpg","1","1","1","",""
"","feedback","","html-keyboard-response","178","845660","0.0-1.0-240.0-0.0","0","0","94815","","null","","","null","26","","","","","","","","","","","","","","","",""
"","ITI","","html-keyboard-response","179","846663","0.0-1.0-243.0","0","0","94815","","null","","","null","26","","","","","","","","","","","","","","","NaN",""
"","S1","","html-keyboard-response","180","846916","0.0-1.0-245.0","0","0","94815","","null","","","null","27","","","","","","","","","","","","","","","",""
"","ISI","","html-keyboard-response","181","847418","0.0-1.0-246.0","0","0","94815","","null","","","null","27","NaN","","","","","","","","","","","","","","",""
"","S2","","html-keyboard-response","182","847670","0.0-1.0-247.0","0","0","94815","","null","","","null","27","","NaN","","","","","","","","","","","","","",""
"","response","","html-keyboard-response","183","847772","0.0-1.0-248.0-0.0","0","0","94815","","99","","","68","27","","","1","27","training","adjacent","DC","4","3","R.jpg","O.jpg","0","0","1","",""
"","feedback","","html-keyboard-response","184","848777","0.0-1.0-249.0-0.0","0","0","94815","","null","","","null","27","","","","","","","","","","","","","","","",""
"","ITI","","html-keyboard-response","185","849779","0.0-1.0-252.0","0","0","94815","","null","","","null","27","","","","","","","","","","","","","","","NaN",""
"","S1","","html-keyboard-response","186","850032","0.0-1.0-254.0","0","0","94815","","null","","","null","28","","","","","","","","","","","","","","","",""
"","ISI","","html-keyboard-response","187","850536","0.0-1.0-255.0","0","0","94815","","null","","","null","28","NaN","","","","","","","","","","","","","","",""
"","S2","","html-keyboard-response","188","850789","0.0-1.0-256.0","0","0","94815","","null","","","null","28","","NaN","","","","","","","","","","","","","",""
"","response","","html-keyboard-response","189","851274","0.0-1.0-257.0-0.0","0","0","94815","","484","","","75","28","","","1","28","training","adjacent","BA","2","1","Q.jpg","N.jpg","1","0","0","",""
"","feedback","","html-keyboard-response","190","852279","0.0-1.0-258.0-0.0","0","0","94815","","null","","","null","28","","","","","","","","","","","","","","","",""
"","time_out","","html-keyboard-response","191","854283","0.0-1.0-260.0-0.0","0","0","94815","","null","","","null","28","","","","","","","","","","","","","","","",""
"","ITI","","html-keyboard-response","192","855287","0.0-1.0-261.0","0","0","94815","","null","","","null","28","","","","","","","","","","","","","","","NaN",""
"","S1","","html-keyboard-response","193","855543","0.0-1.0-263.0","0","0","94815","","null","","","null","29","","","","","","","","","","","","","","","",""
"","ISI","","html-keyboard-response","194","856045","0.0-1.0-264.0","0","0","94815","","null","","","null","29","NaN","","","","","","","","","","","","","","",""
"","S2","","html-keyboard-response","195","856304","0.0-1.0-265.0","0","0","94815","","null","","","null","29","","NaN","","","","","","","","","","","","","",""
"","response","","html-keyboard-response","196","857087","0.0-1.0-266.0-0.0","0","0","94815","","780","","","68","29","","","1","29","training","adjacent","EF","5","6","M.jpg","P.jpg","0","1","0","",""
"","feedback","","html-keyboard-response","197","858089","0.0-1.0-267.0-0.0","0","0","94815","","null","","","null","29","","","","","","","","","","","","","","","",""
"","time_out","","html-keyboard-response","198","860093","0.0-1.0-269.0-0.0","0","0","94815","","null","","","null","29","","","","","","","","","","","","","","","",""
"","ITI","","html-keyboard-response","199","861097","0.0-1.0-270.0","0","0","94815","","null","","","null","29","","","","","","","","","","","","","","","NaN",""
"","S1","","html-keyboard-response","200","861350","0.0-1.0-272.0","0","0","94815","","null","","","null","30","","","","","","","","","","","","","","","",""
"","ISI","","html-keyboard-response","201","861852","0.0-1.0-273.0","0","0","94815","","null","","","null","30","NaN","","","","","","","","","","","","","","",""
"","S2","","html-keyboard-response","202","862106","0.0-1.0-274.0","0","0","94815","","null","","","null","30","","NaN","","","","","","","","","","","","","",""
"","response","","html-keyboard-response","203","862384","0.0-1.0-275.0-0.0","0","0","94815","","277","","","68","30","","","1","30","training","adjacent","AB","1","2","N.jpg","Q.jpg","0","1","0","",""
"","feedback","","html-keyboard-response","204","863390","0.0-1.0-276.0-0.0","0","0","94815","","null","","","null","30","","","","","","","","","","","","","","","",""
"","time_out","","html-keyboard-response","205","865395","0.0-1.0-278.0-0.0","0","0","94815","","null","","","null","30","","","","","","","","","","","","","","","",""
"","ITI","","html-keyboard-response","206","866426","0.0-1.0-279.0","0","0","94815","","null","","","null","30","","","","","","","","","","","","","","","NaN",""
"","S1","","html-keyboard-response","207","866682","0.0-1.0-281.0","0","0","94815","","null","","","null","31","","","","","","","","","","","","","","","",""
"","ISI","","html-keyboard-response","208","867184","0.0-1.0-282.0","0","0","94815","","null","","","null","31","NaN","","","","","","","","","","","","","","",""
"","S2","","html-keyboard-response","209","867437","0.0-1.0-283.0","0","0","94815","","null","","","null","31","","NaN","","","","","","","","","","","","","",""
"","response","","html-keyboard-response","210","868140","0.0-1.0-284.0-0.0","0","0","94815","","702","","","75","31","","","1","31","training","adjacent","DC","4","3","R.jpg","O.jpg","1","0","0","",""
"","feedback","","html-keyboard-response","211","869143","0.0-1.0-285.0-0.0","0","0","94815","","null","","","null","31","","","","","","","","","","","","","","","",""
"","time_out","","html-keyboard-response","212","871145","0.0-1.0-287.0-0.0","0","0","94815","","null","","","null","31","","","","","","","","","","","","","","","",""
"","ITI","","html-keyboard-response","213","872149","0.0-1.0-288.0","0","0","94815","","null","","","null","31","","","","","","","","","","","","","","","NaN",""
"","S1","","html-keyboard-response","214","872401","0.0-1.0-290.0","0","0","94815","","null","","","null","32","","","","","","","","","","","","","","","",""
"","ISI","","html-keyboard-response","215","872904","0.0-1.0-291.0","0","0","94815","","null","","","null","32","NaN","","","","","","","","","","","","","","",""
"","S2","","html-keyboard-response","216","873157","0.0-1.0-292.0","0","0","94815","","null","","","null","32","","NaN","","","","","","","","","","","","","",""
"","response","","html-keyboard-response","217","874091","0.0-1.0-293.0-0.0","0","0","94815","","931","","","75","32","","","1","32","training","adjacent","DE","4","5","R.jpg","M.jpg","1","1","1","",""
"","feedback","","html-keyboard-response","218","875094","0.0-1.0-294.0-0.0","0","0","94815","","null","","","null","32","","","","","","","","","","","","","","","",""
"","ITI","","html-keyboard-response","219","876097","0.0-1.0-297.0","0","0","94815","","null","","","null","32","","","","","","","","","","","","","","","NaN",""
"","S1","","html-keyboard-response","220","876352","0.0-1.0-299.0","0","0","94815","","null","","","null","33","","","","","","","","","","","","","","","",""
"","ISI","","html-keyboard-response","221","876862","0.0-1.0-300.0","0","0","94815","","null","","","null","33","NaN","","","","","","","","","","","","","","",""
"","S2","","html-keyboard-response","222","877115","0.0-1.0-301.0","0","0","94815","","null","","","null","33","","NaN","","","","","","","","","","","","","",""
"","response","","html-keyboard-response","223","878041","0.0-1.0-302.0-0.0","0","0","94815","","924","","","75","33","","","1","33","training","adjacent","FG","6","7","P.jpg","L.jpg","1","1","1","",""
"","feedback","","html-keyboard-response","224","879044","0.0-1.0-303.0-0.0","0","0","94815","","null","","","null","33","","","","","","","","","","","","","","","",""
"","ITI","","html-keyboard-response","225","880046","0.0-1.0-306.0","0","0","94815","","null","","","null","33","","","","","","","","","","","","","","","NaN",""
"","S1","","html-keyboard-response","226","880319","0.0-1.0-308.0","0","0","94815","","null","","","null","34","","","","","","","","","","","","","","","",""
"","ISI","","html-keyboard-response","227","880826","0.0-1.0-309.0","0","0","94815","","null","","","null","34","NaN","","","","","","","","","","","","","","",""
"","S2","","html-keyboard-response","228","881079","0.0-1.0-310.0","0","0","94815","","null","","","null","34","","NaN","","","","","","","","","","","","","",""
"","response","","html-keyboard-response","229","882247","0.0-1.0-311.0-0.0","0","0","94815","","1167","","","75","34","","","1","34","training","adjacent","ED","5","4","M.jpg","R.jpg","1","0","0","",""
"","feedback","","html-keyboard-response","230","883250","0.0-1.0-312.0-0.0","0","0","94815","","null","","","null","34","","","","","","","","","","","","","","","",""
"","time_out","","html-keyboard-response","231","885254","0.0-1.0-314.0-0.0","0","0","94815","","null","","","null","34","","","","","","","","","","","","","","","",""
"","ITI","","html-keyboard-response","232","886257","0.0-1.0-315.0","0","0","94815","","null","","","null","34","","","","","","","","","","","","","","","NaN",""
"","S1","","html-keyboard-response","233","886510","0.0-1.0-317.0","0","0","94815","","null","","","null","35","","","","","","","","","","","","","","","",""
"","ISI","","html-keyboard-response","234","887014","0.0-1.0-318.0","0","0","94815","","null","","","null","35","NaN","","","","","","","","","","","","","","",""
"","S2","","html-keyboard-response","235","887267","0.0-1.0-319.0","0","0","94815","","null","","","null","35","","NaN","","","","","","","","","","","","","",""
"","response","","html-keyboard-response","236","888091","0.0-1.0-320.0-0.0","0","0","94815","","823","","","68","35","","","1","35","training","adjacent","CD","3","4","O.jpg","R.jpg","0","1","0","",""
"","feedback","","html-keyboard-response","237","889094","0.0-1.0-321.0-0.0","0","0","94815","","null","","","null","35","","","","","","","","","","","","","","","",""
"","time_out","","html-keyboard-response","238","891107","0.0-1.0-323.0-0.0","0","0","94815","","null","","","null","35","","","","","","","","","","","","","","","",""
"","ITI","","html-keyboard-response","239","892109","0.0-1.0-324.0","0","0","94815","","null","","","null","35","","","","","","","","","","","","","","","NaN",""
"","S1","","html-keyboard-response","240","892362","0.0-1.0-326.0","0","0","94815","","null","","","null","36","","","","","","","","","","","","","","","",""
"","ISI","","html-keyboard-response","241","892866","0.0-1.0-327.0","0","0","94815","","null","","","null","36","NaN","","","","","","","","","","","","","","",""
"","S2","","html-keyboard-response","242","893119","0.0-1.0-328.0","0","0","94815","","null","","","null","36","","NaN","","","","","","","","","","","","","",""
"","response","","html-keyboard-response","243","894148","0.0-1.0-329.0-0.0","0","0","94815","","1027","","","75","36","","","1","36","training","adjacent","ED","5","4","M.jpg","R.jpg","1","0","0","",""
"","feedback","","html-keyboard-response","244","895155","0.0-1.0-330.0-0.0","0","0","94815","","null","","","null","36","","","","","","","","","","","","","","","",""
"","time_out","","html-keyboard-response","245","897158","0.0-1.0-332.0-0.0","0","0","94815","","null","","","null","36","","","","","","","","","","","","","","","",""
"","ITI","","html-keyboard-response","246","898161","0.0-1.0-333.0","0","0","94815","","null","","","null","36","","","","","","","","","","","","","","","NaN",""
"","S1","","html-keyboard-response","247","898413","0.0-1.0-335.0","0","0","94815","","null","","","null","37","","","","","","","","","","","","","","","",""
"","ISI","","html-keyboard-response","248","898916","0.0-1.0-336.0","0","0","94815","","null","","","null","37","NaN","","","","","","","","","","","","","","",""
"","S2","","html-keyboard-response","249","899169","0.0-1.0-337.0","0","0","94815","","null","","","null","37","","NaN","","","","","","","","","","","","","",""
"","response","","html-keyboard-response","250","899580","0.0-1.0-338.0-0.0","0","0","94815","","409","","","75","37","","","1","37","training","adjacent","FE","6","5","P.jpg","M.jpg","1","0","0","",""
"","feedback","","html-keyboard-response","251","900583","0.0-1.0-339.0-0.0","0","0","94815","","null","","","null","37","","","","","","","","","","","","","","","",""
"","time_out","","html-keyboard-response","252","902586","0.0-1.0-341.0-0.0","0","0","94815","","null","","","null","37","","","","","","","","","","","","","","","",""
"","ITI","","html-keyboard-response","253","903589","0.0-1.0-342.0","0","0","94815","","null","","","null","37","","","","","","","","","","","","","","","NaN",""
"","S1","","html-keyboard-response","254","903841","0.0-1.0-344.0","0","0","94815","","null","","","null","38","","","","","","","","","","","","","","","",""
"","ISI","","html-keyboard-response","255","904344","0.0-1.0-345.0","0","0","94815","","null","","","null","38","NaN","","","","","","","","","","","","","","",""
"","S2","","html-keyboard-response","256","904597","0.0-1.0-346.0","0","0","94815","","null","","","null","38","","NaN","","","","","","","","","","","","","",""
"","response","","html-keyboard-response","257","904837","0.0-1.0-347.0-0.0","0","0","94815","","238","","","68","38","","","1","38","training","adjacent","GF","7","6","L.jpg","P.jpg","0","0","1","",""
"","feedback","","html-keyboard-response","258","905840","0.0-1.0-348.0-0.0","0","0","94815","","null","","","null","38","","","","","","","","","","","","","","","",""
"","ITI","","html-keyboard-response","259","906843","0.0-1.0-351.0","0","0","94815","","null","","","null","38","","","","","","","","","","","","","","","NaN",""
"","S1","","html-keyboard-response","260","907096","0.0-1.0-353.0","0","0","94815","","null","","","null","39","","","","","","","","","","","","","","","",""
"","ISI","","html-keyboard-response","261","907601","0.0-1.0-354.0","0","0","94815","","null","","","null","39","NaN","","","","","","","","","","","","","","",""
"","S2","","html-keyboard-response","262","907855","0.0-1.0-355.0","0","0","94815","","null","","","null","39","","NaN","","","","","","","","","","","","","",""
"","response","","html-keyboard-response","263","909077","0.0-1.0-356.0-0.0","0","0","94815","","1220","","","75","39","","","1","39","training","adjacent","CD","3","4","O.jpg","R.jpg","1","1","1","",""
"","feedback","","html-keyboard-response","264","910079","0.0-1.0-357.0-0.0","0","0","94815","","null","","","null","39","","","","","","","","","","","","","","","",""
"","ITI","","html-keyboard-response","265","911082","0.0-1.0-360.0","0","0","94815","","null","","","null","39","","","","","","","","","","","","","","","NaN",""
"","S1","","html-keyboard-response","266","911338","0.0-1.0-362.0","0","0","94815","","null","","","null","40","","","","","","","","","","","","","","","",""
"","ISI","","html-keyboard-response","267","911840","0.0-1.0-363.0","0","0","94815","","null","","","null","40","NaN","","","","","","","","","","","","","","",""
"","S2","","html-keyboard-response","268","912094","0.0-1.0-364.0","0","0","94815","","null","","","null","40","","NaN","","","","","","","","","","","","","",""
"","response","","html-keyboard-response","269","913595","0.0-1.0-365.0-0.0","0","0","94815","","1499","","","75","40","","","1","40","training","adjacent","ED","5","4","M.jpg","R.jpg","1","0","0","",""
"","feedback","","html-keyboard-response","270","914598","0.0-1.0-366.0-0.0","0","0","94815","","null","","","null","40","","","","","","","","","","","","","","","",""
"","time_out","","html-keyboard-response","271","916601","0.0-1.0-368.0-0.0","0","0","94815","","null","","","null","40","","","","","","","","","","","","","","","",""
"","ITI","","html-keyboard-response","272","917604","0.0-1.0-369.0","0","0","94815","","null","","","null","40","","","","","","","","","","","","","","","NaN",""
"","S1","","html-keyboard-response","273","917857","0.0-1.0-371.0","0","0","94815","","null","","","null","41","","","","","","","","","","","","","","","",""
"","ISI","","html-keyboard-response","274","918358","0.0-1.0-372.0","0","0","94815","","null","","","null","41","NaN","","","","","","","","","","","","","","",""
"","S2","","html-keyboard-response","275","918611","0.0-1.0-373.0","0","0","94815","","null","","","null","41","","NaN","","","","","","","","","","","","","",""
"","response","","html-keyboard-response","276","919647","0.0-1.0-374.0-0.0","0","0","94815","","1033","","","68","41","","","1","41","training","adjacent","GF","7","6","L.jpg","P.jpg","0","0","1","",""
"","feedback","","html-keyboard-response","277","920663","0.0-1.0-375.0-0.0","0","0","94815","","null","","","null","41","","","","","","","","","","","","","","","",""
"","ITI","","html-keyboard-response","278","921667","0.0-1.0-378.0","0","0","94815","","null","","","null","41","","","","","","","","","","","","","","","NaN",""
"","S1","","html-keyboard-response","279","921920","0.0-1.0-380.0","0","0","94815","","null","","","null","42","","","","","","","","","","","","","","","",""
"","ISI","","html-keyboard-response","280","922422","0.0-1.0-381.0","0","0","94815","","null","","","null","42","NaN","","","","","","","","","","","","","","",""
"","S2","","html-keyboard-response","281","922675","0.0-1.0-382.0","0","0","94815","","null","","","null","42","","NaN","","","","","","","","","","","","","",""
"","response","","html-keyboard-response","282","923224","0.0-1.0-383.0-0.0","0","0","94815","","547","","","75","42","","","1","42","training","adjacent","EF","5","6","M.jpg","P.jpg","1","1","1","",""
"","feedback","","html-keyboard-response","283","924226","0.0-1.0-384.0-0.0","0","0","94815","","null","","","null","42","","","","","","","","","","","","","","","",""
"","ITI","","html-keyboard-response","284","925228","0.0-1.0-387.0","0","0","94815","","null","","","null","42","","","","","","","","","","","","","","","NaN",""
"","S1","","html-keyboard-response","285","925481","0.0-1.0-389.0","0","0","94815","","null","","","null","43","","","","","","","","","","","","","","","",""
"","ISI","","html-keyboard-response","286","925985","0.0-1.0-390.0","0","0","94815","","null","","","null","43","NaN","","","","","","","","","","","","","","",""
"","S2","","html-keyboard-response","287","926239","0.0-1.0-391.0","0","0","94815","","null","","","null","43","","NaN","","","","","","","","","","","","","",""
"","response","","html-keyboard-response","288","926826","0.0-1.0-392.0-0.0","0","0","94815","","586","","","75","43","","","1","43","training","adjacent","CD","3","4","O.jpg","R.jpg","1","1","1","",""
"","feedback","","html-keyboard-response","289","927828","0.0-1.0-393.0-0.0","0","0","94815","","null","","","null","43","","","","","","","","","","","","","","","",""
"","ITI","","html-keyboard-response","290","928830","0.0-1.0-396.0","0","0","94815","","null","","","null","43","","","","","","","","","","","","","","","NaN",""
"","S1","","html-keyboard-response","291","929083","0.0-1.0-398.0","0","0","94815","","null","","","null","44","","","","","","","","","","","","","","","",""
"","ISI","","html-keyboard-response","292","929587","0.0-1.0-399.0","0","0","94815","","null","","","null","44","NaN","","","","","","","","","","","","","","",""
"","S2","","html-keyboard-response","293","929844","0.0-1.0-400.0","0","0","94815","","null","","","null","44","","NaN","","","","","","","","","","","","","",""
"","response","","html-keyboard-response","294","930547","0.0-1.0-401.0-0.0","0","0","94815","","701","","","68","44","","","1","44","training","adjacent","CD","3","4","O.jpg","R.jpg","0","1","0","",""
"","feedback","","html-keyboard-response","295","931550","0.0-1.0-402.0-0.0","0","0","94815","","null","","","null","44","","","","","","","","","","","","","","","",""
"","time_out","","html-keyboard-response","296","933553","0.0-1.0-404.0-0.0","0","0","94815","","null","","","null","44","","","","","","","","","","","","","","","",""
"","ITI","","html-keyboard-response","297","934556","0.0-1.0-405.0","0","0","94815","","null","","","null","44","","","","","","","","","","","","","","","NaN",""
"","S1","","html-keyboard-response","298","934809","0.0-1.0-407.0","0","0","94815","","null","","","null","45","","","","","","","","","","","","","","","",""
"","ISI","","html-keyboard-response","299","935313","0.0-1.0-408.0","0","0","94815","","null","","","null","45","NaN","","","","","","","","","","","","","","",""
"","S2","","html-keyboard-response","300","935565","0.0-1.0-409.0","0","0","94815","","null","","","null","45","","NaN","","","","","","","","","","","","","",""
"","response","","html-keyboard-response","301","936171","0.0-1.0-410.0-0.0","0","0","94815","","605","","","68","45","","","1","45","training","adjacent","BC","2","3","Q.jpg","O.jpg","0","1","0","",""
"","feedback","","html-keyboard-response","302","937174","0.0-1.0-411.0-0.0","0","0","94815","","null","","","null","45","","","","","","","","","","","","","","","",""
"","time_out","","html-keyboard-response","303","939177","0.0-1.0-413.0-0.0","0","0","94815","","null","","","null","45","","","","","","","","","","","","","","","",""
"","ITI","","html-keyboard-response","304","940179","0.0-1.0-414.0","0","0","94815","","null","","","null","45","","","","","","","","","","","","","","","NaN",""
"","S1","","html-keyboard-response","305","940433","0.0-1.0-416.0","0","0","94815","","null","","","null","46","","","","","","","","","","","","","","","",""
"","ISI","","html-keyboard-response","306","940936","0.0-1.0-417.0","0","0","94815","","null","","","null","46","NaN","","","","","","","","","","","","","","",""
"","S2","","html-keyboard-response","307","941188","0.0-1.0-418.0","0","0","94815","","null","","","null","46","","NaN","","","","","","","","","","","","","",""
"","response","","html-keyboard-response","308","941546","0.0-1.0-419.0-0.0","0","0","94815","","356","","","75","46","","","1","46","training","adjacent","AB","1","2","N.jpg","Q.jpg","1","1","1","",""
"","feedback","","html-keyboard-response","309","942554","0.0-1.0-420.0-0.0","0","0","94815","","null","","","null","46","","","","","","","","","","","","","","","",""
"","ITI","","html-keyboard-response","310","943556","0.0-1.0-423.0","0","0","94815","","null","","","null","46","","","","","","","","","","","","","","","NaN",""
"","S1","","html-keyboard-response","311","943809","0.0-1.0-425.0","0","0","94815","","null","","","null","47","","","","","","","","","","","","","","","",""
"","ISI","","html-keyboard-response","312","944312","0.0-1.0-426.0","0","0","94815","","null","","","null","47","NaN","","","","","","","","","","","","","","",""
"","S2","","html-keyboard-response","313","944566","0.0-1.0-427.0","0","0","94815","","null","","","null","47","","NaN","","","","","","","","","","","","","",""
"","response","","html-keyboard-response","314","944990","0.0-1.0-428.0-0.0","0","0","94815","","423","","","68","47","","","1","47","training","adjacent","FG","6","7","P.jpg","L.jpg","0","1","0","",""
"","feedback","","html-keyboard-response","315","945993","0.0-1.0-429.0-0.0","0","0","94815","","null","","","null","47","","","","","","","","","","","","","","","",""
"","time_out","","html-keyboard-response","316","947995","0.0-1.0-431.0-0.0","0","0","94815","","null","","","null","47","","","","","","","","","","","","","","","",""
"","ITI","","html-keyboard-response","317","948997","0.0-1.0-432.0","0","0","94815","","null","","","null","47","","","","","","","","","","","","","","","NaN",""
"","block_over","","html-keyboard-response","318","958517","0.0-1.0-433.0-0.0","0","0","94815","","9517","","","32","47","","","","","","","","","","","","","","","",""
"","S1","","html-keyboard-response","319","958770","0.0-1.0-434.0","0","0","94815","","null","","","null","48","","","","","","","","","","","","","","","",""
"","ISI","","html-keyboard-response","320","959273","0.0-1.0-435.0","0","0","94815","","null","","","null","48","NaN","","","","","","","","","","","","","","",""
"","S2","","html-keyboard-response","321","959526","0.0-1.0-436.0","0","0","94815","","null","","","null","48","","NaN","","","","","","","","","","","","","",""
"","response","","html-keyboard-response","322","960193","0.0-1.0-437.0-0.0","0","0","94815","","666","","","75","48","","","2","48","training","adjacent","BC","2","3","Q.jpg","O.jpg","1","1","1","",""
"","feedback","","html-keyboard-response","323","961197","0.0-1.0-438.0-0.0","0","0","94815","","null","","","null","48","","","","","","","","","","","","","","","",""
"","ITI","","html-keyboard-response","324","962200","0.0-1.0-441.0","0","0","94815","","null","","","null","48","","","","","","","","","","","","","","","NaN",""
"","S1","","html-keyboard-response","325","962454","0.0-1.0-443.0","0","0","94815","","null","","","null","49","","","","","","","","","","","","","","","",""
"","ISI","","html-keyboard-response","326","962956","0.0-1.0-444.0","0","0","94815","","null","","","null","49","NaN","","","","","","","","","","","","","","",""
"","S2","","html-keyboard-response","327","963210","0.0-1.0-445.0","0","0","94815","","null","","","null","49","","NaN","","","","","","","","","","","","","",""
"","response","","html-keyboard-response","328","963790","0.0-1.0-446.0-0.0","0","0","94815","","578","","","68","49","","","2","49","training","adjacent","FG","6","7","P.jpg","L.jpg","0","1","0","",""
"","feedback","","html-keyboard-response","329","964793","0.0-1.0-447.0-0.0","0","0","94815","","null","","","null","49","","","","","","","","","","","","","","","",""
"","time_out","","html-keyboard-response","330","966796","0.0-1.0-449.0-0.0","0","0","94815","","null","","","null","49","","","","","","","","","","","","","","","",""
"","ITI","","html-keyboard-response","331","967799","0.0-1.0-450.0","0","0","94815","","null","","","null","49","","","","","","","","","","","","","","","NaN",""
"","S1","","html-keyboard-response","332","968051","0.0-1.0-452.0","0","0","94815","","null","","","null","50","","","","","","","","","","","","","","","",""
"","ISI","","html-keyboard-response","333","968554","0.0-1.0-453.0","0","0","94815","","null","","","null","50","NaN","","","","","","","","","","","","","","",""
"","S2","","html-keyboard-response","334","968807","0.0-1.0-454.0","0","0","94815","","null","","","null","50","","NaN","","","","","","","","","","","","","",""
"","response","","html-keyboard-response","335","969134","0.0-1.0-455.0-0.0","0","0","94815","","327","","","75","50","","","2","50","training","adjacent","BA","2","1","Q.jpg","N.jpg","1","0","0","",""
"","feedback","","html-keyboard-response","336","970138","0.0-1.0-456.0-0.0","0","0","94815","","null","","","null","50","","","","","","","","","","","","","","","",""
"","time_out","","html-keyboard-response","337","972142","0.0-1.0-458.0-0.0","0","0","94815","","null","","","null","50","","","","","","","","","","","","","","","",""
"","ITI","","html-keyboard-response","338","973144","0.0-1.0-459.0","0","0","94815","","null","","","null","50","","","","","","","","","","","","","","","NaN",""
"","S1","","html-keyboard-response","339","973400","0.0-1.0-461.0","0","0","94815","","null","","","null","51","","","","","","","","","","","","","","","",""
"","ISI","","html-keyboard-response","340","973903","0.0-1.0-462.0","0","0","94815","","null","","","null","51","NaN","","","","","","","","","","","","","","",""
"","S2","","html-keyboard-response","341","974157","0.0-1.0-463.0","0","0","94815","","null","","","null","51","","NaN","","","","","","","","","","","","","",""
"","response","","html-keyboard-response","342","974228","0.0-1.0-464.0-0.0","0","0","94815","","70","","","68","51","","","2","51","training","adjacent","BA","2","1","Q.jpg","N.jpg","0","0","1","",""
"","feedback","","html-keyboard-response","343","975234","0.0-1.0-465.0-0.0","0","0","94815","","null","","","null","51","","","","","","","","","","","","","","","",""
"","ITI","","html-keyboard-response","344","976237","0.0-1.0-468.0","0","0","94815","","null","","","null","51","","","","","","","","","","","","","","","NaN",""
"","S1","","html-keyboard-response","345","976490","0.0-1.0-470.0","0","0","94815","","null","","","null","52","","","","","","","","","","","","","","","",""
"","ISI","","html-keyboard-response","346","976993","0.0-1.0-471.0","0","0","94815","","null","","","null","52","NaN","","","","","","","","","","","","","","",""
"","S2","","html-keyboard-response","347","977245","0.0-1.0-472.0","0","0","94815","","null","","","null","52","","NaN","","","","","","","","","","","","","",""
"","response","","html-keyboard-response","348","977637","0.0-1.0-473.0-0.0","0","0","94815","","391","","","75","52","","","2","52","training","adjacent","AB","1","2","N.jpg","Q.jpg","1","1","1","",""
"","feedback","","html-keyboard-response","349","978641","0.0-1.0-474.0-0.0","0","0","94815","","null","","","null","52","","","","","","","","","","","","","","","",""
"","ITI","","html-keyboard-response","350","979643","0.0-1.0-477.0","0","0","94815","","null","","","null","52","","","","","","","","","","","","","","","NaN",""
"","S1","","html-keyboard-response","351","979895","0.0-1.0-479.0","0","0","94815","","null","","","null","53","","","","","","","","","","","","","","","",""
"","ISI","","html-keyboard-response","352","980398","0.0-1.0-480.0","0","0","94815","","null","","","null","53","NaN","","","","","","","","","","","","","","",""
"","S2","","html-keyboard-response","353","980651","0.0-1.0-481.0","0","0","94815","","null","","","null","53","","NaN","","","","","","","","","","","","","",""
"","response","","html-keyboard-response","354","981019","0.0-1.0-482.0-0.0","0","0","94815","","366","","","75","53","","","2","53","training","adjacent","CD","3","4","O.jpg","R.jpg","1","1","1","",""
"","feedback","","html-keyboard-response","355","982027","0.0-1.0-483.0-0.0","0","0","94815","","null","","","null","53","","","","","","","","","","","","","","","",""
"","ITI","","html-keyboard-response","356","983029","0.0-1.0-486.0","0","0","94815","","null","","","null","53","","","","","","","","","","","","","","","NaN",""
"","S1","","html-keyboard-response","357","983282","0.0-1.0-488.0","0","0","94815","","null","","","null","54","","","","","","","","","","","","","","","",""
"","ISI","","html-keyboard-response","358","983784","0.0-1.0-489.0","0","0","94815","","null","","","null","54","NaN","","","","","","","","","","","","","","",""
"","S2","","html-keyboard-response","359","984037","0.0-1.0-490.0","0","0","94815","","null","","","null","54","","NaN","","","","","","","","","","","","","",""
"","response","","html-keyboard-response","360","984165","0.0-1.0-491.0-0.0","0","0","94815","","127","","","68","54","","","2","54","training","adjacent","AB","1","2","N.jpg","Q.jpg","0","1","0","",""
"","feedback","","html-keyboard-response","361","985167","0.0-1.0-492.0-0.0","0","0","94815","","null","","","null","54","","","","","","","","","","","","","","","",""
"","time_out","","html-keyboard-response","362","987169","0.0-1.0-494.0-0.0","0","0","94815","","null","","","null","54","","","","","","","","","","","","","","","",""
"","ITI","","html-keyboard-response","363","988173","0.0-1.0-495.0","0","0","94815","","856","","","68","54","","","","","","","","","","","","","","","d",""
"","S1","","html-keyboard-response","364","988426","0.0-1.0-497.0","0","0","94815","","null","","","null","55","","","","","","","","","","","","","","","",""
"","ISI","","html-keyboard-response","365","988931","0.0-1.0-498.0","0","0","94815","","214","","","68","55","d","","","","","","","","","","","","","","",""
"","S2","","html-keyboard-response","366","989185","0.0-1.0-499.0","0","0","94815","","null","","","null","55","","NaN","","","","","","","","","","","","","",""
"","response","","html-keyboard-response","367","989277","0.0-1.0-500.0-0.0","0","0","94815","","89","","","68","55","","","2","55","training","adjacent","AB","1","2","N.jpg","Q.jpg","0","1","0","",""
"","feedback","","html-keyboard-response","368","990285","0.0-1.0-501.0-0.0","0","0","94815","","null","","","null","55","","","","","","","","","","","","","","","",""
"","time_out","","html-keyboard-response","369","992287","0.0-1.0-503.0-0.0","0","0","94815","","null","","","null","55","","","","","","","","","","","","","","","",""
"","ITI","","html-keyboard-response","370","993289","0.0-1.0-504.0","0","0","94815","","null","","","null","55","","","","","","","","","","","","","","","NaN",""
"","S1","","html-keyboard-response","371","993541","0.0-1.0-506.0","0","0","94815","","null","","","null","56","","","","","","","","","","","","","","","",""
"","ISI","","html-keyboard-response","372","994048","0.0-1.0-507.0","0","0","94815","","null","","","null","56","NaN","","","","","","","","","","","","","","",""
"","S2","","html-keyboard-response","373","994303","0.0-1.0-508.0","0","0","94815","","null","","","null","56","","NaN","","","","","","","","","","","","","",""
"","response","","html-keyboard-response","374","994338","0.0-1.0-509.0-0.0","0","0","94815","","34","","","75","56","","","2","56","training","adjacent","BC","2","3","Q.jpg","O.jpg","1","1","1","",""
"","feedback","","html-keyboard-response","375","995341","0.0-1.0-510.0-0.0","0","0","94815","","null","","","null","56","","","","","","","","","","","","","","","",""
"","ITI","","html-keyboard-response","376","996345","0.0-1.0-513.0","0","0","94815","","null","","","null","56","","","","","","","","","","","","","","","NaN",""
"","S1","","html-keyboard-response","377","996598","0.0-1.0-515.0","0","0","94815","","null","","","null","57","","","","","","","","","","","","","","","",""
"","ISI","","html-keyboard-response","378","997102","0.0-1.0-516.0","0","0","94815","","null","","","null","57","NaN","","","","","","","","","","","","","","",""
"","S2","","html-keyboard-response","379","997356","0.0-1.0-517.0","0","0","94815","","null","","","null","57","","NaN","","","","","","","","","","","","","",""
"","response","","html-keyboard-response","380","997643","0.0-1.0-518.0-0.0","0","0","94815","","285","","","68","57","","","2","57","training","adjacent","GF","7","6","L.jpg","P.jpg","0","0","1","",""
"","feedback","","html-keyboard-response","381","998646","0.0-1.0-519.0-0.0","0","0","94815","","null","","","null","57","","","","","","","","","","","","","","","",""
"","ITI","","html-keyboard-response","382","999649","0.0-1.0-522.0","0","0","94815","","null","","","null","57","","","","","","","","","","","","","","","NaN",""
"","S1","","html-keyboard-response","383","999903","0.0-1.0-524.0","0","0","94815","","null","","","null","58","","","","","","","","","","","","","","","",""
"","ISI","","html-keyboard-response","384","1000406","0.0-1.0-525.0","0","0","94815","","null","","","null","58","NaN","","","","","","","","","","","","","","",""
"","S2","","html-keyboard-response","385","1000660","0.0-1.0-526.0","0","0","94815","","null","","","null","58","","NaN","","","","","","","","","","","","","",""
"","response","","html-keyboard-response","386","1000954","0.0-1.0-527.0-0.0","0","0","94815","","293","","","75","58","","","2","58","training","adjacent","AB","1","2","N.jpg","Q.jpg","1","1","1","",""
"","feedback","","html-keyboard-response","387","1001958","0.0-1.0-528.0-0.0","0","0","94815","","null","","","null","58","","","","","","","","","","","","","","","",""
"","ITI","","html-keyboard-response","388","1002964","0.0-1.0-531.0","0","0","94815","","null","","","null","58","","","","","","","","","","","","","","","NaN",""
"","S1","","html-keyboard-response","389","1003218","0.0-1.0-533.0","0","0","94815","","null","","","null","59","","","","","","","","","","","","","","","",""
"","ISI","","html-keyboard-response","390","1003722","0.0-1.0-534.0","0","0","94815","","null","","","null","59","NaN","","","","","","","","","","","","","","",""
"","S2","","html-keyboard-response","391","1003975","0.0-1.0-535.0","0","0","94815","","null","","","null","59","","NaN","","","","","","","","","","","","","",""
"","response","","html-keyboard-response","392","1003992","0.0-1.0-536.0-0.0","0","0","94815","","14","","","68","59","","","2","59","training","adjacent","EF","5","6","M.jpg","P.jpg","0","1","0","",""
"","feedback","","html-keyboard-response","393","1004997","0.0-1.0-537.0-0.0","0","0","94815","","null","","","null","59","","","","","","","","","","","","","","","",""
"","time_out","","html-keyboard-response","394","1007000","0.0-1.0-539.0-0.0","0","0","94815","","null","","","null","59","","","","","","","","","","","","","","","",""
"","ITI","","html-keyboard-response","395","1008003","0.0-1.0-540.0","0","0","94815","","null","","","null","59","","","","","","","","","","","","","","","NaN",""
"","S1","","html-keyboard-response","396","1008256","0.0-1.0-542.0","0","0","94815","","null","","","null","60","","","","","","","","","","","","","","","",""
"","ISI","","html-keyboard-response","397","1008758","0.0-1.0-543.0","0","0","94815","","null","","","null","60","NaN","","","","","","","","","","","","","","",""
"","S2","","html-keyboard-response","398","1009012","0.0-1.0-544.0","0","0","94815","","null","","","null","60","","NaN","","","","","","","","","","","","","",""
"","response","","html-keyboard-response","399","1009402","0.0-1.0-545.0-0.0","0","0","94815","","387","","","75","60","","","2","60","training","adjacent","CD","3","4","O.jpg","R.jpg","1","1","1","",""
"","feedback","","html-keyboard-response","400","1010406","0.0-1.0-546.0-0.0","0","0","94815","","null","","","null","60","","","","","","","","","","","","","","","",""
"","ITI","","html-keyboard-response","401","1011409","0.0-1.0-549.0","0","0","94815","","null","","","null","60","","","","","","","","","","","","","","","NaN",""
"","S1","","html-keyboard-response","402","1011662","0.0-1.0-551.0","0","0","94815","","null","","","null","61","","","","","","","","","","","","","","","",""
"","ISI","","html-keyboard-response","403","1012179","0.0-1.0-552.0","0","0","94815","","null","","","null","61","NaN","","","","","","","","","","","","","","",""
"","S2","","html-keyboard-response","404","1012432","0.0-1.0-553.0","0","0","94815","","null","","","null","61","","NaN","","","","","","","","","","","","","",""
"","response","","html-keyboard-response","405","1012815","0.0-1.0-554.0-0.0","0","0","94815","","382","","","75","61","","","2","61","training","adjacent","CD","3","4","O.jpg","R.jpg","1","1","1","",""
"","feedback","","html-keyboard-response","406","1013818","0.0-1.0-555.0-0.0","0","0","94815","","null","","","null","61","","","","","","","","","","","","","","","",""
"","ITI","","html-keyboard-response","407","1014821","0.0-1.0-558.0","0","0","94815","","null","","","null","61","","","","","","","","","","","","","","","NaN",""
"","S1","","html-keyboard-response","408","1015075","0.0-1.0-560.0","0","0","94815","","null","","","null","62","","","","","","","","","","","","","","","",""
"","ISI","","html-keyboard-response","409","1015577","0.0-1.0-561.0","0","0","94815","","null","","","null","62","NaN","","","","","","","","","","","","","","",""
"","S2","","html-keyboard-response","410","1015831","0.0-1.0-562.0","0","0","94815","","null","","","null","62","","NaN","","","","","","","","","","","","","",""
"","response","","html-keyboard-response","411","1016223","0.0-1.0-563.0-0.0","0","0","94815","","390","","","75","62","","","2","62","training","adjacent","ED","5","4","M.jpg","R.jpg","1","0","0","",""
"","feedback","","html-keyboard-response","412","1017227","0.0-1.0-564.0-0.0","0","0","94815","","null","","","null","62","","","","","","","","","","","","","","","",""
"","time_out","","html-keyboard-response","413","1019230","0.0-1.0-566.0-0.0","0","0","94815","","null","","","null","62","","","","","","","","","","","","","","","",""
"","ITI","","html-keyboard-response","414","1020233","0.0-1.0-567.0","0","0","94815","","null","","","null","62","","","","","","","","","","","","","","","NaN",""
"","S1","","html-keyboard-response","415","1020485","0.0-1.0-569.0","0","0","94815","","null","","","null","63","","","","","","","","","","","","","","","",""
"","ISI","","html-keyboard-response","416","1020987","0.0-1.0-570.0","0","0","94815","","null","","","null","63","NaN","","","","","","","","","","","","","","",""
"","S2","","html-keyboard-response","417","1021240","0.0-1.0-571.0","0","0","94815","","null","","","null","63","","NaN","","","","","","","","","","","","","",""
"","response","","html-keyboard-response","418","1021282","0.0-1.0-572.0-0.0","0","0","94815","","39","","","68","63","","","2","63","training","adjacent","CB","3","2","O.jpg","Q.jpg","0","0","1","",""
"","feedback","","html-keyboard-response","419","1022286","0.0-1.0-573.0-0.0","0","0","94815","","null","","","null","63","","","","","","","","","","","","","","","",""
"","ITI","","html-keyboard-response","420","1023289","0.0-1.0-576.0","0","0","94815","","null","","","null","63","","","","","","","","","","","","","","","NaN",""
"","S1","","html-keyboard-response","421","1023543","0.0-1.0-578.0","0","0","94815","","null","","","null","64","","","","","","","","","","","","","","","",""
"","ISI","","html-keyboard-response","422","1024046","0.0-1.0-579.0","0","0","94815","","null","","","null","64","NaN","","","","","","","","","","","","","","",""
"","S2","","html-keyboard-response","423","1024299","0.0-1.0-580.0","0","0","94815","","null","","","null","64","","NaN","","","","","","","","","","","","","",""
"","response","","html-keyboard-response","424","1024644","0.0-1.0-581.0-0.0","0","0","94815","","341","","","75","64","","","2","64","training","adjacent","ED","5","4","M.jpg","R.jpg","1","0","0","",""
"","feedback","","html-keyboard-response","425","1025647","0.0-1.0-582.0-0.0","0","0","94815","","null","","","null","64","","","","","","","","","","","","","","","",""
"","time_out","","html-keyboard-response","426","1027650","0.0-1.0-584.0-0.0","0","0","94815","","null","","","null","64","","","","","","","","","","","","","","","",""
"","ITI","","html-keyboard-response","427","1028654","0.0-1.0-585.0","0","0","94815","","null","","","null","64","","","","","","","","","","","","","","","NaN",""
"","S1","","html-keyboard-response","428","1028907","0.0-1.0-587.0","0","0","94815","","null","","","null","65","","","","","","","","","","","","","","","",""
"","ISI","","html-keyboard-response","429","1029409","0.0-1.0-588.0","0","0","94815","","null","","","null","65","NaN","","","","","","","","","","","","","","",""
"","S2","","html-keyboard-response","430","1029662","0.0-1.0-589.0","0","0","94815","","null","","","null","65","","NaN","","","","","","","","","","","","","",""
"","response","","html-keyboard-response","431","1030142","0.0-1.0-590.0-0.0","0","0","94815","","478","","","68","65","","","2","65","training","adjacent","BA","2","1","Q.jpg","N.jpg","0","0","1","",""
"","feedback","","html-keyboard-response","432","1031145","0.0-1.0-591.0-0.0","0","0","94815","","null","","","null","65","","","","","","","","","","","","","","","",""
"","ITI","","html-keyboard-response","433","1032148","0.0-1.0-594.0","0","0","94815","","null","","","null","65","","","","","","","","","","","","","","","NaN",""
"","S1","","html-keyboard-response","434","1032402","0.0-1.0-596.0","0","0","94815","","null","","","null","66","","","","","","","","","","","","","","","",""
"","ISI","","html-keyboard-response","435","1032905","0.0-1.0-597.0","0","0","94815","","null","","","null","66","NaN","","","","","","","","","","","","","","",""
"","S2","","html-keyboard-response","436","1033158","0.0-1.0-598.0","0","0","94815","","null","","","null","66","","NaN","","","","","","","","","","","","","",""
"","response","","html-keyboard-response","437","1033219","0.0-1.0-599.0-0.0","0","0","94815","","59","","","75","66","","","2","66","training","adjacent","FE","6","5","P.jpg","M.jpg","1","0","0","",""
"","feedback","","html-keyboard-response","438","1034227","0.0-1.0-600.0-0.0","0","0","94815","","null","","","null","66","","","","","","","","","","","","","","","",""
"","time_out","","html-keyboard-response","439","1036230","0.0-1.0-602.0-0.0","0","0","94815","","null","","","null","66","","","","","","","","","","","","","","","",""
"","ITI","","html-keyboard-response","440","1037234","0.0-1.0-603.0","0","0","94815","","null","","","null","66","","","","","","","","","","","","","","","NaN",""
"","S1","","html-keyboard-response","441","1037489","0.0-1.0-605.0","0","0","94815","","null","","","null","67","","","","","","","","","","","","","","","",""
"","ISI","","html-keyboard-response","442","1037992","0.0-1.0-606.0","0","0","94815","","null","","","null","67","NaN","","","","","","","","","","","","","","",""
"","S2","","html-keyboard-response","443","1038247","0.0-1.0-607.0","0","0","94815","","null","","","null","67","","NaN","","","","","","","","","","","","","",""
"","response","","html-keyboard-response","444","1038427","0.0-1.0-608.0-0.0","0","0","94815","","179","","","68","67","","","2","67","training","adjacent","CD","3","4","O.jpg","R.jpg","0","1","0","",""
"","feedback","","html-keyboard-response","445","1039431","0.0-1.0-609.0-0.0","0","0","94815","","null","","","null","67","","","","","","","","","","","","","","","",""
"","time_out","","html-keyboard-response","446","1041434","0.0-1.0-611.0-0.0","0","0","94815","","null","","","null","67","","","","","","","","","","","","","","","",""
"","ITI","","html-keyboard-response","447","1042437","0.0-1.0-612.0","0","0","94815","","null","","","null","67","","","","","","","","","","","","","","","NaN",""
"","S1","","html-keyboard-response","448","1042689","0.0-1.0-614.0","0","0","94815","","null","","","null","68","","","","","","","","","","","","","","","",""
"","ISI","","html-keyboard-response","449","1043193","0.0-1.0-615.0","0","0","94815","","468","","","75","68","k","","","","","","","","","","","","","","",""
"","S2","","html-keyboard-response","450","1043453","0.0-1.0-616.0","0","0","94815","","null","","","null","68","","NaN","","","","","","","","","","","","","",""
"","response","","html-keyboard-response","451","1043562","0.0-1.0-617.0-0.0","0","0","94815","","107","","","75","68","","","2","68","training","adjacent","FG","6","7","P.jpg","L.jpg","1","1","1","",""
"","feedback","","html-keyboard-response","452","1044566","0.0-1.0-618.0-0.0","0","0","94815","","null","","","null","68","","","","","","","","","","","","","","","",""
"","ITI","","html-keyboard-response","453","1045570","0.0-1.0-621.0","0","0","94815","","null","","","null","68","","","","","","","","","","","","","","","NaN",""
"","S1","","html-keyboard-response","454","1045823","0.0-1.0-623.0","0","0","94815","","null","","","null","69","","","","","","","","","","","","","","","",""
"","ISI","","html-keyboard-response","455","1046326","0.0-1.0-624.0","0","0","94815","","null","","","null","69","NaN","","","","","","","","","","","","","","",""
"","S2","","html-keyboard-response","456","1046579","0.0-1.0-625.0","0","0","94815","","null","","","null","69","","NaN","","","","","","","","","","","","","",""
"","response","","html-keyboard-response","457","1046716","0.0-1.0-626.0-0.0","0","0","94815","","135","","","68","69","","","2","69","training","adjacent","CB","3","2","O.jpg","Q.jpg","0","0","1","",""
"","feedback","","html-keyboard-response","458","1047719","0.0-1.0-627.0-0.0","0","0","94815","","null","","","null","69","","","","","","","","","","","","","","","",""
"","ITI","","html-keyboard-response","459","1048723","0.0-1.0-630.0","0","0","94815","","null","","","null","69","","","","","","","","","","","","","","","NaN",""
"","S1","","html-keyboard-response","460","1048976","0.0-1.0-632.0","0","0","94815","","null","","","null","70","","","","","","","","","","","","","","","",""
"","ISI","","html-keyboard-response","461","1049479","0.0-1.0-633.0","0","0","94815","","null","","","null","70","NaN","","","","","","","","","","","","","","",""
"","S2","","html-keyboard-response","462","1049732","0.0-1.0-634.0","0","0","94815","","null","","","null","70","","NaN","","","","","","","","","","","","","",""
"","response","","html-keyboard-response","463","1050063","0.0-1.0-635.0-0.0","0","0","94815","","330","","","75","70","","","2","70","training","adjacent","CB","3","2","O.jpg","Q.jpg","1","0","0","",""
"","feedback","","html-keyboard-response","464","1051066","0.0-1.0-636.0-0.0","0","0","94815","","null","","","null","70","","","","","","","","","","","","","","","",""
"","time_out","","html-keyboard-response","465","1053069","0.0-1.0-638.0-0.0","0","0","94815","","null","","","null","70","","","","","","","","","","","","","","","",""
"","ITI","","html-keyboard-response","466","1054073","0.0-1.0-639.0","0","0","94815","","765","","","68","70","","","","","","","","","","","","","","","d",""
"","S1","","html-keyboard-response","467","1054326","0.0-1.0-641.0","0","0","94815","","null","","","null","71","","","","","","","","","","","","","","","",""
"","ISI","","html-keyboard-response","468","1054829","0.0-1.0-642.0","0","0","94815","","252","","","68","71","d","","","","","","","","","","","","","","",""
"","S2","","html-keyboard-response","469","1055074","0.0-1.0-643.0","0","0","94815","","243","","","68","71","","d","2","71","training","adjacent","DC","4","3","R.jpg","O.jpg","0","0","1","",""
"","feedback","","html-keyboard-response","470","1056077","0.0-1.0-645.0-0.0","0","0","94815","","null","","","null","71","","","","","","","","","","","","","","","",""
"","ITI","","html-keyboard-response","471","1057081","0.0-1.0-648.0","0","0","94815","","null","","","null","71","","","","","","","","","","","","","","","NaN",""
"","S1","","html-keyboard-response","472","1057334","0.0-1.0-650.0","0","0","94815","","null","","","null","72","","","","","","","","","","","","","","","",""
"","ISI","","html-keyboard-response","473","1057837","0.0-1.0-651.0","0","0","94815","","null","","","null","72","NaN","","","","","","","","","","","","","","",""
"","S2","","html-keyboard-response","474","1058091","0.0-1.0-652.0","0","0","94815","","null","","","null","72","","NaN","","","","","","","","","","","","","",""
"","response","","html-keyboard-response","475","1058454","0.0-1.0-653.0-0.0","0","0","94815","","361","","","75","72","","","2","72","training","adjacent","DE","4","5","R.jpg","M.jpg","1","1","1","",""
"","feedback","","html-keyboard-response","476","1059457","0.0-1.0-654.0-0.0","0","0","94815","","null","","","null","72","","","","","","","","","","","","","","","",""
"","ITI","","html-keyboard-response","477","1060460","0.0-1.0-657.0","0","0","94815","","null","","","null","72","","","","","","","","","","","","","","","NaN",""
"","S1","","html-keyboard-response","478","1060713","0.0-1.0-659.0","0","0","94815","","null","","","null","73","","","","","","","","","","","","","","","",""
"","ISI","","html-keyboard-response","479","1061217","0.0-1.0-660.0","0","0","94815","","null","","","null","73","NaN","","","","","","","","","","","","","","",""
"","S2","","html-keyboard-response","480","1061472","0.0-1.0-661.0","0","0","94815","","null","","","null","73","","NaN","","","","","","","","","","","","","",""
"","response","","html-keyboard-response","481","1061891","0.0-1.0-662.0-0.0","0","0","94815","","417","","","75","73","","","2","73","training","adjacent","DE","4","5","R.jpg","M.jpg","1","1","1","",""
"","feedback","","html-keyboard-response","482","1062894","0.0-1.0-663.0-0.0","0","0","94815","","null","","","null","73","","","","","","","","","","","","","","","",""
"","ITI","","html-keyboard-response","483","1063897","0.0-1.0-666.0","0","0","94815","","null","","","null","73","","","","","","","","","","","","","","","NaN",""
"","S1","","html-keyboard-response","484","1064156","0.0-1.0-668.0","0","0","94815","","null","","","null","74","","","","","","","","","","","","","","","",""
"","ISI","","html-keyboard-response","485","1064658","0.0-1.0-669.0","0","0","94815","","null","","","null","74","NaN","","","","","","","","","","","","","","",""
"","S2","","html-keyboard-response","486","1064911","0.0-1.0-670.0","0","0","94815","","null","","","null","74","","NaN","","","","","","","","","","","","","",""
"","response","","html-keyboard-response","487","1065973","0.0-1.0-671.0-0.0","0","0","94815","","1059","","","75","74","","","2","74","training","adjacent","DC","4","3","R.jpg","O.jpg","1","0","0","",""
"","feedback","","html-keyboard-response","488","1066976","0.0-1.0-672.0-0.0","0","0","94815","","null","","","null","74","","","","","","","","","","","","","","","",""
"","time_out","","html-keyboard-response","489","1068978","0.0-1.0-674.0-0.0","0","0","94815","","null","","","null","74","","","","","","","","","","","","","","","",""
"","ITI","","html-keyboard-response","490","1069981","0.0-1.0-675.0","0","0","94815","","null","","","null","74","","","","","","","","","","","","","","","NaN",""
"","S1","","html-keyboard-response","491","1070235","0.0-1.0-677.0","0","0","94815","","null","","","null","75","","","","","","","","","","","","","","","",""
"","ISI","","html-keyboard-response","492","1070738","0.0-1.0-678.0","0","0","94815","","null","","","null","75","NaN","","","","","","","","","","","","","","",""
"","S2","","html-keyboard-response","493","1070992","0.0-1.0-679.0","0","0","94815","","null","","","null","75","","NaN","","","","","","","","","","","","","",""
"","response","","html-keyboard-response","494","1071353","0.0-1.0-680.0-0.0","0","0","94815","","360","","","68","75","","","2","75","training","adjacent","BC","2","3","Q.jpg","O.jpg","0","1","0","",""
"","feedback","","html-keyboard-response","495","1072355","0.0-1.0-681.0-0.0","0","0","94815","","null","","","null","75","","","","","","","","","","","","","","","",""
"","time_out","","html-keyboard-response","496","1074358","0.0-1.0-683.0-0.0","0","0","94815","","null","","","null","75","","","","","","","","","","","","","","","",""
"","ITI","","html-keyboard-response","497","1075361","0.0-1.0-684.0","0","0","94815","","null","","","null","75","","","","","","","","","","","","","","","NaN",""
"","S1","","html-keyboard-response","498","1075614","0.0-1.0-686.0","0","0","94815","","null","","","null","76","","","","","","","","","","","","","","","",""
"","ISI","","html-keyboard-response","499","1076118","0.0-1.0-687.0","0","0","94815","","null","","","null","76","NaN","","","","","","","","","","","","","","",""
"","S2","","html-keyboard-response","500","1076372","0.0-1.0-688.0","0","0","94815","","null","","","null","76","","NaN","","","","","","","","","","","","","",""
"","response","","html-keyboard-response","501","1076469","0.0-1.0-689.0-0.0","0","0","94815","","97","","","75","76","","","2","76","training","adjacent","DC","4","3","R.jpg","O.jpg","1","0","0","",""
"","feedback","","html-keyboard-response","502","1077472","0.0-1.0-690.0-0.0","0","0","94815","","null","","","null","76","","","","","","","","","","","","","","","",""
"","time_out","","html-keyboard-response","503","1079475","0.0-1.0-692.0-0.0","0","0","94815","","null","","","null","76","","","","","","","","","","","","","","","",""
"","ITI","","html-keyboard-response","504","1080477","0.0-1.0-693.0","0","0","94815","","null","","","null","76","","","","","","","","","","","","","","","NaN",""
"","S1","","html-keyboard-response","505","1080730","0.0-1.0-695.0","0","0","94815","","null","","","null","77","","","","","","","","","","","","","","","",""
"","ISI","","html-keyboard-response","506","1081232","0.0-1.0-696.0","0","0","94815","","null","","","null","77","NaN","","","","","","","","","","","","","","",""
"","S2","","html-keyboard-response","507","1081486","0.0-1.0-697.0","0","0","94815","","null","","","null","77","","NaN","","","","","","","","","","","","","",""
"","response","","html-keyboard-response","508","1081528","0.0-1.0-698.0-0.0","0","0","94815","","40","","","75","77","","","2","77","training","adjacent","EF","5","6","M.jpg","P.jpg","1","1","1","",""
"","feedback","","html-keyboard-response","509","1082531","0.0-1.0-699.0-0.0","0","0","94815","","null","","","null","77","","","","","","","","","","","","","","","",""
"","ITI","","html-keyboard-response","510","1083535","0.0-1.0-702.0","0","0","94815","","null","","","null","77","","","","","","","","","","","","","","","NaN",""
"","S1","","html-keyboard-response","511","1083788","0.0-1.0-704.0","0","0","94815","","null","","","null","78","","","","","","","","","","","","","","","",""
"","ISI","","html-keyboard-response","512","1084292","0.0-1.0-705.0","0","0","94815","","null","","","null","78","NaN","","","","","","","","","","","","","","",""
"","S2","","html-keyboard-response","513","1084545","0.0-1.0-706.0","0","0","94815","","null","","","null","78","","NaN","","","","","","","","","","","","","",""
"","response","","html-keyboard-response","514","1084610","0.0-1.0-707.0-0.0","0","0","94815","","63","","","75","78","","","2","78","training","adjacent","DE","4","5","R.jpg","M.jpg","1","1","1","",""
"","feedback","","html-keyboard-response","515","1085612","0.0-1.0-708.0-0.0","0","0","94815","","null","","","null","78","","","","","","","","","","","","","","","",""
"","ITI","","html-keyboard-response","516","1086616","0.0-1.0-711.0","0","0","94815","","null","","","null","78","","","","","","","","","","","","","","","NaN",""
"","S1","","html-keyboard-response","517","1086869","0.0-1.0-713.0","0","0","94815","","null","","","null","79","","","","","","","","","","","","","","","",""
"","ISI","","html-keyboard-response","518","1087372","0.0-1.0-714.0","0","0","94815","","null","","","null","79","NaN","","","","","","","","","","","","","","",""
"","S2","","html-keyboard-response","519","1087626","0.0-1.0-715.0","0","0","94815","","null","","","null","79","","NaN","","","","","","","","","","","","","",""
"","response","","html-keyboard-response","520","1087956","0.0-1.0-716.0-0.0","0","0","94815","","328","","","75","79","","","2","79","training","adjacent","FE","6","5","P.jpg","M.jpg","1","0","0","",""
"","feedback","","html-keyboard-response","521","1088958","0.0-1.0-717.0-0.0","0","0","94815","","null","","","null","79","","","","","","","","","","","","","","","",""
"","time_out","","html-keyboard-response","522","1090961","0.0-1.0-719.0-0.0","0","0","94815","","null","","","null","79","","","","","","","","","","","","","","","",""
"","ITI","","html-keyboard-response","523","1091965","0.0-1.0-720.0","0","0","94815","","null","","","null","79","","","","","","","","","","","","","","","NaN",""
"","S1","","html-keyboard-response","524","1092218","0.0-1.0-722.0","0","0","94815","","null","","","null","80","","","","","","","","","","","","","","","",""
"","ISI","","html-keyboard-response","525","1092721","0.0-1.0-723.0","0","0","94815","","325","","","68","80","d","","","","","","","","","","","","","","",""
"","S2","","html-keyboard-response","526","1092975","0.0-1.0-724.0","0","0","94815","","null","","","null","80","","NaN","","","","","","","","","","","","","",""
"","response","","html-keyboard-response","527","1093016","0.0-1.0-725.0-0.0","0","0","94815","","37","","","68","80","","","2","80","training","adjacent","GF","7","6","L.jpg","P.jpg","0","0","1","",""
"","feedback","","html-keyboard-response","528","1094019","0.0-1.0-726.0-0.0","0","0","94815","","null","","","null","80","","","","","","","","","","","","","","","",""
"","ITI","","html-keyboard-response","529","1095022","0.0-1.0-729.0","0","0","94815","","null","","","null","80","","","","","","","","","","","","","","","NaN",""
"","S1","","html-keyboard-response","530","1095275","0.0-1.0-731.0","0","0","94815","","null","","","null","81","","","","","","","","","","","","","","","",""
"","ISI","","html-keyboard-response","531","1095778","0.0-1.0-732.0","0","0","94815","","null","","","null","81","NaN","","","","","","","","","","","","","","",""
"","S2","","html-keyboard-response","532","1096031","0.0-1.0-733.0","0","0","94815","","null","","","null","81","","NaN","","","","","","","","","","","","","",""
"","response","","html-keyboard-response","533","1096373","0.0-1.0-734.0-0.0","0","0","94815","","340","","","68","81","","","2","81","training","adjacent","CB","3","2","O.jpg","Q.jpg","0","0","1","",""
"","feedback","","html-keyboard-response","534","1097377","0.0-1.0-735.0-0.0","0","0","94815","","null","","","null","81","","","","","","","","","","","","","","","",""
"","ITI","","html-keyboard-response","535","1098379","0.0-1.0-738.0","0","0","94815","","null","","","null","81","","","","","","","","","","","","","","","NaN",""
"","S1","","html-keyboard-response","536","1098632","0.0-1.0-740.0","0","0","94815","","null","","","null","82","","","","","","","","","","","","","","","",""
"","ISI","","html-keyboard-response","537","1099136","0.0-1.0-741.0","0","0","94815","","null","","","null","82","NaN","","","","","","","","","","","","","","",""
"","S2","","html-keyboard-response","538","1099390","0.0-1.0-742.0","0","0","94815","","null","","","null","82","","NaN","","","","","","","","","","","","","",""
"","response","","html-keyboard-response","539","1099657","0.0-1.0-743.0-0.0","0","0","94815","","265","","","75","82","","","2","82","training","adjacent","BC","2","3","Q.jpg","O.jpg","1","1","1","",""
"","feedback","","html-keyboard-response","540","1100661","0.0-1.0-744.0-0.0","0","0","94815","","null","","","null","82","","","","","","","","","","","","","","","",""
"","ITI","","html-keyboard-response","541","1101664","0.0-1.0-747.0","0","0","94815","","null","","","null","82","","","","","","","","","","","","","","","NaN",""
"","S1","","html-keyboard-response","542","1101917","0.0-1.0-749.0","0","0","94815","","null","","","null","83","","","","","","","","","","","","","","","",""
"","ISI","","html-keyboard-response","543","1102421","0.0-1.0-750.0","0","0","94815","","null","","","null","83","NaN","","","","","","","","","","","","","","",""
"","S2","","html-keyboard-response","544","1102674","0.0-1.0-751.0","0","0","94815","","null","","","null","83","","NaN","","","","","","","","","","","","","",""
"","response","","html-keyboard-response","545","1103057","0.0-1.0-752.0-0.0","0","0","94815","","380","","","68","83","","","2","83","training","adjacent","FG","6","7","P.jpg","L.jpg","0","1","0","",""
"","feedback","","html-keyboard-response","546","1104062","0.0-1.0-753.0-0.0","0","0","94815","","null","","","null","83","","","","","","","","","","","","","","","",""
"","time_out","","html-keyboard-response","547","1106066","0.0-1.0-755.0-0.0","0","0","94815","","null","","","null","83","","","","","","","","","","","","","","","",""
"","ITI","","html-keyboard-response","548","1107069","0.0-1.0-756.0","0","0","94815","","null","","","null","83","","","","","","","","","","","","","","","NaN",""
"","S1","","html-keyboard-response","549","1107322","0.0-1.0-758.0","0","0","94815","","null","","","null","84","","","","","","","","","","","","","","","",""
"","ISI","","html-keyboard-response","550","1107825","0.0-1.0-759.0","0","0","94815","","null","","","null","84","NaN","","","","","","","","","","","","","","",""
"","S2","","html-keyboard-response","551","1108078","0.0-1.0-760.0","0","0","94815","","null","","","null","84","","NaN","","","","","","","","","","","","","",""
"","response","","html-keyboard-response","552","1108458","0.0-1.0-761.0-0.0","0","0","94815","","377","","","68","84","","","2","84","training","adjacent","GF","7","6","L.jpg","P.jpg","0","0","1","",""
"","feedback","","html-keyboard-response","553","1109462","0.0-1.0-762.0-0.0","0","0","94815","","null","","","null","84","","","","","","","","","","","","","","","",""
"","ITI","","html-keyboard-response","554","1110466","0.0-1.0-765.0","0","0","94815","","null","","","null","84","","","","","","","","","","","","","","","NaN",""
"","S1","","html-keyboard-response","555","1110727","0.0-1.0-767.0","0","0","94815","","null","","","null","85","","","","","","","","","","","","","","","",""
"","ISI","","html-keyboard-response","556","1111230","0.0-1.0-768.0","0","0","94815","","null","","","null","85","NaN","","","","","","","","","","","","","","",""
"","S2","","html-keyboard-response","557","1111483","0.0-1.0-769.0","0","0","94815","","null","","","null","85","","NaN","","","","","","","","","","","","","",""
"","response","","html-keyboard-response","558","1111842","0.0-1.0-770.0-0.0","0","0","94815","","357","","","68","85","","","2","85","training","adjacent","FG","6","7","P.jpg","L.jpg","0","1","0","",""
"","feedback","","html-keyboard-response","559","1112845","0.0-1.0-771.0-0.0","0","0","94815","","null","","","null","85","","","","","","","","","","","","","","","",""
"","time_out","","html-keyboard-response","560","1114848","0.0-1.0-773.0-0.0","0","0","94815","","null","","","null","85","","","","","","","","","","","","","","","",""
"","ITI","","html-keyboard-response","561","1115852","0.0-1.0-774.0","0","0","94815","","null","","","null","85","","","","","","","","","","","","","","","NaN",""
"","S1","","html-keyboard-response","562","1116104","0.0-1.0-776.0","0","0","94815","","null","","","null","86","","","","","","","","","","","","","","","",""
"","ISI","","html-keyboard-response","563","1116608","0.0-1.0-777.0","0","0","94815","","null","","","null","86","NaN","","","","","","","","","","","","","","",""
"","S2","","html-keyboard-response","564","1116862","0.0-1.0-778.0","0","0","94815","","null","","","null","86","","NaN","","","","","","","","","","","","","",""
"","response","","html-keyboard-response","565","1117253","0.0-1.0-779.0-0.0","0","0","94815","","390","","","75","86","","","2","86","training","adjacent","EF","5","6","M.jpg","P.jpg","1","1","1","",""
"","feedback","","html-keyboard-response","566","1118256","0.0-1.0-780.0-0.0","0","0","94815","","null","","","null","86","","","","","","","","","","","","","","","",""
"","ITI","","html-keyboard-response","567","1119261","0.0-1.0-783.0","0","0","94815","","null","","","null","86","","","","","","","","","","","","","","","NaN",""
"","S1","","html-keyboard-response","568","1119514","0.0-1.0-785.0","0","0","94815","","null","","","null","87","","","","","","","","","","","","","","","",""
"","ISI","","html-keyboard-response","569","1120016","0.0-1.0-786.0","0","0","94815","","null","","","null","87","NaN","","","","","","","","","","","","","","",""
"","S2","","html-keyboard-response","570","1120269","0.0-1.0-787.0","0","0","94815","","null","","","null","87","","NaN","","","","","","","","","","","","","",""
"","response","","html-keyboard-response","571","1120615","0.0-1.0-788.0-0.0","0","0","94815","","344","","","75","87","","","2","87","training","adjacent","EF","5","6","M.jpg","P.jpg","1","1","1","",""
"","feedback","","html-keyboard-response","572","1121619","0.0-1.0-789.0-0.0","0","0","94815","","null","","","null","87","","","","","","","","","","","","","","","",""
"","ITI","","html-keyboard-response","573","1122622","0.0-1.0-792.0","0","0","94815","","null","","","null","87","","","","","","","","","","","","","","","NaN",""
"","S1","","html-keyboard-response","574","1122875","0.0-1.0-794.0","0","0","94815","","null","","","null","88","","","","","","","","","","","","","","","",""
"","ISI","","html-keyboard-response","575","1123377","0.0-1.0-795.0","0","0","94815","","null","","","null","88","NaN","","","","","","","","","","","","","","",""
"","S2","","html-keyboard-response","576","1123631","0.0-1.0-796.0","0","0","94815","","null","","","null","88","","NaN","","","","","","","","","","","","","",""
"","response","","html-keyboard-response","577","1124303","0.0-1.0-797.0-0.0","0","0","94815","","670","","","68","88","","","2","88","training","adjacent","DC","4","3","R.jpg","O.jpg","0","0","1","",""
"","feedback","","html-keyboard-response","578","1125307","0.0-1.0-798.0-0.0","0","0","94815","","null","","","null","88","","","","","","","","","","","","","","","",""
"","ITI","","html-keyboard-response","579","1126310","0.0-1.0-801.0","0","0","94815","","null","","","null","88","","","","","","","","","","","","","","","NaN",""
"","S1","","html-keyboard-response","580","1126563","0.0-1.0-803.0","0","0","94815","","null","","","null","89","","","","","","","","","","","","","","","",""
"","ISI","","html-keyboard-response","581","1127065","0.0-1.0-804.0","0","0","94815","","null","","","null","89","NaN","","","","","","","","","","","","","","",""
