"success","ttype","start_time","trial_type","trial_index","time_elapsed","internal_node_id","warning","missed_checkup","PID","view_history","rt","responses","repeat_instructions","key_press","index","keypress_isi","keypress_S2","block","trial_num","phase","group_type","pair_type","S1_stim","S2_stim","S1_img","S2_img","S1_chosen","S1_higher","accuracy","keypress_iti","total_bonus_tally"
"true","full_screen","d04132023hr1622","fullscreen","0","10120","0.0-0.0","0","0","28538","","","","","","","","","","","","","","","","","","","","","",""
"","instructions","","instructions","1","63649","0.0-1.0-0.0-0.0","0","0","28538","[{""page_index"":0,""viewing_time"":6667},{""page_index"":1,""viewing_time"":30208},{""page_index"":2,""viewing_time"":14039},{""page_index"":3,""viewing_time"":2609}]","53523","","","","","","","","","","","","","","","","","","","",""
"","comprehension_check","","survey-multi-choice","2","88094","0.0-1.0-0.0-1.0","0","0","28538","","24440","{""Q0"":""True"",""Q1"":""D"",""Q2"":""Once the second image appears and while the screen 'MAKE A CHOICE' is shown"",""Q3"":""Green mark"",""Q4"":""either D or K""}","0","","","","","","","","","","","","","","","","","",""
"","start_exp","","html-keyboard-response","3","91405","0.0-1.0-1.0","0","0","28538","","3306","","","32","","","","","","","","","","","","","","","","",""
"","S1","","html-keyboard-response","4","91664","0.0-1.0-2.0","0","0","28538","","null","","","null","0","","","","","","","","","","","","","","","",""
"","ISI","","html-keyboard-response","5","92679","0.0-1.0-3.0","0","0","28538","","null","","","null","0","NaN","","","","","","","","","","","","","","",""
"","S2","","html-keyboard-response","6","92944","0.0-1.0-4.0","0","0","28538","","null","","","null","0","","NaN","","","","","","","","","","","","","",""
"","response","","html-keyboard-response","7","94711","0.0-1.0-5.0-0.0","0","0","28538","","null","","","null","0","","","1","0","training","adjacent","DC","4","3","R.jpg","M.jpg","NaN","0","0","",""
"","too_slow_prompt","","html-keyboard-response","8","95722","0.0-1.0-7.0-0.0","1","0","28538","","null","","","null","","","","","","","","","","","","","","","","",""
"","time_out","","html-keyboard-response","9","97733","0.0-1.0-8.0-0.0","0","0","28538","","null","","","null","0","","","","","","","","","","","","","","","",""
"","ITI","","html-keyboard-response","10","98753","0.0-1.0-9.0","0","0","28538","","null","","","null","0","","","","","","","","","","","","","","","NaN",""
"","S1","","html-keyboard-response","11","99016","0.0-1.0-11.0","0","0","28538","","null","","","null","1","","","","","","","","","","","","","","","",""
"","ISI","","html-keyboard-response","12","100034","0.0-1.0-12.0","0","0","28538","","null","","","null","1","NaN","","","","","","","","","","","","","","",""
"","S2","","html-keyboard-response","13","100298","0.0-1.0-13.0","0","0","28538","","null","","","null","1","","NaN","","","","","","","","","","","","","",""
"","response","","html-keyboard-response","14","100939","0.0-1.0-14.0-0.0","0","0","28538","","636","","","75","1","","","1","1","training","adjacent","ED","5","4","L.jpg","R.jpg","0","0","1","",""
"","feedback","","html-keyboard-response","15","101949","0.0-1.0-15.0-0.0","0","0","28538","","null","","","null","1","","","","","","","","","","","","","","","",""
"","ITI","","html-keyboard-response","16","102967","0.0-1.0-18.0","0","0","28538","","null","","","null","1","","","","","","","","","","","","","","","NaN",""
"","S1","","html-keyboard-response","17","103232","0.0-1.0-20.0","0","0","28538","","null","","","null","2","","","","","","","","","","","","","","","",""
"","ISI","","html-keyboard-response","18","104244","0.0-1.0-21.0","0","0","28538","","null","","","null","2","NaN","","","","","","","","","","","","","","",""
"","S2","","html-keyboard-response","19","104509","0.0-1.0-22.0","0","0","28538","","null","","","null","2","","NaN","","","","","","","","","","","","","",""
"","response","","html-keyboard-response","20","105385","0.0-1.0-23.0-0.0","0","0","28538","","873","","","75","2","","","1","2","training","adjacent","FE","6","5","P.jpg","L.jpg","0","0","1","",""
"","feedback","","html-keyboard-response","21","106392","0.0-1.0-24.0-0.0","0","0","28538","","null","","","null","2","","","","","","","","","","","","","","","",""
"","ITI","","html-keyboard-response","22","107404","0.0-1.0-27.0","0","0","28538","","null","","","null","2","","","","","","","","","","","","","","","NaN",""
"","S1","","html-keyboard-response","23","107656","0.0-1.0-29.0","0","0","28538","","null","","","null","3","","","","","","","","","","","","","","","",""
"","ISI","","html-keyboard-response","24","108660","0.0-1.0-30.0","0","0","28538","","null","","","null","3","NaN","","","","","","","","","","","","","","",""
"","S2","","html-keyboard-response","25","108925","0.0-1.0-31.0","0","0","28538","","null","","","null","3","","NaN","","","","","","","","","","","","","",""
"","response","","html-keyboard-response","26","109065","0.0-1.0-32.0-0.0","0","0","28538","","136","","","75","3","","","1","3","training","adjacent","EF","5","6","L.jpg","P.jpg","0","1","0","",""
"","feedback","","html-keyboard-response","27","110082","0.0-1.0-33.0-0.0","0","0","28538","","null","","","null","3","","","","","","","","","","","","","","","",""
"","time_out","","html-keyboard-response","28","112097","0.0-1.0-35.0-0.0","0","0","28538","","null","","","null","3","","","","","","","","","","","","","","","",""
"","ITI","","html-keyboard-response","29","113114","0.0-1.0-36.0","0","0","28538","","null","","","null","3","","","","","","","","","","","","","","","NaN",""
"","S1","","html-keyboard-response","30","113382","0.0-1.0-38.0","0","0","28538","","null","","","null","4","","","","","","","","","","","","","","","",""
"","ISI","","html-keyboard-response","31","114394","0.0-1.0-39.0","0","0","28538","","null","","","null","4","NaN","","","","","","","","","","","","","","",""
"","S2","","html-keyboard-response","32","114659","0.0-1.0-40.0","0","0","28538","","null","","","null","4","","NaN","","","","","","","","","","","","","",""
"","response","","html-keyboard-response","33","115099","0.0-1.0-41.0-0.0","0","0","28538","","436","","","75","4","","","1","4","training","adjacent","BA","2","1","N.jpg","Q.jpg","0","0","1","",""
"","feedback","","html-keyboard-response","34","116104","0.0-1.0-42.0-0.0","0","0","28538","","null","","","null","4","","","","","","","","","","","","","","","",""
"","ITI","","html-keyboard-response","35","117121","0.0-1.0-45.0","0","0","28538","","null","","","null","4","","","","","","","","","","","","","","","NaN",""
"","S1","","html-keyboard-response","36","117387","0.0-1.0-47.0","0","0","28538","","null","","","null","5","","","","","","","","","","","","","","","",""
"","ISI","","html-keyboard-response","37","118403","0.0-1.0-48.0","0","0","28538","","null","","","null","5","NaN","","","","","","","","","","","","","","",""
"","S2","","html-keyboard-response","38","118666","0.0-1.0-49.0","0","0","28538","","null","","","null","5","","NaN","","","","","","","","","","","","","",""
"","response","","html-keyboard-response","39","119082","0.0-1.0-50.0-0.0","0","0","28538","","412","","","75","5","","","1","5","training","adjacent","EF","5","6","L.jpg","P.jpg","0","1","0","",""
"","feedback","","html-keyboard-response","40","120100","0.0-1.0-51.0-0.0","0","0","28538","","null","","","null","5","","","","","","","","","","","","","","","",""
"","time_out","","html-keyboard-response","41","122107","0.0-1.0-53.0-0.0","0","0","28538","","null","","","null","5","","","","","","","","","","","","","","","",""
"","ITI","","html-keyboard-response","42","123122","0.0-1.0-54.0","0","0","28538","","null","","","null","5","","","","","","","","","","","","","","","NaN",""
"","S1","","html-keyboard-response","43","123386","0.0-1.0-56.0","0","0","28538","","null","","","null","6","","","","","","","","","","","","","","","",""
"","ISI","","html-keyboard-response","44","124401","0.0-1.0-57.0","0","0","28538","","null","","","null","6","NaN","","","","","","","","","","","","","","",""
"","S2","","html-keyboard-response","45","124665","0.0-1.0-58.0","0","0","28538","","null","","","null","6","","NaN","","","","","","","","","","","","","",""
"","response","","html-keyboard-response","46","124765","0.0-1.0-59.0-0.0","0","0","28538","","96","","","75","6","","","1","6","training","adjacent","DE","4","5","R.jpg","L.jpg","0","1","0","",""
"","feedback","","html-keyboard-response","47","125774","0.0-1.0-60.0-0.0","0","0","28538","","null","","","null","6","","","","","","","","","","","","","","","",""
"","time_out","","html-keyboard-response","48","127781","0.0-1.0-62.0-0.0","0","0","28538","","null","","","null","6","","","","","","","","","","","","","","","",""
"","ITI","","html-keyboard-response","49","128797","0.0-1.0-63.0","0","0","28538","","null","","","null","6","","","","","","","","","","","","","","","NaN",""
"","S1","","html-keyboard-response","50","129064","0.0-1.0-65.0","0","0","28538","","null","","","null","7","","","","","","","","","","","","","","","",""
"","ISI","","html-keyboard-response","51","130074","0.0-1.0-66.0","0","0","28538","","null","","","null","7","NaN","","","","","","","","","","","","","","",""
"","S2","","html-keyboard-response","52","130339","0.0-1.0-67.0","0","0","28538","","null","","","null","7","","NaN","","","","","","","","","","","","","",""
"","response","","html-keyboard-response","53","130426","0.0-1.0-68.0-0.0","0","0","28538","","84","","","75","7","","","1","7","training","adjacent","CB","3","2","M.jpg","N.jpg","0","0","1","",""
"","feedback","","html-keyboard-response","54","131435","0.0-1.0-69.0-0.0","0","0","28538","","null","","","null","7","","","","","","","","","","","","","","","",""
"","ITI","","html-keyboard-response","55","132452","0.0-1.0-72.0","0","0","28538","","null","","","null","7","","","","","","","","","","","","","","","NaN",""
"","S1","","html-keyboard-response","56","132718","0.0-1.0-74.0","0","0","28538","","null","","","null","8","","","","","","","","","","","","","","","",""
"","ISI","","html-keyboard-response","57","133733","0.0-1.0-75.0","0","0","28538","","null","","","null","8","NaN","","","","","","","","","","","","","","",""
"","S2","","html-keyboard-response","58","133995","0.0-1.0-76.0","0","0","28538","","null","","","null","8","","NaN","","","","","","","","","","","","","",""
"","response","","html-keyboard-response","59","134379","0.0-1.0-77.0-0.0","0","0","28538","","380","","","75","8","","","1","8","training","adjacent","AB","1","2","Q.jpg","N.jpg","0","1","0","",""
"","feedback","","html-keyboard-response","60","135398","0.0-1.0-78.0-0.0","0","0","28538","","null","","","null","8","","","","","","","","","","","","","","","",""
"","time_out","","html-keyboard-response","61","137414","0.0-1.0-80.0-0.0","0","0","28538","","null","","","null","8","","","","","","","","","","","","","","","",""
"","ITI","","html-keyboard-response","62","138417","0.0-1.0-81.0","0","0","28538","","null","","","null","8","","","","","","","","","","","","","","","NaN",""
"","S1","","html-keyboard-response","63","138679","0.0-1.0-83.0","0","0","28538","","null","","","null","9","","","","","","","","","","","","","","","",""
"","ISI","","html-keyboard-response","64","139689","0.0-1.0-84.0","0","0","28538","","null","","","null","9","NaN","","","","","","","","","","","","","","",""
"","S2","","html-keyboard-response","65","139955","0.0-1.0-85.0","0","0","28538","","null","","","null","9","","NaN","","","","","","","","","","","","","",""
"","response","","html-keyboard-response","66","140075","0.0-1.0-86.0-0.0","0","0","28538","","116","","","75","9","","","1","9","training","adjacent","BA","2","1","N.jpg","Q.jpg","0","0","1","",""
"","feedback","","html-keyboard-response","67","141080","0.0-1.0-87.0-0.0","0","0","28538","","null","","","null","9","","","","","","","","","","","","","","","",""
"","ITI","","html-keyboard-response","68","142093","0.0-1.0-90.0","0","0","28538","","null","","","null","9","","","","","","","","","","","","","","","NaN",""
"","S1","","html-keyboard-response","69","142361","0.0-1.0-92.0","0","0","28538","","null","","","null","10","","","","","","","","","","","","","","","",""
"","ISI","","html-keyboard-response","70","143373","0.0-1.0-93.0","0","0","28538","","null","","","null","10","NaN","","","","","","","","","","","","","","",""
"","S2","","html-keyboard-response","71","143639","0.0-1.0-94.0","0","0","28538","","null","","","null","10","","NaN","","","","","","","","","","","","","",""
"","response","","html-keyboard-response","72","143819","0.0-1.0-95.0-0.0","0","0","28538","","174","","","75","10","","","1","10","training","adjacent","FG","6","7","P.jpg","O.jpg","0","1","0","",""
"","feedback","","html-keyboard-response","73","144824","0.0-1.0-96.0-0.0","0","0","28538","","null","","","null","10","","","","","","","","","","","","","","","",""
"","time_out","","html-keyboard-response","74","146828","0.0-1.0-98.0-0.0","0","0","28538","","null","","","null","10","","","","","","","","","","","","","","","",""
"","ITI","","html-keyboard-response","75","147844","0.0-1.0-99.0","0","0","28538","","null","","","null","10","","","","","","","","","","","","","","","NaN",""
"","S1","","html-keyboard-response","76","148109","0.0-1.0-101.0","0","0","28538","","null","","","null","11","","","","","","","","","","","","","","","",""
"","ISI","","html-keyboard-response","77","149126","0.0-1.0-102.0","0","0","28538","","null","","","null","11","NaN","","","","","","","","","","","","","","",""
"","S2","","html-keyboard-response","78","149388","0.0-1.0-103.0","0","0","28538","","null","","","null","11","","NaN","","","","","","","","","","","","","",""
"","response","","html-keyboard-response","79","149547","0.0-1.0-104.0-0.0","0","0","28538","","154","","","75","11","","","1","11","training","adjacent","GF","7","6","O.jpg","P.jpg","0","0","1","",""
"","feedback","","html-keyboard-response","80","150558","0.0-1.0-105.0-0.0","0","0","28538","","null","","","null","11","","","","","","","","","","","","","","","",""
"","ITI","","html-keyboard-response","81","151568","0.0-1.0-108.0","0","0","28538","","null","","","null","11","","","","","","","","","","","","","","","NaN",""
"","S1","","html-keyboard-response","82","151832","0.0-1.0-110.0","0","0","28538","","null","","","null","12","","","","","","","","","","","","","","","",""
"","ISI","","html-keyboard-response","83","152844","0.0-1.0-111.0","0","0","28538","","null","","","null","12","NaN","","","","","","","","","","","","","","",""
"","S2","","html-keyboard-response","84","153109","0.0-1.0-112.0","0","0","28538","","null","","","null","12","","NaN","","","","","","","","","","","","","",""
"","response","","html-keyboard-response","85","153272","0.0-1.0-113.0-0.0","0","0","28538","","161","","","68","12","","","1","12","training","adjacent","EF","5","6","L.jpg","P.jpg","1","1","1","",""
"","feedback","","html-keyboard-response","86","154291","0.0-1.0-114.0-0.0","0","0","28538","","null","","","null","12","","","","","","","","","","","","","","","",""
"","ITI","","html-keyboard-response","87","155308","0.0-1.0-117.0","0","0","28538","","null","","","null","12","","","","","","","","","","","","","","","NaN",""
"","S1","","html-keyboard-response","88","155574","0.0-1.0-119.0","0","0","28538","","null","","","null","13","","","","","","","","","","","","","","","",""
"","ISI","","html-keyboard-response","89","156592","0.0-1.0-120.0","0","0","28538","","null","","","null","13","NaN","","","","","","","","","","","","","","",""
"","S2","","html-keyboard-response","90","156856","0.0-1.0-121.0","0","0","28538","","null","","","null","13","","NaN","","","","","","","","","","","","","",""
"","response","","html-keyboard-response","91","157130","0.0-1.0-122.0-0.0","0","0","28538","","270","","","75","13","","","1","13","training","adjacent","BA","2","1","N.jpg","Q.jpg","0","0","1","",""
"","feedback","","html-keyboard-response","92","158150","0.0-1.0-123.0-0.0","0","0","28538","","null","","","null","13","","","","","","","","","","","","","","","",""
"","ITI","","html-keyboard-response","93","159163","0.0-1.0-126.0","0","0","28538","","null","","","null","13","","","","","","","","","","","","","","","NaN",""
"","S1","","html-keyboard-response","94","159428","0.0-1.0-128.0","0","0","28538","","null","","","null","14","","","","","","","","","","","","","","","",""
"","ISI","","html-keyboard-response","95","160437","0.0-1.0-129.0","0","0","28538","","null","","","null","14","NaN","","","","","","","","","","","","","","",""
"","S2","","html-keyboard-response","96","160700","0.0-1.0-130.0","0","0","28538","","null","","","null","14","","NaN","","","","","","","","","","","","","",""
"","response","","html-keyboard-response","97","160986","0.0-1.0-131.0-0.0","0","0","28538","","282","","","75","14","","","1","14","training","adjacent","AB","1","2","Q.jpg","N.jpg","0","1","0","",""
"","feedback","","html-keyboard-response","98","161996","0.0-1.0-132.0-0.0","0","0","28538","","null","","","null","14","","","","","","","","","","","","","","","",""
"","time_out","","html-keyboard-response","99","164003","0.0-1.0-134.0-0.0","0","0","28538","","null","","","null","14","","","","","","","","","","","","","","","",""
"","ITI","","html-keyboard-response","100","165015","0.0-1.0-135.0","0","0","28538","","null","","","null","14","","","","","","","","","","","","","","","NaN",""
"","S1","","html-keyboard-response","101","165281","0.0-1.0-137.0","0","0","28538","","null","","","null","15","","","","","","","","","","","","","","","",""
"","ISI","","html-keyboard-response","102","166293","0.0-1.0-138.0","0","0","28538","","null","","","null","15","NaN","","","","","","","","","","","","","","",""
"","S2","","html-keyboard-response","103","166554","0.0-1.0-139.0","0","0","28538","","null","","","null","15","","NaN","","","","","","","","","","","","","",""
"","response","","html-keyboard-response","104","166634","0.0-1.0-140.0-0.0","0","0","28538","","77","","","75","15","","","1","15","training","adjacent","BC","2","3","N.jpg","M.jpg","0","1","0","",""
"","feedback","","html-keyboard-response","105","167642","0.0-1.0-141.0-0.0","0","0","28538","","null","","","null","15","","","","","","","","","","","","","","","",""
"","time_out","","html-keyboard-response","106","169652","0.0-1.0-143.0-0.0","0","0","28538","","null","","","null","15","","","","","","","","","","","","","","","",""
"","ITI","","html-keyboard-response","107","170658","0.0-1.0-144.0","0","0","28538","","null","","","null","15","","","","","","","","","","","","","","","NaN",""
"","S1","","html-keyboard-response","108","170923","0.0-1.0-146.0","0","0","28538","","null","","","null","16","","","","","","","","","","","","","","","",""
"","ISI","","html-keyboard-response","109","171940","0.0-1.0-147.0","0","0","28538","","null","","","null","16","NaN","","","","","","","","","","","","","","",""
"","S2","","html-keyboard-response","110","172204","0.0-1.0-148.0","0","0","28538","","null","","","null","16","","NaN","","","","","","","","","","","","","",""
"","response","","html-keyboard-response","111","172715","0.0-1.0-149.0-0.0","0","0","28538","","507","","","75","16","","","1","16","training","adjacent","CD","3","4","M.jpg","R.jpg","0","1","0","",""
"","feedback","","html-keyboard-response","112","173718","0.0-1.0-150.0-0.0","0","0","28538","","null","","","null","16","","","","","","","","","","","","","","","",""
"","time_out","","html-keyboard-response","113","175730","0.0-1.0-152.0-0.0","0","0","28538","","null","","","null","16","","","","","","","","","","","","","","","",""
"","ITI","","html-keyboard-response","114","176741","0.0-1.0-153.0","0","0","28538","","null","","","null","16","","","","","","","","","","","","","","","NaN",""
"","S1","","html-keyboard-response","115","177008","0.0-1.0-155.0","0","0","28538","","null","","","null","17","","","","","","","","","","","","","","","",""
"","ISI","","html-keyboard-response","116","178020","0.0-1.0-156.0","0","0","28538","","null","","","null","17","NaN","","","","","","","","","","","","","","",""
"","S2","","html-keyboard-response","117","178288","0.0-1.0-157.0","0","0","28538","","null","","","null","17","","NaN","","","","","","","","","","","","","",""
"","response","","html-keyboard-response","118","178440","0.0-1.0-158.0-0.0","0","0","28538","","150","","","75","17","","","1","17","training","adjacent","ED","5","4","L.jpg","R.jpg","0","0","1","",""
"","feedback","","html-keyboard-response","119","179447","0.0-1.0-159.0-0.0","0","0","28538","","null","","","null","17","","","","","","","","","","","","","","","",""
"","ITI","","html-keyboard-response","120","180461","0.0-1.0-162.0","0","0","28538","","null","","","null","17","","","","","","","","","","","","","","","NaN",""
"","S1","","html-keyboard-response","121","180727","0.0-1.0-164.0","0","0","28538","","null","","","null","18","","","","","","","","","","","","","","","",""
"","ISI","","html-keyboard-response","122","181739","0.0-1.0-165.0","0","0","28538","","null","","","null","18","NaN","","","","","","","","","","","","","","",""
"","S2","","html-keyboard-response","123","182005","0.0-1.0-166.0","0","0","28538","","null","","","null","18","","NaN","","","","","","","","","","","","","",""
"","response","","html-keyboard-response","124","182140","0.0-1.0-167.0-0.0","0","0","28538","","130","","","68","18","","","1","18","training","adjacent","FE","6","5","P.jpg","L.jpg","1","0","0","",""
"","feedback","","html-keyboard-response","125","183146","0.0-1.0-168.0-0.0","0","0","28538","","null","","","null","18","","","","","","","","","","","","","","","",""
"","time_out","","html-keyboard-response","126","185159","0.0-1.0-170.0-0.0","0","0","28538","","null","","","null","18","","","","","","","","","","","","","","","",""
"","ITI","","html-keyboard-response","127","186171","0.0-1.0-171.0","0","0","28538","","null","","","null","18","","","","","","","","","","","","","","","NaN",""
"","S1","","html-keyboard-response","128","186438","0.0-1.0-173.0","0","0","28538","","null","","","null","19","","","","","","","","","","","","","","","",""
"","ISI","","html-keyboard-response","129","187444","0.0-1.0-174.0","0","0","28538","","null","","","null","19","NaN","","","","","","","","","","","","","","",""
"","S2","","html-keyboard-response","130","187708","0.0-1.0-175.0","0","0","28538","","null","","","null","19","","NaN","","","","","","","","","","","","","",""
"","response","","html-keyboard-response","131","188507","0.0-1.0-176.0-0.0","0","0","28538","","796","","","75","19","","","1","19","training","adjacent","DC","4","3","R.jpg","M.jpg","0","0","1","",""
"","feedback","","html-keyboard-response","132","189523","0.0-1.0-177.0-0.0","0","0","28538","","null","","","null","19","","","","","","","","","","","","","","","",""
"","ITI","","html-keyboard-response","133","190538","0.0-1.0-180.0","0","0","28538","","null","","","null","19","","","","","","","","","","","","","","","NaN",""
"","S1","","html-keyboard-response","134","190804","0.0-1.0-182.0","0","0","28538","","null","","","null","20","","","","","","","","","","","","","","","",""
"","ISI","","html-keyboard-response","135","191818","0.0-1.0-183.0","0","0","28538","","null","","","null","20","NaN","","","","","","","","","","","","","","",""
"","S2","","html-keyboard-response","136","192082","0.0-1.0-184.0","0","0","28538","","null","","","null","20","","NaN","","","","","","","","","","","","","",""
"","response","","html-keyboard-response","137","192604","0.0-1.0-185.0-0.0","0","0","28538","","516","","","75","20","","","1","20","training","adjacent","BC","2","3","N.jpg","M.jpg","0","1","0","",""
"","feedback","","html-keyboard-response","138","193613","0.0-1.0-186.0-0.0","0","0","28538","","null","","","null","20","","","","","","","","","","","","","","","",""
"","time_out","","html-keyboard-response","139","195620","0.0-1.0-188.0-0.0","0","0","28538","","null","","","null","20","","","","","","","","","","","","","","","",""
"","ITI","","html-keyboard-response","140","196637","0.0-1.0-189.0","0","0","28538","","null","","","null","20","","","","","","","","","","","","","","","NaN",""
"","S1","","html-keyboard-response","141","196904","0.0-1.0-191.0","0","0","28538","","null","","","null","21","","","","","","","","","","","","","","","",""
"","ISI","","html-keyboard-response","142","197921","0.0-1.0-192.0","0","0","28538","","null","","","null","21","NaN","","","","","","","","","","","","","","",""
"","S2","","html-keyboard-response","143","198187","0.0-1.0-193.0","0","0","28538","","null","","","null","21","","NaN","","","","","","","","","","","","","",""
"","response","","html-keyboard-response","144","198315","0.0-1.0-194.0-0.0","0","0","28538","","123","","","75","21","","","1","21","training","adjacent","BC","2","3","N.jpg","M.jpg","0","1","0","",""
"","feedback","","html-keyboard-response","145","199326","0.0-1.0-195.0-0.0","0","0","28538","","null","","","null","21","","","","","","","","","","","","","","","",""
"","time_out","","html-keyboard-response","146","201340","0.0-1.0-197.0-0.0","0","0","28538","","null","","","null","21","","","","","","","","","","","","","","","",""
"","ITI","","html-keyboard-response","147","202356","0.0-1.0-198.0","0","0","28538","","null","","","null","21","","","","","","","","","","","","","","","NaN",""
"","S1","","html-keyboard-response","148","202622","0.0-1.0-200.0","0","0","28538","","null","","","null","22","","","","","","","","","","","","","","","",""
"","ISI","","html-keyboard-response","149","203640","0.0-1.0-201.0","0","0","28538","","null","","","null","22","NaN","","","","","","","","","","","","","","",""
"","S2","","html-keyboard-response","150","203906","0.0-1.0-202.0","0","0","28538","","null","","","null","22","","NaN","","","","","","","","","","","","","",""
"","response","","html-keyboard-response","151","204554","0.0-1.0-203.0-0.0","0","0","28538","","646","","","75","22","","","1","22","training","adjacent","CD","3","4","M.jpg","R.jpg","0","1","0","",""
"","feedback","","html-keyboard-response","152","205573","0.0-1.0-204.0-0.0","0","0","28538","","null","","","null","22","","","","","","","","","","","","","","","",""
"","time_out","","html-keyboard-response","153","207589","0.0-1.0-206.0-0.0","0","0","28538","","null","","","null","22","","","","","","","","","","","","","","","",""
"","ITI","","html-keyboard-response","154","208606","0.0-1.0-207.0","0","0","28538","","null","","","null","22","","","","","","","","","","","","","","","NaN",""
"","S1","","html-keyboard-response","155","208872","0.0-1.0-209.0","0","0","28538","","null","","","null","23","","","","","","","","","","","","","","","",""
"","ISI","","html-keyboard-response","156","209887","0.0-1.0-210.0","0","0","28538","","null","","","null","23","NaN","","","","","","","","","","","","","","",""
"","S2","","html-keyboard-response","157","210150","0.0-1.0-211.0","0","0","28538","","null","","","null","23","","NaN","","","","","","","","","","","","","",""
"","response","","html-keyboard-response","158","210331","0.0-1.0-212.0-0.0","0","0","28538","","177","","","75","23","","","1","23","training","adjacent","AB","1","2","Q.jpg","N.jpg","0","1","0","",""
"","feedback","","html-keyboard-response","159","211349","0.0-1.0-213.0-0.0","0","0","28538","","null","","","null","23","","","","","","","","","","","","","","","",""
"","time_out","","html-keyboard-response","160","213363","0.0-1.0-215.0-0.0","0","0","28538","","null","","","null","23","","","","","","","","","","","","","","","",""
"","ITI","","html-keyboard-response","161","214381","0.0-1.0-216.0","0","0","28538","","null","","","null","23","","","","","","","","","","","","","","","NaN",""
"","S1","","html-keyboard-response","162","214646","0.0-1.0-218.0","0","0","28538","","null","","","null","24","","","","","","","","","","","","","","","",""
"","ISI","","html-keyboard-response","163","215659","0.0-1.0-219.0","0","0","28538","","null","","","null","24","NaN","","","","","","","","","","","","","","",""
"","S2","","html-keyboard-response","164","215927","0.0-1.0-220.0","0","0","28538","","null","","","null","24","","NaN","","","","","","","","","","","","","",""
"","response","","html-keyboard-response","165","216409","0.0-1.0-221.0-0.0","0","0","28538","","479","","","75","24","","","1","24","training","adjacent","DC","4","3","R.jpg","M.jpg","0","0","1","",""
"","feedback","","html-keyboard-response","166","217424","0.0-1.0-222.0-0.0","0","0","28538","","null","","","null","24","","","","","","","","","","","","","","","",""
"","ITI","","html-keyboard-response","167","218437","0.0-1.0-225.0","0","0","28538","","null","","","null","24","","","","","","","","","","","","","","","NaN",""
"","S1","","html-keyboard-response","168","218703","0.0-1.0-227.0","0","0","28538","","null","","","null","25","","","","","","","","","","","","","","","",""
"","ISI","","html-keyboard-response","169","219719","0.0-1.0-228.0","0","0","28538","","null","","","null","25","NaN","","","","","","","","","","","","","","",""
"","S2","","html-keyboard-response","170","219986","0.0-1.0-229.0","0","0","28538","","null","","","null","25","","NaN","","","","","","","","","","","","","",""
"","response","","html-keyboard-response","171","220570","0.0-1.0-230.0-0.0","0","0","28538","","580","","","68","25","","","1","25","training","adjacent","GF","7","6","O.jpg","P.jpg","1","0","0","",""
"","feedback","","html-keyboard-response","172","221573","0.0-1.0-231.0-0.0","0","0","28538","","null","","","null","25","","","","","","","","","","","","","","","",""
"","time_out","","html-keyboard-response","173","223590","0.0-1.0-233.0-0.0","0","0","28538","","null","","","null","25","","","","","","","","","","","","","","","",""
"","ITI","","html-keyboard-response","174","224603","0.0-1.0-234.0","0","0","28538","","null","","","null","25","","","","","","","","","","","","","","","NaN",""
"","S1","","html-keyboard-response","175","224868","0.0-1.0-236.0","0","0","28538","","null","","","null","26","","","","","","","","","","","","","","","",""
"","ISI","","html-keyboard-response","176","225883","0.0-1.0-237.0","0","0","28538","","null","","","null","26","NaN","","","","","","","","","","","","","","",""
"","S2","","html-keyboard-response","177","226145","0.0-1.0-238.0","0","0","28538","","null","","","null","26","","NaN","","","","","","","","","","","","","",""
"","response","","html-keyboard-response","178","226428","0.0-1.0-239.0-0.0","0","0","28538","","279","","","68","26","","","1","26","training","adjacent","ED","5","4","L.jpg","R.jpg","1","0","0","",""
"","feedback","","html-keyboard-response","179","227437","0.0-1.0-240.0-0.0","0","0","28538","","null","","","null","26","","","","","","","","","","","","","","","",""
"","time_out","","html-keyboard-response","180","229450","0.0-1.0-242.0-0.0","0","0","28538","","null","","","null","26","","","","","","","","","","","","","","","",""
"","ITI","","html-keyboard-response","181","230467","0.0-1.0-243.0","0","0","28538","","null","","","null","26","","","","","","","","","","","","","","","NaN",""
"","S1","","html-keyboard-response","182","230733","0.0-1.0-245.0","0","0","28538","","null","","","null","27","","","","","","","","","","","","","","","",""
"","ISI","","html-keyboard-response","183","231746","0.0-1.0-246.0","0","0","28538","","null","","","null","27","NaN","","","","","","","","","","","","","","",""
"","S2","","html-keyboard-response","184","232005","0.0-1.0-247.0","0","0","28538","","null","","","null","27","","NaN","","","","","","","","","","","","","",""
"","response","","html-keyboard-response","185","232202","0.0-1.0-248.0-0.0","0","0","28538","","193","","","68","27","","","1","27","training","adjacent","FE","6","5","P.jpg","L.jpg","1","0","0","",""
"","feedback","","html-keyboard-response","186","233212","0.0-1.0-249.0-0.0","0","0","28538","","null","","","null","27","","","","","","","","","","","","","","","",""
"","time_out","","html-keyboard-response","187","235226","0.0-1.0-251.0-0.0","0","0","28538","","null","","","null","27","","","","","","","","","","","","","","","",""
"","ITI","","html-keyboard-response","188","236232","0.0-1.0-252.0","0","0","28538","","null","","","null","27","","","","","","","","","","","","","","","NaN",""
"","S1","","html-keyboard-response","189","236500","0.0-1.0-254.0","0","0","28538","","null","","","null","28","","","","","","","","","","","","","","","",""
"","ISI","","html-keyboard-response","190","237515","0.0-1.0-255.0","0","0","28538","","null","","","null","28","NaN","","","","","","","","","","","","","","",""
"","S2","","html-keyboard-response","191","237781","0.0-1.0-256.0","0","0","28538","","null","","","null","28","","NaN","","","","","","","","","","","","","",""
"","response","","html-keyboard-response","192","237932","0.0-1.0-257.0-0.0","0","0","28538","","147","","","68","28","","","1","28","training","adjacent","CD","3","4","M.jpg","R.jpg","1","1","1","",""
"","feedback","","html-keyboard-response","193","238949","0.0-1.0-258.0-0.0","0","0","28538","","null","","","null","28","","","","","","","","","","","","","","","",""
"","ITI","","html-keyboard-response","194","239964","0.0-1.0-261.0","0","0","28538","","null","","","null","28","","","","","","","","","","","","","","","NaN",""
"","S1","","html-keyboard-response","195","240227","0.0-1.0-263.0","0","0","28538","","null","","","null","29","","","","","","","","","","","","","","","",""
"","ISI","","html-keyboard-response","196","241238","0.0-1.0-264.0","0","0","28538","","null","","","null","29","NaN","","","","","","","","","","","","","","",""
"","S2","","html-keyboard-response","197","241503","0.0-1.0-265.0","0","0","28538","","null","","","null","29","","NaN","","","","","","","","","","","","","",""
"","response","","html-keyboard-response","198","242236","0.0-1.0-266.0-0.0","0","0","28538","","729","","","75","29","","","1","29","training","adjacent","FE","6","5","P.jpg","L.jpg","0","0","1","",""
"","feedback","","html-keyboard-response","199","243245","0.0-1.0-267.0-0.0","0","0","28538","","null","","","null","29","","","","","","","","","","","","","","","",""
"","ITI","","html-keyboard-response","200","244259","0.0-1.0-270.0","0","0","28538","","null","","","null","29","","","","","","","","","","","","","","","NaN",""
"","S1","","html-keyboard-response","201","244523","0.0-1.0-272.0","0","0","28538","","null","","","null","30","","","","","","","","","","","","","","","",""
"","ISI","","html-keyboard-response","202","245537","0.0-1.0-273.0","0","0","28538","","null","","","null","30","NaN","","","","","","","","","","","","","","",""
"","S2","","html-keyboard-response","203","245805","0.0-1.0-274.0","0","0","28538","","null","","","null","30","","NaN","","","","","","","","","","","","","",""
"","response","","html-keyboard-response","204","246428","0.0-1.0-275.0-0.0","0","0","28538","","617","","","75","30","","","1","30","training","adjacent","DE","4","5","R.jpg","L.jpg","0","1","0","",""
"","feedback","","html-keyboard-response","205","247444","0.0-1.0-276.0-0.0","0","0","28538","","null","","","null","30","","","","","","","","","","","","","","","",""
"","time_out","","html-keyboard-response","206","249456","0.0-1.0-278.0-0.0","0","0","28538","","null","","","null","30","","","","","","","","","","","","","","","",""
"","ITI","","html-keyboard-response","207","250467","0.0-1.0-279.0","0","0","28538","","null","","","null","30","","","","","","","","","","","","","","","NaN",""
"","S1","","html-keyboard-response","208","250731","0.0-1.0-281.0","0","0","28538","","null","","","null","31","","","","","","","","","","","","","","","",""
"","ISI","","html-keyboard-response","209","251749","0.0-1.0-282.0","0","0","28538","","null","","","null","31","NaN","","","","","","","","","","","","","","",""
"","S2","","html-keyboard-response","210","252013","0.0-1.0-283.0","0","0","28538","","null","","","null","31","","NaN","","","","","","","","","","","","","",""
"","response","","html-keyboard-response","211","252138","0.0-1.0-284.0-0.0","0","0","28538","","121","","","75","31","","","1","31","training","adjacent","DE","4","5","R.jpg","L.jpg","0","1","0","",""
"","feedback","","html-keyboard-response","212","253151","0.0-1.0-285.0-0.0","0","0","28538","","null","","","null","31","","","","","","","","","","","","","","","",""
"","time_out","","html-keyboard-response","213","255168","0.0-1.0-287.0-0.0","0","0","28538","","null","","","null","31","","","","","","","","","","","","","","","",""
"","ITI","","html-keyboard-response","214","256173","0.0-1.0-288.0","0","0","28538","","null","","","null","31","","","","","","","","","","","","","","","NaN",""
"","S1","","html-keyboard-response","215","256438","0.0-1.0-290.0","0","0","28538","","null","","","null","32","","","","","","","","","","","","","","","",""
"","ISI","","html-keyboard-response","216","257450","0.0-1.0-291.0","0","0","28538","","null","","","null","32","NaN","","","","","","","","","","","","","","",""
"","S2","","html-keyboard-response","217","257715","0.0-1.0-292.0","0","0","28538","","null","","","null","32","","NaN","","","","","","","","","","","","","",""
"","response","","html-keyboard-response","218","258218","0.0-1.0-293.0-0.0","0","0","28538","","501","","","75","32","","","1","32","training","adjacent","CB","3","2","M.jpg","N.jpg","0","0","1","",""
"","feedback","","html-keyboard-response","219","259229","0.0-1.0-294.0-0.0","0","0","28538","","null","","","null","32","","","","","","","","","","","","","","","",""
"","ITI","","html-keyboard-response","220","260244","0.0-1.0-297.0","0","0","28538","","null","","","null","32","","","","","","","","","","","","","","","NaN",""
"","S1","","html-keyboard-response","221","260510","0.0-1.0-299.0","0","0","28538","","null","","","null","33","","","","","","","","","","","","","","","",""
"","ISI","","html-keyboard-response","222","261521","0.0-1.0-300.0","0","0","28538","","null","","","null","33","NaN","","","","","","","","","","","","","","",""
"","S2","","html-keyboard-response","223","261787","0.0-1.0-301.0","0","0","28538","","null","","","null","33","","NaN","","","","","","","","","","","","","",""
"","response","","html-keyboard-response","224","262315","0.0-1.0-302.0-0.0","0","0","28538","","524","","","75","33","","","1","33","training","adjacent","ED","5","4","L.jpg","R.jpg","0","0","1","",""
"","feedback","","html-keyboard-response","225","263320","0.0-1.0-303.0-0.0","0","0","28538","","null","","","null","33","","","","","","","","","","","","","","","",""
"","ITI","","html-keyboard-response","226","264334","0.0-1.0-306.0","0","0","28538","","null","","","null","33","","","","","","","","","","","","","","","NaN",""
"","S1","","html-keyboard-response","227","264597","0.0-1.0-308.0","0","0","28538","","null","","","null","34","","","","","","","","","","","","","","","",""
"","ISI","","html-keyboard-response","228","265610","0.0-1.0-309.0","0","0","28538","","null","","","null","34","NaN","","","","","","","","","","","","","","",""
"","S2","","html-keyboard-response","229","265874","0.0-1.0-310.0","0","0","28538","","null","","","null","34","","NaN","","","","","","","","","","","","","",""
"","response","","html-keyboard-response","230","266571","0.0-1.0-311.0-0.0","0","0","28538","","691","","","75","34","","","1","34","training","adjacent","FG","6","7","P.jpg","O.jpg","0","1","0","",""
"","feedback","","html-keyboard-response","231","267589","0.0-1.0-312.0-0.0","0","0","28538","","null","","","null","34","","","","","","","","","","","","","","","",""
"","time_out","","html-keyboard-response","232","269601","0.0-1.0-314.0-0.0","0","0","28538","","null","","","null","34","","","","","","","","","","","","","","","",""
"","ITI","","html-keyboard-response","233","270614","0.0-1.0-315.0","0","0","28538","","null","","","null","34","","","","","","","","","","","","","","","NaN",""
"","S1","","html-keyboard-response","234","270879","0.0-1.0-317.0","0","0","28538","","null","","","null","35","","","","","","","","","","","","","","","",""
"","ISI","","html-keyboard-response","235","271889","0.0-1.0-318.0","0","0","28538","","null","","","null","35","NaN","","","","","","","","","","","","","","",""
"","S2","","html-keyboard-response","236","272153","0.0-1.0-319.0","0","0","28538","","null","","","null","35","","NaN","","","","","","","","","","","","","",""
"","response","","html-keyboard-response","237","272843","0.0-1.0-320.0-0.0","0","0","28538","","687","","","68","35","","","1","35","training","adjacent","FG","6","7","P.jpg","O.jpg","1","1","1","",""
"","feedback","","html-keyboard-response","238","273854","0.0-1.0-321.0-0.0","0","0","28538","","null","","","null","35","","","","","","","","","","","","","","","",""
"","ITI","","html-keyboard-response","239","274868","0.0-1.0-324.0","0","0","28538","","null","","","null","35","","","","","","","","","","","","","","","NaN",""
"","S1","","html-keyboard-response","240","275135","0.0-1.0-326.0","0","0","28538","","null","","","null","36","","","","","","","","","","","","","","","",""
"","ISI","","html-keyboard-response","241","276148","0.0-1.0-327.0","0","0","28538","","null","","","null","36","NaN","","","","","","","","","","","","","","",""
"","S2","","html-keyboard-response","242","276410","0.0-1.0-328.0","0","0","28538","","null","","","null","36","","NaN","","","","","","","","","","","","","",""
"","response","","html-keyboard-response","243","276974","0.0-1.0-329.0-0.0","0","0","28538","","559","","","75","36","","","1","36","training","adjacent","DE","4","5","R.jpg","L.jpg","0","1","0","",""
"","feedback","","html-keyboard-response","244","277981","0.0-1.0-330.0-0.0","0","0","28538","","null","","","null","36","","","","","","","","","","","","","","","",""
"","time_out","","html-keyboard-response","245","279992","0.0-1.0-332.0-0.0","0","0","28538","","null","","","null","36","","","","","","","","","","","","","","","",""
"","ITI","","html-keyboard-response","246","281004","0.0-1.0-333.0","0","0","28538","","null","","","null","36","","","","","","","","","","","","","","","NaN",""
"","S1","","html-keyboard-response","247","281270","0.0-1.0-335.0","0","0","28538","","null","","","null","37","","","","","","","","","","","","","","","",""
"","ISI","","html-keyboard-response","248","282282","0.0-1.0-336.0","0","0","28538","","192","","","68","37","d","","","","","","","","","","","","","","",""
"","S2","","html-keyboard-response","249","282546","0.0-1.0-337.0","0","0","28538","","null","","","null","37","","NaN","","","","","","","","","","","","","",""
"","response","","html-keyboard-response","250","283403","0.0-1.0-338.0-0.0","0","0","28538","","852","","","68","37","","","1","37","training","adjacent","CD","3","4","M.jpg","R.jpg","1","1","1","",""
"","feedback","","html-keyboard-response","251","284416","0.0-1.0-339.0-0.0","0","0","28538","","null","","","null","37","","","","","","","","","","","","","","","",""
"","ITI","","html-keyboard-response","252","285418","0.0-1.0-342.0","0","0","28538","","null","","","null","37","","","","","","","","","","","","","","","NaN",""
"","S1","","html-keyboard-response","253","285685","0.0-1.0-344.0","0","0","28538","","null","","","null","38","","","","","","","","","","","","","","","",""
"","ISI","","html-keyboard-response","254","286697","0.0-1.0-345.0","0","0","28538","","null","","","null","38","NaN","","","","","","","","","","","","","","",""
"","S2","","html-keyboard-response","255","286961","0.0-1.0-346.0","0","0","28538","","null","","","null","38","","NaN","","","","","","","","","","","","","",""
"","response","","html-keyboard-response","256","287079","0.0-1.0-347.0-0.0","0","0","28538","","117","","","75","38","","","1","38","training","adjacent","CB","3","2","M.jpg","N.jpg","0","0","1","",""
"","feedback","","html-keyboard-response","257","288085","0.0-1.0-348.0-0.0","0","0","28538","","null","","","null","38","","","","","","","","","","","","","","","",""
"","ITI","","html-keyboard-response","258","289104","0.0-1.0-351.0","0","0","28538","","null","","","null","38","","","","","","","","","","","","","","","NaN",""
"","S1","","html-keyboard-response","259","289370","0.0-1.0-353.0","0","0","28538","","null","","","null","39","","","","","","","","","","","","","","","",""
"","ISI","","html-keyboard-response","260","290383","0.0-1.0-354.0","0","0","28538","","null","","","null","39","NaN","","","","","","","","","","","","","","",""
"","S2","","html-keyboard-response","261","290648","0.0-1.0-355.0","0","0","28538","","null","","","null","39","","NaN","","","","","","","","","","","","","",""
"","response","","html-keyboard-response","262","291164","0.0-1.0-356.0-0.0","0","0","28538","","511","","","75","39","","","1","39","training","adjacent","GF","7","6","O.jpg","P.jpg","0","0","1","",""
"","feedback","","html-keyboard-response","263","292178","0.0-1.0-357.0-0.0","0","0","28538","","null","","","null","39","","","","","","","","","","","","","","","",""
"","ITI","","html-keyboard-response","264","293189","0.0-1.0-360.0","0","0","28538","","null","","","null","39","","","","","","","","","","","","","","","NaN",""
"","S1","","html-keyboard-response","265","293456","0.0-1.0-362.0","0","0","28538","","null","","","null","40","","","","","","","","","","","","","","","",""
"","ISI","","html-keyboard-response","266","294473","0.0-1.0-363.0","0","0","28538","","null","","","null","40","NaN","","","","","","","","","","","","","","",""
"","S2","","html-keyboard-response","267","294739","0.0-1.0-364.0","0","0","28538","","null","","","null","40","","NaN","","","","","","","","","","","","","",""
"","response","","html-keyboard-response","268","295465","0.0-1.0-365.0-0.0","0","0","28538","","723","","","68","40","","","1","40","training","adjacent","GF","7","6","O.jpg","P.jpg","1","0","0","",""
"","feedback","","html-keyboard-response","269","296480","0.0-1.0-366.0-0.0","0","0","28538","","null","","","null","40","","","","","","","","","","","","","","","",""
"","time_out","","html-keyboard-response","270","298487","0.0-1.0-368.0-0.0","0","0","28538","","null","","","null","40","","","","","","","","","","","","","","","",""
"","ITI","","html-keyboard-response","271","299499","0.0-1.0-369.0","0","0","28538","","null","","","null","40","","","","","","","","","","","","","","","NaN",""
"","S1","","html-keyboard-response","272","299764","0.0-1.0-371.0","0","0","28538","","null","","","null","41","","","","","","","","","","","","","","","",""
"","ISI","","html-keyboard-response","273","300778","0.0-1.0-372.0","0","0","28538","","null","","","null","41","NaN","","","","","","","","","","","","","","",""
"","S2","","html-keyboard-response","274","301041","0.0-1.0-373.0","0","0","28538","","null","","","null","41","","NaN","","","","","","","","","","","","","",""
"","response","","html-keyboard-response","275","301099","0.0-1.0-374.0-0.0","0","0","28538","","55","","","75","41","","","1","41","training","adjacent","DC","4","3","R.jpg","M.jpg","0","0","1","",""
"","feedback","","html-keyboard-response","276","302108","0.0-1.0-375.0-0.0","0","0","28538","","null","","","null","41","","","","","","","","","","","","","","","",""
"","ITI","","html-keyboard-response","277","303123","0.0-1.0-378.0","0","0","28538","","null","","","null","41","","","","","","","","","","","","","","","NaN",""
"","S1","","html-keyboard-response","278","303390","0.0-1.0-380.0","0","0","28538","","null","","","null","42","","","","","","","","","","","","","","","",""
"","ISI","","html-keyboard-response","279","304404","0.0-1.0-381.0","0","0","28538","","null","","","null","42","NaN","","","","","","","","","","","","","","",""
"","S2","","html-keyboard-response","280","304669","0.0-1.0-382.0","0","0","28538","","null","","","null","42","","NaN","","","","","","","","","","","","","",""
"","response","","html-keyboard-response","281","305643","0.0-1.0-383.0-0.0","0","0","28538","","969","","","68","42","","","1","42","training","adjacent","CB","3","2","M.jpg","N.jpg","1","0","0","",""
"","feedback","","html-keyboard-response","282","306658","0.0-1.0-384.0-0.0","0","0","28538","","null","","","null","42","","","","","","","","","","","","","","","",""
"","time_out","","html-keyboard-response","283","308670","0.0-1.0-386.0-0.0","0","0","28538","","null","","","null","42","","","","","","","","","","","","","","","",""
"","ITI","","html-keyboard-response","284","309684","0.0-1.0-387.0","0","0","28538","","null","","","null","42","","","","","","","","","","","","","","","NaN",""
"","S1","","html-keyboard-response","285","309949","0.0-1.0-389.0","0","0","28538","","null","","","null","43","","","","","","","","","","","","","","","",""
"","ISI","","html-keyboard-response","286","310965","0.0-1.0-390.0","0","0","28538","","null","","","null","43","NaN","","","","","","","","","","","","","","",""
"","S2","","html-keyboard-response","287","311227","0.0-1.0-391.0","0","0","28538","","null","","","null","43","","NaN","","","","","","","","","","","","","",""
"","response","","html-keyboard-response","288","311354","0.0-1.0-392.0-0.0","0","0","28538","","124","","","75","43","","","1","43","training","adjacent","FG","6","7","P.jpg","O.jpg","0","1","0","",""
"","feedback","","html-keyboard-response","289","312365","0.0-1.0-393.0-0.0","0","0","28538","","null","","","null","43","","","","","","","","","","","","","","","",""
"","time_out","","html-keyboard-response","290","314373","0.0-1.0-395.0-0.0","0","0","28538","","null","","","null","43","","","","","","","","","","","","","","","",""
"","ITI","","html-keyboard-response","291","315388","0.0-1.0-396.0","0","0","28538","","null","","","null","43","","","","","","","","","","","","","","","NaN",""
"","S1","","html-keyboard-response","292","315652","0.0-1.0-398.0","0","0","28538","","null","","","null","44","","","","","","","","","","","","","","","",""
"","ISI","","html-keyboard-response","293","316664","0.0-1.0-399.0","0","0","28538","","null","","","null","44","NaN","","","","","","","","","","","","","","",""
"","S2","","html-keyboard-response","294","316931","0.0-1.0-400.0","0","0","28538","","null","","","null","44","","NaN","","","","","","","","","","","","","",""
"","response","","html-keyboard-response","295","317548","0.0-1.0-401.0-0.0","0","0","28538","","612","","","75","44","","","1","44","training","adjacent","BC","2","3","N.jpg","M.jpg","0","1","0","",""
"","feedback","","html-keyboard-response","296","318557","0.0-1.0-402.0-0.0","0","0","28538","","null","","","null","44","","","","","","","","","","","","","","","",""
"","time_out","","html-keyboard-response","297","320564","0.0-1.0-404.0-0.0","0","0","28538","","null","","","null","44","","","","","","","","","","","","","","","",""
"","ITI","","html-keyboard-response","298","321571","0.0-1.0-405.0","0","0","28538","","null","","","null","44","","","","","","","","","","","","","","","NaN",""
"","S1","","html-keyboard-response","299","321835","0.0-1.0-407.0","0","0","28538","","null","","","null","45","","","","","","","","","","","","","","","",""
"","ISI","","html-keyboard-response","300","322850","0.0-1.0-408.0","0","0","28538","","null","","","null","45","NaN","","","","","","","","","","","","","","",""
"","S2","","html-keyboard-response","301","323115","0.0-1.0-409.0","0","0","28538","","null","","","null","45","","NaN","","","","","","","","","","","","","",""
"","response","","html-keyboard-response","302","323784","0.0-1.0-410.0-0.0","0","0","28538","","667","","","75","45","","","1","45","training","adjacent","AB","1","2","Q.jpg","N.jpg","0","1","0","",""
"","feedback","","html-keyboard-response","303","324802","0.0-1.0-411.0-0.0","0","0","28538","","null","","","null","45","","","","","","","","","","","","","","","",""
"","time_out","","html-keyboard-response","304","326820","0.0-1.0-413.0-0.0","0","0","28538","","null","","","null","45","","","","","","","","","","","","","","","",""
"","ITI","","html-keyboard-response","305","327832","0.0-1.0-414.0","0","0","28538","","null","","","null","45","","","","","","","","","","","","","","","NaN",""
"","S1","","html-keyboard-response","306","328096","0.0-1.0-416.0","0","0","28538","","null","","","null","46","","","","","","","","","","","","","","","",""
"","ISI","","html-keyboard-response","307","329108","0.0-1.0-417.0","0","0","28538","","null","","","null","46","NaN","","","","","","","","","","","","","","",""
"","S2","","html-keyboard-response","308","329372","0.0-1.0-418.0","0","0","28538","","null","","","null","46","","NaN","","","","","","","","","","","","","",""
"","response","","html-keyboard-response","309","329884","0.0-1.0-419.0-0.0","0","0","28538","","507","","","68","46","","","1","46","training","adjacent","BA","2","1","N.jpg","Q.jpg","1","0","0","",""
"","feedback","","html-keyboard-response","310","330890","0.0-1.0-420.0-0.0","0","0","28538","","null","","","null","46","","","","","","","","","","","","","","","",""
"","time_out","","html-keyboard-response","311","332902","0.0-1.0-422.0-0.0","0","0","28538","","null","","","null","46","","","","","","","","","","","","","","","",""
"","ITI","","html-keyboard-response","312","333921","0.0-1.0-423.0","0","0","28538","","null","","","null","46","","","","","","","","","","","","","","","NaN",""
"","S1","","html-keyboard-response","313","334183","0.0-1.0-425.0","0","0","28538","","null","","","null","47","","","","","","","","","","","","","","","",""
"","ISI","","html-keyboard-response","314","335198","0.0-1.0-426.0","0","0","28538","","null","","","null","47","NaN","","","","","","","","","","","","","","",""
"","S2","","html-keyboard-response","315","335463","0.0-1.0-427.0","0","0","28538","","null","","","null","47","","NaN","","","","","","","","","","","","","",""
"","response","","html-keyboard-response","316","335643","0.0-1.0-428.0-0.0","0","0","28538","","175","","","68","47","","","1","47","training","adjacent","EF","5","6","L.jpg","P.jpg","1","1","1","",""
"","feedback","","html-keyboard-response","317","336651","0.0-1.0-429.0-0.0","0","0","28538","","null","","","null","47","","","","","","","","","","","","","","","",""
"","ITI","","html-keyboard-response","318","337667","0.0-1.0-432.0","0","0","28538","","null","","","null","47","","","","","","","","","","","","","","","NaN",""
"","block_over","","html-keyboard-response","319","344060","0.0-1.0-433.0-0.0","0","0","28538","","6386","","","32","47","","","","","","","","","","","","","","","",""
"","S1","","html-keyboard-response","320","344321","0.0-1.0-434.0","0","0","28538","","null","","","null","48","","","","","","","","","","","","","","","",""
"","ISI","","html-keyboard-response","321","345335","0.0-1.0-435.0","0","0","28538","","null","","","null","48","NaN","","","","","","","","","","","","","","",""
"","S2","","html-keyboard-response","322","345601","0.0-1.0-436.0","0","0","28538","","null","","","null","48","","NaN","","","","","","","","","","","","","",""
"","response","","html-keyboard-response","323","346027","0.0-1.0-437.0-0.0","0","0","28538","","421","","","75","48","","","2","48","training","adjacent","ED","5","4","L.jpg","R.jpg","0","0","1","",""
"","feedback","","html-keyboard-response","324","347034","0.0-1.0-438.0-0.0","0","0","28538","","null","","","null","48","","","","","","","","","","","","","","","",""
"","ITI","","html-keyboard-response","325","348045","0.0-1.0-441.0","0","0","28538","","null","","","null","48","","","","","","","","","","","","","","","NaN",""
"","S1","","html-keyboard-response","326","348309","0.0-1.0-443.0","0","0","28538","","null","","","null","49","","","","","","","","","","","","","","","",""
"","ISI","","html-keyboard-response","327","349326","0.0-1.0-444.0","0","0","28538","","null","","","null","49","NaN","","","","","","","","","","","","","","",""
"","S2","","html-keyboard-response","328","349592","0.0-1.0-445.0","0","0","28538","","null","","","null","49","","NaN","","","","","","","","","","","","","",""
"","response","","html-keyboard-response","329","349868","0.0-1.0-446.0-0.0","0","0","28538","","271","","","75","49","","","2","49","training","adjacent","FE","6","5","P.jpg","L.jpg","0","0","1","",""
"","feedback","","html-keyboard-response","330","350872","0.0-1.0-447.0-0.0","0","0","28538","","null","","","null","49","","","","","","","","","","","","","","","",""
"","ITI","","html-keyboard-response","331","351888","0.0-1.0-450.0","0","0","28538","","null","","","null","49","","","","","","","","","","","","","","","NaN",""
"","S1","","html-keyboard-response","332","352153","0.0-1.0-452.0","0","0","28538","","null","","","null","50","","","","","","","","","","","","","","","",""
"","ISI","","html-keyboard-response","333","353170","0.0-1.0-453.0","0","0","28538","","null","","","null","50","NaN","","","","","","","","","","","","","","",""
"","S2","","html-keyboard-response","334","353434","0.0-1.0-454.0","0","0","28538","","null","","","null","50","","NaN","","","","","","","","","","","","","",""
"","response","","html-keyboard-response","335","354203","0.0-1.0-455.0-0.0","0","0","28538","","764","","","68","50","","","2","50","training","adjacent","EF","5","6","L.jpg","P.jpg","1","1","1","",""
"","feedback","","html-keyboard-response","336","355219","0.0-1.0-456.0-0.0","0","0","28538","","null","","","null","50","","","","","","","","","","","","","","","",""
"","ITI","","html-keyboard-response","337","356237","0.0-1.0-459.0","0","0","28538","","null","","","null","50","","","","","","","","","","","","","","","NaN",""
"","S1","","html-keyboard-response","338","356504","0.0-1.0-461.0","0","0","28538","","null","","","null","51","","","","","","","","","","","","","","","",""
"","ISI","","html-keyboard-response","339","357517","0.0-1.0-462.0","0","0","28538","","null","","","null","51","NaN","","","","","","","","","","","","","","",""
"","S2","","html-keyboard-response","340","357780","0.0-1.0-463.0","0","0","28538","","null","","","null","51","","NaN","","","","","","","","","","","","","",""
"","response","","html-keyboard-response","341","357867","0.0-1.0-464.0-0.0","0","0","28538","","85","","","75","51","","","2","51","training","adjacent","CB","3","2","M.jpg","N.jpg","0","0","1","",""
"","feedback","","html-keyboard-response","342","358886","0.0-1.0-465.0-0.0","0","0","28538","","null","","","null","51","","","","","","","","","","","","","","","",""
"","ITI","","html-keyboard-response","343","359899","0.0-1.0-468.0","0","0","28538","","null","","","null","51","","","","","","","","","","","","","","","NaN",""
"","S1","","html-keyboard-response","344","360161","0.0-1.0-470.0","0","0","28538","","null","","","null","52","","","","","","","","","","","","","","","",""
"","ISI","","html-keyboard-response","345","361174","0.0-1.0-471.0","0","0","28538","","null","","","null","52","NaN","","","","","","","","","","","","","","",""
"","S2","","html-keyboard-response","346","361437","0.0-1.0-472.0","0","0","28538","","null","","","null","52","","NaN","","","","","","","","","","","","","",""
"","response","","html-keyboard-response","347","362012","0.0-1.0-473.0-0.0","0","0","28538","","571","","","75","52","","","2","52","training","adjacent","FE","6","5","P.jpg","L.jpg","0","0","1","",""
"","feedback","","html-keyboard-response","348","363019","0.0-1.0-474.0-0.0","0","0","28538","","null","","","null","52","","","","","","","","","","","","","","","",""
"","ITI","","html-keyboard-response","349","364034","0.0-1.0-477.0","0","0","28538","","null","","","null","52","","","","","","","","","","","","","","","NaN",""
"","S1","","html-keyboard-response","350","364300","0.0-1.0-479.0","0","0","28538","","null","","","null","53","","","","","","","","","","","","","","","",""
"","ISI","","html-keyboard-response","351","365312","0.0-1.0-480.0","0","0","28538","","null","","","null","53","NaN","","","","","","","","","","","","","","",""
"","S2","","html-keyboard-response","352","365579","0.0-1.0-481.0","0","0","28538","","null","","","null","53","","NaN","","","","","","","","","","","","","",""
"","response","","html-keyboard-response","353","366173","0.0-1.0-482.0-0.0","0","0","28538","","590","","","68","53","","","2","53","training","adjacent","CD","3","4","M.jpg","R.jpg","1","1","1","",""
"","feedback","","html-keyboard-response","354","367185","0.0-1.0-483.0-0.0","0","0","28538","","null","","","null","53","","","","","","","","","","","","","","","",""
"","ITI","","html-keyboard-response","355","368198","0.0-1.0-486.0","0","0","28538","","null","","","null","53","","","","","","","","","","","","","","","NaN",""
"","S1","","html-keyboard-response","356","368462","0.0-1.0-488.0","0","0","28538","","null","","","null","54","","","","","","","","","","","","","","","",""
"","ISI","","html-keyboard-response","357","369479","0.0-1.0-489.0","0","0","28538","","null","","","null","54","NaN","","","","","","","","","","","","","","",""
"","S2","","html-keyboard-response","358","369745","0.0-1.0-490.0","0","0","28538","","null","","","null","54","","NaN","","","","","","","","","","","","","",""
"","response","","html-keyboard-response","359","370428","0.0-1.0-491.0-0.0","0","0","28538","","679","","","75","54","","","2","54","training","adjacent","EF","5","6","L.jpg","P.jpg","0","1","0","",""
"","feedback","","html-keyboard-response","360","371435","0.0-1.0-492.0-0.0","0","0","28538","","null","","","null","54","","","","","","","","","","","","","","","",""
"","time_out","","html-keyboard-response","361","373450","0.0-1.0-494.0-0.0","0","0","28538","","null","","","null","54","","","","","","","","","","","","","","","",""
"","ITI","","html-keyboard-response","362","374466","0.0-1.0-495.0","0","0","28538","","null","","","null","54","","","","","","","","","","","","","","","NaN",""
"","S1","","html-keyboard-response","363","374732","0.0-1.0-497.0","0","0","28538","","null","","","null","55","","","","","","","","","","","","","","","",""
"","ISI","","html-keyboard-response","364","375744","0.0-1.0-498.0","0","0","28538","","null","","","null","55","NaN","","","","","","","","","","","","","","",""
"","S2","","html-keyboard-response","365","376011","0.0-1.0-499.0","0","0","28538","","null","","","null","55","","NaN","","","","","","","","","","","","","",""
"","response","","html-keyboard-response","366","376412","0.0-1.0-500.0-0.0","0","0","28538","","397","","","75","55","","","2","55","training","adjacent","DE","4","5","R.jpg","L.jpg","0","1","0","",""
"","feedback","","html-keyboard-response","367","377429","0.0-1.0-501.0-0.0","0","0","28538","","null","","","null","55","","","","","","","","","","","","","","","",""
"","time_out","","html-keyboard-response","368","379434","0.0-1.0-503.0-0.0","0","0","28538","","null","","","null","55","","","","","","","","","","","","","","","",""
"","ITI","","html-keyboard-response","369","380453","0.0-1.0-504.0","0","0","28538","","null","","","null","55","","","","","","","","","","","","","","","NaN",""
"","S1","","html-keyboard-response","370","380719","0.0-1.0-506.0","0","0","28538","","null","","","null","56","","","","","","","","","","","","","","","",""
"","ISI","","html-keyboard-response","371","381732","0.0-1.0-507.0","0","0","28538","","null","","","null","56","NaN","","","","","","","","","","","","","","",""
"","S2","","html-keyboard-response","372","381999","0.0-1.0-508.0","0","0","28538","","null","","","null","56","","NaN","","","","","","","","","","","","","",""
"","response","","html-keyboard-response","373","382187","0.0-1.0-509.0-0.0","0","0","28538","","186","","","75","56","","","2","56","training","adjacent","CD","3","4","M.jpg","R.jpg","0","1","0","",""
"","feedback","","html-keyboard-response","374","383201","0.0-1.0-510.0-0.0","0","0","28538","","null","","","null","56","","","","","","","","","","","","","","","",""
"","time_out","","html-keyboard-response","375","385212","0.0-1.0-512.0-0.0","0","0","28538","","null","","","null","56","","","","","","","","","","","","","","","",""
"","ITI","","html-keyboard-response","376","386230","0.0-1.0-513.0","0","0","28538","","null","","","null","56","","","","","","","","","","","","","","","NaN",""
"","S1","","html-keyboard-response","377","386494","0.0-1.0-515.0","0","0","28538","","null","","","null","57","","","","","","","","","","","","","","","",""
"","ISI","","html-keyboard-response","378","387512","0.0-1.0-516.0","0","0","28538","","null","","","null","57","NaN","","","","","","","","","","","","","","",""
"","S2","","html-keyboard-response","379","387777","0.0-1.0-517.0","0","0","28538","","null","","","null","57","","NaN","","","","","","","","","","","","","",""
"","response","","html-keyboard-response","380","387916","0.0-1.0-518.0-0.0","0","0","28538","","135","","","75","57","","","2","57","training","adjacent","DE","4","5","R.jpg","L.jpg","0","1","0","",""
"","feedback","","html-keyboard-response","381","388934","0.0-1.0-519.0-0.0","0","0","28538","","null","","","null","57","","","","","","","","","","","","","","","",""
"","time_out","","html-keyboard-response","382","390947","0.0-1.0-521.0-0.0","0","0","28538","","null","","","null","57","","","","","","","","","","","","","","","",""
"","ITI","","html-keyboard-response","383","391961","0.0-1.0-522.0","0","0","28538","","null","","","null","57","","","","","","","","","","","","","","","NaN",""
"","S1","","html-keyboard-response","384","392226","0.0-1.0-524.0","0","0","28538","","null","","","null","58","","","","","","","","","","","","","","","",""
"","ISI","","html-keyboard-response","385","393240","0.0-1.0-525.0","0","0","28538","","null","","","null","58","NaN","","","","","","","","","","","","","","",""
"","S2","","html-keyboard-response","386","393504","0.0-1.0-526.0","0","0","28538","","null","","","null","58","","NaN","","","","","","","","","","","","","",""
"","response","","html-keyboard-response","387","393612","0.0-1.0-527.0-0.0","0","0","28538","","103","","","75","58","","","2","58","training","adjacent","GF","7","6","O.jpg","P.jpg","0","0","1","",""
"","feedback","","html-keyboard-response","388","394628","0.0-1.0-528.0-0.0","0","0","28538","","null","","","null","58","","","","","","","","","","","","","","","",""
"","ITI","","html-keyboard-response","389","395641","0.0-1.0-531.0","0","0","28538","","null","","","null","58","","","","","","","","","","","","","","","NaN",""
"","S1","","html-keyboard-response","390","395905","0.0-1.0-533.0","0","0","28538","","null","","","null","59","","","","","","","","","","","","","","","",""
"","ISI","","html-keyboard-response","391","396921","0.0-1.0-534.0","0","0","28538","","null","","","null","59","NaN","","","","","","","","","","","","","","",""
"","S2","","html-keyboard-response","392","397186","0.0-1.0-535.0","0","0","28538","","null","","","null","59","","NaN","","","","","","","","","","","","","",""
"","response","","html-keyboard-response","393","397725","0.0-1.0-536.0-0.0","0","0","28538","","534","","","68","59","","","2","59","training","adjacent","BA","2","1","N.jpg","Q.jpg","1","0","0","",""
"","feedback","","html-keyboard-response","394","398742","0.0-1.0-537.0-0.0","0","0","28538","","null","","","null","59","","","","","","","","","","","","","","","",""
"","time_out","","html-keyboard-response","395","400752","0.0-1.0-539.0-0.0","0","0","28538","","null","","","null","59","","","","","","","","","","","","","","","",""
"","ITI","","html-keyboard-response","396","401767","0.0-1.0-540.0","0","0","28538","","null","","","null","59","","","","","","","","","","","","","","","NaN",""
"","S1","","html-keyboard-response","397","402030","0.0-1.0-542.0","0","0","28538","","null","","","null","60","","","","","","","","","","","","","","","",""
"","ISI","","html-keyboard-response","398","403045","0.0-1.0-543.0","0","0","28538","","null","","","null","60","NaN","","","","","","","","","","","","","","",""
"","S2","","html-keyboard-response","399","403311","0.0-1.0-544.0","0","0","28538","","null","","","null","60","","NaN","","","","","","","","","","","","","",""
"","response","","html-keyboard-response","400","403484","0.0-1.0-545.0-0.0","0","0","28538","","168","","","75","60","","","2","60","training","adjacent","CB","3","2","M.jpg","N.jpg","0","0","1","",""
"","feedback","","html-keyboard-response","401","404495","0.0-1.0-546.0-0.0","0","0","28538","","null","","","null","60","","","","","","","","","","","","","","","",""
"","ITI","","html-keyboard-response","402","405512","0.0-1.0-549.0","0","0","28538","","null","","","null","60","","","","","","","","","","","","","","","NaN",""
"","S1","","html-keyboard-response","403","405776","0.0-1.0-551.0","0","0","28538","","null","","","null","61","","","","","","","","","","","","","","","",""
"","ISI","","html-keyboard-response","404","406784","0.0-1.0-552.0","0","0","28538","","null","","","null","61","NaN","","","","","","","","","","","","","","",""
"","S2","","html-keyboard-response","405","407049","0.0-1.0-553.0","0","0","28538","","null","","","null","61","","NaN","","","","","","","","","","","","","",""
"","response","","html-keyboard-response","406","407357","0.0-1.0-554.0-0.0","0","0","28538","","304","","","75","61","","","2","61","training","adjacent","BC","2","3","N.jpg","M.jpg","0","1","0","",""
"","feedback","","html-keyboard-response","407","408368","0.0-1.0-555.0-0.0","0","0","28538","","null","","","null","61","","","","","","","","","","","","","","","",""
"","time_out","","html-keyboard-response","408","410379","0.0-1.0-557.0-0.0","0","0","28538","","null","","","null","61","","","","","","","","","","","","","","","",""
"","ITI","","html-keyboard-response","409","411394","0.0-1.0-558.0","0","0","28538","","null","","","null","61","","","","","","","","","","","","","","","NaN",""
"","S1","","html-keyboard-response","410","411658","0.0-1.0-560.0","0","0","28538","","null","","","null","62","","","","","","","","","","","","","","","",""
"","ISI","","html-keyboard-response","411","412671","0.0-1.0-561.0","0","0","28538","","null","","","null","62","NaN","","","","","","","","","","","","","","",""
"","S2","","html-keyboard-response","412","412938","0.0-1.0-562.0","0","0","28538","","null","","","null","62","","NaN","","","","","","","","","","","","","",""
"","response","","html-keyboard-response","413","413067","0.0-1.0-563.0-0.0","0","0","28538","","125","","","75","62","","","2","62","training","adjacent","CB","3","2","M.jpg","N.jpg","0","0","1","",""
"","feedback","","html-keyboard-response","414","414075","0.0-1.0-564.0-0.0","0","0","28538","","null","","","null","62","","","","","","","","","","","","","","","",""
"","ITI","","html-keyboard-response","415","415092","0.0-1.0-567.0","0","0","28538","","null","","","null","62","","","","","","","","","","","","","","","NaN",""
"","S1","","html-keyboard-response","416","415358","0.0-1.0-569.0","0","0","28538","","null","","","null","63","","","","","","","","","","","","","","","",""
"","ISI","","html-keyboard-response","417","416368","0.0-1.0-570.0","0","0","28538","","null","","","null","63","NaN","","","","","","","","","","","","","","",""
"","S2","","html-keyboard-response","418","416631","0.0-1.0-571.0","0","0","28538","","null","","","null","63","","NaN","","","","","","","","","","","","","",""
"","response","","html-keyboard-response","419","417451","0.0-1.0-572.0-0.0","0","0","28538","","817","","","75","63","","","2","63","training","adjacent","AB","1","2","Q.jpg","N.jpg","0","1","0","",""
"","feedback","","html-keyboard-response","420","418468","0.0-1.0-573.0-0.0","0","0","28538","","null","","","null","63","","","","","","","","","","","","","","","",""
"","time_out","","html-keyboard-response","421","420476","0.0-1.0-575.0-0.0","0","0","28538","","null","","","null","63","","","","","","","","","","","","","","","",""
"","ITI","","html-keyboard-response","422","421493","0.0-1.0-576.0","0","0","28538","","null","","","null","63","","","","","","","","","","","","","","","NaN",""
"","S1","","html-keyboard-response","423","421756","0.0-1.0-578.0","0","0","28538","","null","","","null","64","","","","","","","","","","","","","","","",""
"","ISI","","html-keyboard-response","424","422773","0.0-1.0-579.0","0","0","28538","","null","","","null","64","NaN","","","","","","","","","","","","","","",""
"","S2","","html-keyboard-response","425","423040","0.0-1.0-580.0","0","0","28538","","null","","","null","64","","NaN","","","","","","","","","","","","","",""
"","response","","html-keyboard-response","426","423612","0.0-1.0-581.0-0.0","0","0","28538","","565","","","75","64","","","2","64","training","adjacent","ED","5","4","L.jpg","R.jpg","0","0","1","",""
"","feedback","","html-keyboard-response","427","424630","0.0-1.0-582.0-0.0","0","0","28538","","null","","","null","64","","","","","","","","","","","","","","","",""
"","ITI","","html-keyboard-response","428","425643","0.0-1.0-585.0","0","0","28538","","null","","","null","64","","","","","","","","","","","","","","","NaN",""
"","S1","","html-keyboard-response","429","425910","0.0-1.0-587.0","0","0","28538","","null","","","null","65","","","","","","","","","","","","","","","",""
"","ISI","","html-keyboard-response","430","426928","0.0-1.0-588.0","0","0","28538","","null","","","null","65","NaN","","","","","","","","","","","","","","",""
"","S2","","html-keyboard-response","431","427190","0.0-1.0-589.0","0","0","28538","","null","","","null","65","","NaN","","","","","","","","","","","","","",""
"","response","","html-keyboard-response","432","427692","0.0-1.0-590.0-0.0","0","0","28538","","497","","","68","65","","","2","65","training","adjacent","FG","6","7","P.jpg","O.jpg","1","1","1","",""
"","feedback","","html-keyboard-response","433","428703","0.0-1.0-591.0-0.0","0","0","28538","","null","","","null","65","","","","","","","","","","","","","","","",""
"","ITI","","html-keyboard-response","434","429719","0.0-1.0-594.0","0","0","28538","","null","","","null","65","","","","","","","","","","","","","","","NaN",""
"","S1","","html-keyboard-response","435","429983","0.0-1.0-596.0","0","0","28538","","null","","","null","66","","","","","","","","","","","","","","","",""
"","ISI","","html-keyboard-response","436","430998","0.0-1.0-597.0","0","0","28538","","null","","","null","66","NaN","","","","","","","","","","","","","","",""
"","S2","","html-keyboard-response","437","431266","0.0-1.0-598.0","0","0","28538","","null","","","null","66","","NaN","","","","","","","","","","","","","",""
"","response","","html-keyboard-response","438","431737","0.0-1.0-599.0-0.0","0","0","28538","","468","","","75","66","","","2","66","training","adjacent","EF","5","6","L.jpg","P.jpg","0","1","0","",""
"","feedback","","html-keyboard-response","439","432748","0.0-1.0-600.0-0.0","0","0","28538","","null","","","null","66","","","","","","","","","","","","","","","",""
"","time_out","","html-keyboard-response","440","434765","0.0-1.0-602.0-0.0","0","0","28538","","null","","","null","66","","","","","","","","","","","","","","","",""
"","ITI","","html-keyboard-response","441","435778","0.0-1.0-603.0","0","0","28538","","null","","","null","66","","","","","","","","","","","","","","","NaN",""
"","S1","","html-keyboard-response","442","436045","0.0-1.0-605.0","0","0","28538","","null","","","null","67","","","","","","","","","","","","","","","",""
"","ISI","","html-keyboard-response","443","437059","0.0-1.0-606.0","0","0","28538","","null","","","null","67","NaN","","","","","","","","","","","","","","",""
"","S2","","html-keyboard-response","444","437325","0.0-1.0-607.0","0","0","28538","","null","","","null","67","","NaN","","","","","","","","","","","","","",""
"","response","","html-keyboard-response","445","437885","0.0-1.0-608.0-0.0","0","0","28538","","555","","","75","67","","","2","67","training","adjacent","BC","2","3","N.jpg","M.jpg","0","1","0","",""
"","feedback","","html-keyboard-response","446","438905","0.0-1.0-609.0-0.0","0","0","28538","","null","","","null","67","","","","","","","","","","","","","","","",""
"","time_out","","html-keyboard-response","447","440923","0.0-1.0-611.0-0.0","0","0","28538","","null","","","null","67","","","","","","","","","","","","","","","",""
"","ITI","","html-keyboard-response","448","441936","0.0-1.0-612.0","0","0","28538","","null","","","null","67","","","","","","","","","","","","","","","NaN",""
"","S1","","html-keyboard-response","449","442201","0.0-1.0-614.0","0","0","28538","","null","","","null","68","","","","","","","","","","","","","","","",""
"","ISI","","html-keyboard-response","450","443214","0.0-1.0-615.0","0","0","28538","","null","","","null","68","NaN","","","","","","","","","","","","","","",""
"","S2","","html-keyboard-response","451","443478","0.0-1.0-616.0","0","0","28538","","null","","","null","68","","NaN","","","","","","","","","","","","","",""
"","response","","html-keyboard-response","452","444044","0.0-1.0-617.0-0.0","0","0","28538","","562","","","75","68","","","2","68","training","adjacent","AB","1","2","Q.jpg","N.jpg","0","1","0","",""
"","feedback","","html-keyboard-response","453","445057","0.0-1.0-618.0-0.0","0","0","28538","","null","","","null","68","","","","","","","","","","","","","","","",""
"","time_out","","html-keyboard-response","454","447068","0.0-1.0-620.0-0.0","0","0","28538","","null","","","null","68","","","","","","","","","","","","","","","",""
"","ITI","","html-keyboard-response","455","448073","0.0-1.0-621.0","0","0","28538","","null","","","null","68","","","","","","","","","","","","","","","NaN",""
"","S1","","html-keyboard-response","456","448340","0.0-1.0-623.0","0","0","28538","","null","","","null","69","","","","","","","","","","","","","","","",""
"","ISI","","html-keyboard-response","457","449354","0.0-1.0-624.0","0","0","28538","","null","","","null","69","NaN","","","","","","","","","","","","","","",""
"","S2","","html-keyboard-response","458","449620","0.0-1.0-625.0","0","0","28538","","null","","","null","69","","NaN","","","","","","","","","","","","","",""
"","response","","html-keyboard-response","459","450285","0.0-1.0-626.0-0.0","0","0","28538","","660","","","75","69","","","2","69","training","adjacent","BA","2","1","N.jpg","Q.jpg","0","0","1","",""
"","feedback","","html-keyboard-response","460","451297","0.0-1.0-627.0-0.0","0","0","28538","","null","","","null","69","","","","","","","","","","","","","","","",""
"","ITI","","html-keyboard-response","461","452312","0.0-1.0-630.0","0","0","28538","","null","","","null","69","","","","","","","","","","","","","","","NaN",""
"","S1","","html-keyboard-response","462","452578","0.0-1.0-632.0","0","0","28538","","null","","","null","70","","","","","","","","","","","","","","","",""
"","ISI","","html-keyboard-response","463","453594","0.0-1.0-633.0","0","0","28538","","null","","","null","70","NaN","","","","","","","","","","","","","","",""
"","S2","","html-keyboard-response","464","453861","0.0-1.0-634.0","0","0","28538","","null","","","null","70","","NaN","","","","","","","","","","","","","",""
"","response","","html-keyboard-response","465","454571","0.0-1.0-635.0-0.0","0","0","28538","","706","","","75","70","","","2","70","training","adjacent","AB","1","2","Q.jpg","N.jpg","0","1","0","",""
"","feedback","","html-keyboard-response","466","455577","0.0-1.0-636.0-0.0","0","0","28538","","null","","","null","70","","","","","","","","","","","","","","","",""
"","time_out","","html-keyboard-response","467","457587","0.0-1.0-638.0-0.0","0","0","28538","","null","","","null","70","","","","","","","","","","","","","","","",""
"","ITI","","html-keyboard-response","468","458601","0.0-1.0-639.0","0","0","28538","","null","","","null","70","","","","","","","","","","","","","","","NaN",""
"","S1","","html-keyboard-response","469","458866","0.0-1.0-641.0","0","0","28538","","null","","","null","71","","","","","","","","","","","","","","","",""
"","ISI","","html-keyboard-response","470","459882","0.0-1.0-642.0","0","0","28538","","null","","","null","71","NaN","","","","","","","","","","","","","","",""
"","S2","","html-keyboard-response","471","460148","0.0-1.0-643.0","0","0","28538","","null","","","null","71","","NaN","","","","","","","","","","","","","",""
"","response","","html-keyboard-response","472","460733","0.0-1.0-644.0-0.0","0","0","28538","","580","","","68","71","","","2","71","training","adjacent","CB","3","2","M.jpg","N.jpg","1","0","0","",""
"","feedback","","html-keyboard-response","473","461740","0.0-1.0-645.0-0.0","0","0","28538","","null","","","null","71","","","","","","","","","","","","","","","",""
"","time_out","","html-keyboard-response","474","463755","0.0-1.0-647.0-0.0","0","0","28538","","null","","","null","71","","","","","","","","","","","","","","","",""
"","ITI","","html-keyboard-response","475","464769","0.0-1.0-648.0","0","0","28538","","null","","","null","71","","","","","","","","","","","","","","","NaN",""
"","S1","","html-keyboard-response","476","465035","0.0-1.0-650.0","0","0","28538","","null","","","null","72","","","","","","","","","","","","","","","",""
"","ISI","","html-keyboard-response","477","466046","0.0-1.0-651.0","0","0","28538","","null","","","null","72","NaN","","","","","","","","","","","","","","",""
"","S2","","html-keyboard-response","478","466310","0.0-1.0-652.0","0","0","28538","","null","","","null","72","","NaN","","","","","","","","","","","","","",""
"","response","","html-keyboard-response","479","466892","0.0-1.0-653.0-0.0","0","0","28538","","578","","","68","72","","","2","72","training","adjacent","BA","2","1","N.jpg","Q.jpg","1","0","0","",""
"","feedback","","html-keyboard-response","480","467902","0.0-1.0-654.0-0.0","0","0","28538","","null","","","null","72","","","","","","","","","","","","","","","",""
"","time_out","","html-keyboard-response","481","469917","0.0-1.0-656.0-0.0","0","0","28538","","null","","","null","72","","","","","","","","","","","","","","","",""
"","ITI","","html-keyboard-response","482","470933","0.0-1.0-657.0","0","0","28538","","null","","","null","72","","","","","","","","","","","","","","","NaN",""
"","S1","","html-keyboard-response","483","471202","0.0-1.0-659.0","0","0","28538","","null","","","null","73","","","","","","","","","","","","","","","",""
"","ISI","","html-keyboard-response","484","472216","0.0-1.0-660.0","0","0","28538","","null","","","null","73","NaN","","","","","","","","","","","","","","",""
"","S2","","html-keyboard-response","485","472479","0.0-1.0-661.0","0","0","28538","","null","","","null","73","","NaN","","","","","","","","","","","","","",""
"","response","","html-keyboard-response","486","473198","0.0-1.0-662.0-0.0","0","0","28538","","714","","","68","73","","","2","73","training","adjacent","BA","2","1","N.jpg","Q.jpg","1","0","0","",""
"","feedback","","html-keyboard-response","487","474204","0.0-1.0-663.0-0.0","0","0","28538","","null","","","null","73","","","","","","","","","","","","","","","",""
"","time_out","","html-keyboard-response","488","476217","0.0-1.0-665.0-0.0","0","0","28538","","null","","","null","73","","","","","","","","","","","","","","","",""
"","ITI","","html-keyboard-response","489","477231","0.0-1.0-666.0","0","0","28538","","null","","","null","73","","","","","","","","","","","","","","","NaN",""
"","S1","","html-keyboard-response","490","477493","0.0-1.0-668.0","0","0","28538","","null","","","null","74","","","","","","","","","","","","","","","",""
"","ISI","","html-keyboard-response","491","478507","0.0-1.0-669.0","0","0","28538","","null","","","null","74","NaN","","","","","","","","","","","","","","",""
"","S2","","html-keyboard-response","492","478772","0.0-1.0-670.0","0","0","28538","","null","","","null","74","","NaN","","","","","","","","","","","","","",""
"","response","","html-keyboard-response","493","478988","0.0-1.0-671.0-0.0","0","0","28538","","213","","","68","74","","","2","74","training","adjacent","EF","5","6","L.jpg","P.jpg","1","1","1","",""
"","feedback","","html-keyboard-response","494","480003","0.0-1.0-672.0-0.0","0","0","28538","","null","","","null","74","","","","","","","","","","","","","","","",""
"","ITI","","html-keyboard-response","495","481014","0.0-1.0-675.0","0","0","28538","","null","","","null","74","","","","","","","","","","","","","","","NaN",""
"","S1","","html-keyboard-response","496","481281","0.0-1.0-677.0","0","0","28538","","null","","","null","75","","","","","","","","","","","","","","","",""
"","ISI","","html-keyboard-response","497","482290","0.0-1.0-678.0","0","0","28538","","null","","","null","75","NaN","","","","","","","","","","","","","","",""
"","S2","","html-keyboard-response","498","482554","0.0-1.0-679.0","0","0","28538","","null","","","null","75","","NaN","","","","","","","","","","","","","",""
"","response","","html-keyboard-response","499","482700","0.0-1.0-680.0-0.0","0","0","28538","","142","","","75","75","","","2","75","training","adjacent","BC","2","3","N.jpg","M.jpg","0","1","0","",""
"","feedback","","html-keyboard-response","500","483719","0.0-1.0-681.0-0.0","0","0","28538","","null","","","null","75","","","","","","","","","","","","","","","",""
"","time_out","","html-keyboard-response","501","485733","0.0-1.0-683.0-0.0","0","0","28538","","null","","","null","75","","","","","","","","","","","","","","","",""
"","ITI","","html-keyboard-response","502","486742","0.0-1.0-684.0","0","0","28538","","null","","","null","75","","","","","","","","","","","","","","","NaN",""
"","S1","","html-keyboard-response","503","487007","0.0-1.0-686.0","0","0","28538","","null","","","null","76","","","","","","","","","","","","","","","",""
"","ISI","","html-keyboard-response","504","488016","0.0-1.0-687.0","0","0","28538","","null","","","null","76","NaN","","","","","","","","","","","","","","",""
"","S2","","html-keyboard-response","505","488282","0.0-1.0-688.0","0","0","28538","","null","","","null","76","","NaN","","","","","","","","","","","","","",""
"","response","","html-keyboard-response","506","488732","0.0-1.0-689.0-0.0","0","0","28538","","447","","","68","76","","","2","76","training","adjacent","ED","5","4","L.jpg","R.jpg","1","0","0","",""
"","feedback","","html-keyboard-response","507","489743","0.0-1.0-690.0-0.0","0","0","28538","","null","","","null","76","","","","","","","","","","","","","","","",""
"","time_out","","html-keyboard-response","508","491748","0.0-1.0-692.0-0.0","0","0","28538","","null","","","null","76","","","","","","","","","","","","","","","",""
"","ITI","","html-keyboard-response","509","492761","0.0-1.0-693.0","0","0","28538","","null","","","null","76","","","","","","","","","","","","","","","NaN",""
"","S1","","html-keyboard-response","510","493024","0.0-1.0-695.0","0","0","28538","","null","","","null","77","","","","","","","","","","","","","","","",""
"","ISI","","html-keyboard-response","511","494039","0.0-1.0-696.0","0","0","28538","","null","","","null","77","NaN","","","","","","","","","","","","","","",""
"","S2","","html-keyboard-response","512","494303","0.0-1.0-697.0","0","0","28538","","null","","","null","77","","NaN","","","","","","","","","","","","","",""
"","response","","html-keyboard-response","513","494797","0.0-1.0-698.0-0.0","0","0","28538","","491","","","75","77","","","2","77","training","adjacent","AB","1","2","Q.jpg","N.jpg","0","1","0","",""
"","feedback","","html-keyboard-response","514","495817","0.0-1.0-699.0-0.0","0","0","28538","","null","","","null","77","","","","","","","","","","","","","","","",""
"","time_out","","html-keyboard-response","515","497826","0.0-1.0-701.0-0.0","0","0","28538","","null","","","null","77","","","","","","","","","","","","","","","",""
"","ITI","","html-keyboard-response","516","498839","0.0-1.0-702.0","0","0","28538","","null","","","null","77","","","","","","","","","","","","","","","NaN",""
"","S1","","html-keyboard-response","517","499103","0.0-1.0-704.0","0","0","28538","","null","","","null","78","","","","","","","","","","","","","","","",""
"","ISI","","html-keyboard-response","518","500116","0.0-1.0-705.0","0","0","28538","","null","","","null","78","NaN","","","","","","","","","","","","","","",""
"","S2","","html-keyboard-response","519","500381","0.0-1.0-706.0","0","0","28538","","null","","","null","78","","NaN","","","","","","","","","","","","","",""
"","response","","html-keyboard-response","520","500797","0.0-1.0-707.0-0.0","0","0","28538","","412","","","75","78","","","2","78","training","adjacent","GF","7","6","O.jpg","P.jpg","0","0","1","",""
"","feedback","","html-keyboard-response","521","501804","0.0-1.0-708.0-0.0","0","0","28538","","null","","","null","78","","","","","","","","","","","","","","","",""
"","ITI","","html-keyboard-response","522","502818","0.0-1.0-711.0","0","0","28538","","null","","","null","78","","","","","","","","","","","","","","","NaN",""
"","S1","","html-keyboard-response","523","503082","0.0-1.0-713.0","0","0","28538","","null","","","null","79","","","","","","","","","","","","","","","",""
"","ISI","","html-keyboard-response","524","504101","0.0-1.0-714.0","0","0","28538","","null","","","null","79","NaN","","","","","","","","","","","","","","",""
"","S2","","html-keyboard-response","525","504367","0.0-1.0-715.0","0","0","28538","","null","","","null","79","","NaN","","","","","","","","","","","","","",""
"","response","","html-keyboard-response","526","504826","0.0-1.0-716.0-0.0","0","0","28538","","455","","","75","79","","","2","79","training","adjacent","CD","3","4","M.jpg","R.jpg","0","1","0","",""
"","feedback","","html-keyboard-response","527","505845","0.0-1.0-717.0-0.0","0","0","28538","","null","","","null","79","","","","","","","","","","","","","","","",""
"","time_out","","html-keyboard-response","528","507860","0.0-1.0-719.0-0.0","0","0","28538","","null","","","null","79","","","","","","","","","","","","","","","",""
"","ITI","","html-keyboard-response","529","508876","0.0-1.0-720.0","0","0","28538","","null","","","null","79","","","","","","","","","","","","","","","NaN",""
"","S1","","html-keyboard-response","530","509138","0.0-1.0-722.0","0","0","28538","","null","","","null","80","","","","","","","","","","","","","","","",""
"","ISI","","html-keyboard-response","531","510153","0.0-1.0-723.0","0","0","28538","","null","","","null","80","NaN","","","","","","","","","","","","","","",""
"","S2","","html-keyboard-response","532","510417","0.0-1.0-724.0","0","0","28538","","null","","","null","80","","NaN","","","","","","","","","","","","","",""
"","response","","html-keyboard-response","533","510827","0.0-1.0-725.0-0.0","0","0","28538","","406","","","75","80","","","2","80","training","adjacent","GF","7","6","O.jpg","P.jpg","0","0","1","",""
"","feedback","","html-keyboard-response","534","511841","0.0-1.0-726.0-0.0","0","0","28538","","null","","","null","80","","","","","","","","","","","","","","","",""
"","ITI","","html-keyboard-response","535","512859","0.0-1.0-729.0","0","0","28538","","null","","","null","80","","","","","","","","","","","","","","","NaN",""
"","S1","","html-keyboard-response","536","513120","0.0-1.0-731.0","0","0","28538","","null","","","null","81","","","","","","","","","","","","","","","",""
"","ISI","","html-keyboard-response","537","514138","0.0-1.0-732.0","0","0","28538","","null","","","null","81","NaN","","","","","","","","","","","","","","",""
"","S2","","html-keyboard-response","538","514401","0.0-1.0-733.0","0","0","28538","","null","","","null","81","","NaN","","","","","","","","","","","","","",""
"","response","","html-keyboard-response","539","514844","0.0-1.0-734.0-0.0","0","0","28538","","437","","","75","81","","","2","81","training","adjacent","CD","3","4","M.jpg","R.jpg","0","1","0","",""
"","feedback","","html-keyboard-response","540","515849","0.0-1.0-735.0-0.0","0","0","28538","","null","","","null","81","","","","","","","","","","","","","","","",""
"","time_out","","html-keyboard-response","541","517862","0.0-1.0-737.0-0.0","0","0","28538","","null","","","null","81","","","","","","","","","","","","","","","",""
"","ITI","","html-keyboard-response","542","518875","0.0-1.0-738.0","0","0","28538","","null","","","null","81","","","","","","","","","","","","","","","NaN",""
"","S1","","html-keyboard-response","543","519137","0.0-1.0-740.0","0","0","28538","","null","","","null","82","","","","","","","","","","","","","","","",""
"","ISI","","html-keyboard-response","544","520158","0.0-1.0-741.0","0","0","28538","","null","","","null","82","NaN","","","","","","","","","","","","","","",""
"","S2","","html-keyboard-response","545","520426","0.0-1.0-742.0","0","0","28538","","null","","","null","82","","NaN","","","","","","","","","","","","","",""
"","response","","html-keyboard-response","546","520635","0.0-1.0-743.0-0.0","0","0","28538","","205","","","75","82","","","2","82","training","adjacent","GF","7","6","O.jpg","P.jpg","0","0","1","",""
"","feedback","","html-keyboard-response","547","521645","0.0-1.0-744.0-0.0","0","0","28538","","null","","","null","82","","","","","","","","","","","","","","","",""
"","ITI","","html-keyboard-response","548","522656","0.0-1.0-747.0","0","0","28538","","null","","","null","82","","","","","","","","","","","","","","","NaN",""
"","S1","","html-keyboard-response","549","522922","0.0-1.0-749.0","0","0","28538","","null","","","null","83","","","","","","","","","","","","","","","",""
"","ISI","","html-keyboard-response","550","523941","0.0-1.0-750.0","0","0","28538","","null","","","null","83","NaN","","","","","","","","","","","","","","",""
"","S2","","html-keyboard-response","551","524207","0.0-1.0-751.0","0","0","28538","","null","","","null","83","","NaN","","","","","","","","","","","","","",""
"","response","","html-keyboard-response","552","525261","0.0-1.0-752.0-0.0","0","0","28538","","1050","","","75","83","","","2","83","training","adjacent","FE","6","5","P.jpg","L.jpg","0","0","1","",""
"","feedback","","html-keyboard-response","553","526265","0.0-1.0-753.0-0.0","0","0","28538","","null","","","null","83","","","","","","","","","","","","","","","",""
"","ITI","","html-keyboard-response","554","527281","0.0-1.0-756.0","0","0","28538","","null","","","null","83","","","","","","","","","","","","","","","NaN",""
"","S1","","html-keyboard-response","555","527546","0.0-1.0-758.0","0","0","28538","","null","","","null","84","","","","","","","","","","","","","","","",""
"","ISI","","html-keyboard-response","556","528560","0.0-1.0-759.0","0","0","28538","","null","","","null","84","NaN","","","","","","","","","","","","","","",""
"","S2","","html-keyboard-response","557","528826","0.0-1.0-760.0","0","0","28538","","null","","","null","84","","NaN","","","","","","","","","","","","","",""
"","response","","html-keyboard-response","558","529725","0.0-1.0-761.0-0.0","0","0","28538","","896","","","68","84","","","2","84","training","adjacent","DC","4","3","R.jpg","M.jpg","1","0","0","",""
"","feedback","","html-keyboard-response","559","530745","0.0-1.0-762.0-0.0","0","0","28538","","null","","","null","84","","","","","","","","","","","","","","","",""
"","time_out","","html-keyboard-response","560","532758","0.0-1.0-764.0-0.0","0","0","28538","","null","","","null","84","","","","","","","","","","","","","","","",""
"","ITI","","html-keyboard-response","561","533769","0.0-1.0-765.0","0","0","28538","","null","","","null","84","","","","","","","","","","","","","","","NaN",""
"","S1","","html-keyboard-response","562","534035","0.0-1.0-767.0","0","0","28538","","null","","","null","85","","","","","","","","","","","","","","","",""
"","ISI","","html-keyboard-response","563","535046","0.0-1.0-768.0","0","0","28538","","null","","","null","85","NaN","","","","","","","","","","","","","","",""
"","S2","","html-keyboard-response","564","535312","0.0-1.0-769.0","0","0","28538","","null","","","null","85","","NaN","","","","","","","","","","","","","",""
"","response","","html-keyboard-response","565","535725","0.0-1.0-770.0-0.0","0","0","28538","","409","","","75","85","","","2","85","training","adjacent","DC","4","3","R.jpg","M.jpg","0","0","1","",""
"","feedback","","html-keyboard-response","566","536733","0.0-1.0-771.0-0.0","0","0","28538","","null","","","null","85","","","","","","","","","","","","","","","",""
"","ITI","","html-keyboard-response","567","537747","0.0-1.0-774.0","0","0","28538","","null","","","null","85","","","","","","","","","","","","","","","NaN",""
"","S1","","html-keyboard-response","568","538012","0.0-1.0-776.0","0","0","28538","","null","","","null","86","","","","","","","","","","","","","","","",""
"","ISI","","html-keyboard-response","569","539026","0.0-1.0-777.0","0","0","28538","","null","","","null","86","NaN","","","","","","","","","","","","","","",""
"","S2","","html-keyboard-response","570","539294","0.0-1.0-778.0","0","0","28538","","null","","","null","86","","NaN","","","","","","","","","","","","","",""
"","response","","html-keyboard-response","571","540190","0.0-1.0-779.0-0.0","0","0","28538","","892","","","68","86","","","2","86","training","adjacent","FG","6","7","P.jpg","O.jpg","1","1","1","",""
"","feedback","","html-keyboard-response","572","541196","0.0-1.0-780.0-0.0","0","0","28538","","null","","","null","86","","","","","","","","","","","","","","","",""
"","ITI","","html-keyboard-response","573","542202","0.0-1.0-783.0","0","0","28538","","null","","","null","86","","","","","","","","","","","","","","","NaN",""
"","S1","","html-keyboard-response","574","542467","0.0-1.0-785.0","0","0","28538","","null","","","null","87","","","","","","","","","","","","","","","",""
"","ISI","","html-keyboard-response","575","543479","0.0-1.0-786.0","0","0","28538","","null","","","null","87","NaN","","","","","","","","","","","","","","",""
"","S2","","html-keyboard-response","576","543745","0.0-1.0-787.0","0","0","28538","","null","","","null","87","","NaN","","","","","","","","","","","","","",""
"","response","","html-keyboard-response","577","544269","0.0-1.0-788.0-0.0","0","0","28538","","518","","","75","87","","","2","87","training","adjacent","FE","6","5","P.jpg","L.jpg","0","0","1","",""
"","feedback","","html-keyboard-response","578","545275","0.0-1.0-789.0-0.0","0","0","28538","","null","","","null","87","","","","","","","","","","","","","","","",""
"","ITI","","html-keyboard-response","579","546293","0.0-1.0-792.0","0","0","28538","","null","","","null","87","","","","","","","","","","","","","","","NaN",""
"","S1","","html-keyboard-response","580","546559","0.0-1.0-794.0","0","0","28538","","null","","","null","88","","","","","","","","","","","","","","","",""
"","ISI","","html-keyboard-response","581","547574","0.0-1.0-795.0","0","0","28538","","null","","","null","88","NaN","","","","","","","","","","","","","","",""
"","S2","","html-keyboard-response","582","547839","0.0-1.0-796.0","0","0","28538","","null","","","null","88","","NaN","","","","","","","","","","","","","",""
