"success","ttype","start_time","trial_type","trial_index","time_elapsed","internal_node_id","warning","missed_checkup","PID","view_history","rt","responses","repeat_instructions","key_press","index","keypress_isi","keypress_S2","block","trial_num","phase","group_type","pair_type","S1_stim","S2_stim","S1_img","S2_img","S1_chosen","S1_higher","accuracy","keypress_iti","total_bonus_tally"
"true","full_screen","d04132023hr1800","fullscreen","0","8767","0.0-0.0","0","0","22946","","","","","","","","","","","","","","","","","","","","","",""
"","instructions","","instructions","1","69305","0.0-1.0-0.0-0.0","0","0","22946","[{""page_index"":0,""viewing_time"":9908},{""page_index"":1,""viewing_time"":10561},{""page_index"":2,""viewing_time"":21067},{""page_index"":3,""viewing_time"":18994}]","60532","","","","","","","","","","","","","","","","","","","",""
"","comprehension_check","","survey-multi-choice","2","94965","0.0-1.0-0.0-1.0","0","0","22946","","25647","{""Q0"":""True"",""Q1"":""D"",""Q2"":""Only when the screen 'MAKE A CHOICE' is shown"",""Q3"":""Green mark"",""Q4"":""either D or K""}","1","","","","","","","","","","","","","","","","","",""
"","missed_instruction_checkup","","html-keyboard-response","3","97674","0.0-1.0-0.0-2.0-0.0","0","1","22946","","2702","","","32","","","","","","","","","","","","","","","","",""
"","instructions","","instructions","4","159023","0.0-1.0-0.1-0.1","0","0","22946","[{""page_index"":0,""viewing_time"":22868},{""page_index"":1,""viewing_time"":24721},{""page_index"":2,""viewing_time"":12463},{""page_index"":3,""viewing_time"":1290}]","61342","","","","","","","","","","","","","","","","","","","",""
"","comprehension_check","","survey-multi-choice","5","180228","0.0-1.0-0.1-1.1","0","0","22946","","21194","{""Q0"":""True"",""Q1"":""D"",""Q2"":""Once the second image appears and while the screen 'MAKE A CHOICE' is shown"",""Q3"":""Green mark"",""Q4"":""either D or K""}","0","","","","","","","","","","","","","","","","","",""
"","start_exp","","html-keyboard-response","6","181686","0.0-1.0-1.0","0","0","22946","","1449","","","32","","","","","","","","","","","","","","","","",""
"","S1","","html-keyboard-response","7","181944","0.0-1.0-2.0","0","0","22946","","null","","","null","0","","","","","","","","","","","","","","","",""
"","ISI","","html-keyboard-response","8","182951","0.0-1.0-3.0","0","0","22946","","null","","","null","0","NaN","","","","","","","","","","","","","","",""
"","S2","","html-keyboard-response","9","183207","0.0-1.0-4.0","0","0","22946","","null","","","null","0","","NaN","","","","","","","","","","","","","",""
"","response","","html-keyboard-response","10","184967","0.0-1.0-5.0-0.0","0","0","22946","","null","","","null","0","","","1","0","training","adjacent","EF","5","6","L.jpg","R.jpg","NaN","1","0","",""
"","too_slow_prompt","","html-keyboard-response","11","185975","0.0-1.0-7.0-0.0","1","0","22946","","null","","","null","","","","","","","","","","","","","","","","",""
"","time_out","","html-keyboard-response","12","187983","0.0-1.0-8.0-0.0","0","0","22946","","null","","","null","0","","","","","","","","","","","","","","","",""
"","ITI","","html-keyboard-response","13","188991","0.0-1.0-9.0","0","0","22946","","470","","","68","0","","","","","","","","","","","","","","","d",""
"","S1","","html-keyboard-response","14","189255","0.0-1.0-11.0","0","0","22946","","null","","","null","1","","","","","","","","","","","","","","","",""
"","ISI","","html-keyboard-response","15","190264","0.0-1.0-12.0","0","0","22946","","null","","","null","1","NaN","","","","","","","","","","","","","","",""
"","S2","","html-keyboard-response","16","190527","0.0-1.0-13.0","0","0","22946","","null","","","null","1","","NaN","","","","","","","","","","","","","",""
"","response","","html-keyboard-response","17","191407","0.0-1.0-14.0-0.0","0","0","22946","","875","","","68","1","","","1","1","training","adjacent","CD","3","4","P.jpg","Q.jpg","1","1","1","",""
"","feedback","","html-keyboard-response","18","192416","0.0-1.0-15.0-0.0","0","0","22946","","null","","","null","1","","","","","","","","","","","","","","","",""
"","ITI","","html-keyboard-response","19","193423","0.0-1.0-18.0","0","0","22946","","null","","","null","1","","","","","","","","","","","","","","","NaN",""
"","S1","","html-keyboard-response","20","193679","0.0-1.0-20.0","0","0","22946","","null","","","null","2","","","","","","","","","","","","","","","",""
"","ISI","","html-keyboard-response","21","194687","0.0-1.0-21.0","0","0","22946","","null","","","null","2","NaN","","","","","","","","","","","","","","",""
"","S2","","html-keyboard-response","22","194944","0.0-1.0-22.0","0","0","22946","","null","","","null","2","","NaN","","","","","","","","","","","","","",""
"","response","","html-keyboard-response","23","194997","0.0-1.0-23.0-0.0","0","0","22946","","50","","","68","2","","","1","2","training","adjacent","CD","3","4","P.jpg","Q.jpg","1","1","1","",""
"","feedback","","html-keyboard-response","24","196007","0.0-1.0-24.0-0.0","0","0","22946","","null","","","null","2","","","","","","","","","","","","","","","",""
"","ITI","","html-keyboard-response","25","197015","0.0-1.0-27.0","0","0","22946","","null","","","null","2","","","","","","","","","","","","","","","NaN",""
"","S1","","html-keyboard-response","26","197271","0.0-1.0-29.0","0","0","22946","","null","","","null","3","","","","","","","","","","","","","","","",""
"","ISI","","html-keyboard-response","27","198278","0.0-1.0-30.0","0","0","22946","","976","","","68","3","d","","","","","","","","","","","","","","",""
"","S2","","html-keyboard-response","28","198535","0.0-1.0-31.0","0","0","22946","","null","","","null","3","","NaN","","","","","","","","","","","","","",""
"","response","","html-keyboard-response","29","199513","0.0-1.0-32.0-0.0","0","0","22946","","974","","","68","3","","","1","3","training","adjacent","AB","1","2","N.jpg","O.jpg","1","1","1","",""
"","feedback","","html-keyboard-response","30","200520","0.0-1.0-33.0-0.0","0","0","22946","","null","","","null","3","","","","","","","","","","","","","","","",""
"","ITI","","html-keyboard-response","31","201527","0.0-1.0-36.0","0","0","22946","","null","","","null","3","","","","","","","","","","","","","","","NaN",""
"","S1","","html-keyboard-response","32","201783","0.0-1.0-38.0","0","0","22946","","null","","","null","4","","","","","","","","","","","","","","","",""
"","ISI","","html-keyboard-response","33","202791","0.0-1.0-39.0","0","0","22946","","null","","","null","4","NaN","","","","","","","","","","","","","","",""
"","S2","","html-keyboard-response","34","203048","0.0-1.0-40.0","0","0","22946","","null","","","null","4","","NaN","","","","","","","","","","","","","",""
"","response","","html-keyboard-response","35","203098","0.0-1.0-41.0-0.0","0","0","22946","","46","","","68","4","","","1","4","training","adjacent","FG","6","7","R.jpg","M.jpg","1","1","1","",""
"","feedback","","html-keyboard-response","36","204111","0.0-1.0-42.0-0.0","0","0","22946","","null","","","null","4","","","","","","","","","","","","","","","",""
"","ITI","","html-keyboard-response","37","205119","0.0-1.0-45.0","0","0","22946","","null","","","null","4","","","","","","","","","","","","","","","NaN",""
"","S1","","html-keyboard-response","38","205375","0.0-1.0-47.0","0","0","22946","","null","","","null","5","","","","","","","","","","","","","","","",""
"","ISI","","html-keyboard-response","39","206383","0.0-1.0-48.0","0","0","22946","","null","","","null","5","NaN","","","","","","","","","","","","","","",""
"","S2","","html-keyboard-response","40","206639","0.0-1.0-49.0","0","0","22946","","null","","","null","5","","NaN","","","","","","","","","","","","","",""
"","response","","html-keyboard-response","41","207046","0.0-1.0-50.0-0.0","0","0","22946","","403","","","68","5","","","1","5","training","adjacent","CB","3","2","P.jpg","O.jpg","1","0","0","",""
"","feedback","","html-keyboard-response","42","208057","0.0-1.0-51.0-0.0","0","0","22946","","null","","","null","5","","","","","","","","","","","","","","","",""
"","time_out","","html-keyboard-response","43","210063","0.0-1.0-53.0-0.0","0","0","22946","","null","","","null","5","","","","","","","","","","","","","","","",""
"","ITI","","html-keyboard-response","44","211072","0.0-1.0-54.0","0","0","22946","","null","","","null","5","","","","","","","","","","","","","","","NaN",""
"","S1","","html-keyboard-response","45","211327","0.0-1.0-56.0","0","0","22946","","null","","","null","6","","","","","","","","","","","","","","","",""
"","ISI","","html-keyboard-response","46","212335","0.0-1.0-57.0","0","0","22946","","null","","","null","6","NaN","","","","","","","","","","","","","","",""
"","S2","","html-keyboard-response","47","212591","0.0-1.0-58.0","0","0","22946","","null","","","null","6","","NaN","","","","","","","","","","","","","",""
"","response","","html-keyboard-response","48","212663","0.0-1.0-59.0-0.0","0","0","22946","","66","","","68","6","","","1","6","training","adjacent","ED","5","4","L.jpg","Q.jpg","1","0","0","",""
"","feedback","","html-keyboard-response","49","213671","0.0-1.0-60.0-0.0","0","0","22946","","null","","","null","6","","","","","","","","","","","","","","","",""
"","time_out","","html-keyboard-response","50","215679","0.0-1.0-62.0-0.0","0","0","22946","","null","","","null","6","","","","","","","","","","","","","","","",""
"","ITI","","html-keyboard-response","51","216687","0.0-1.0-63.0","0","0","22946","","null","","","null","6","","","","","","","","","","","","","","","NaN",""
"","S1","","html-keyboard-response","52","216943","0.0-1.0-65.0","0","0","22946","","null","","","null","7","","","","","","","","","","","","","","","",""
"","ISI","","html-keyboard-response","53","217951","0.0-1.0-66.0","0","0","22946","","null","","","null","7","NaN","","","","","","","","","","","","","","",""
"","S2","","html-keyboard-response","54","218207","0.0-1.0-67.0","0","0","22946","","null","","","null","7","","NaN","","","","","","","","","","","","","",""
"","response","","html-keyboard-response","55","218246","0.0-1.0-68.0-0.0","0","0","22946","","34","","","68","7","","","1","7","training","adjacent","DE","4","5","Q.jpg","L.jpg","1","1","1","",""
"","feedback","","html-keyboard-response","56","219256","0.0-1.0-69.0-0.0","0","0","22946","","null","","","null","7","","","","","","","","","","","","","","","",""
"","ITI","","html-keyboard-response","57","220263","0.0-1.0-72.0","0","0","22946","","null","","","null","7","","","","","","","","","","","","","","","NaN",""
"","S1","","html-keyboard-response","58","220520","0.0-1.0-74.0","0","0","22946","","null","","","null","8","","","","","","","","","","","","","","","",""
"","ISI","","html-keyboard-response","59","221527","0.0-1.0-75.0","0","0","22946","","null","","","null","8","NaN","","","","","","","","","","","","","","",""
"","S2","","html-keyboard-response","60","221783","0.0-1.0-76.0","0","0","22946","","null","","","null","8","","NaN","","","","","","","","","","","","","",""
"","response","","html-keyboard-response","61","221794","0.0-1.0-77.0-0.0","0","0","22946","","6","","","68","8","","","1","8","training","adjacent","DC","4","3","Q.jpg","P.jpg","1","0","0","",""
"","feedback","","html-keyboard-response","62","222799","0.0-1.0-78.0-0.0","0","0","22946","","null","","","null","8","","","","","","","","","","","","","","","",""
"","time_out","","html-keyboard-response","63","224807","0.0-1.0-80.0-0.0","0","0","22946","","null","","","null","8","","","","","","","","","","","","","","","",""
"","ITI","","html-keyboard-response","64","225816","0.0-1.0-81.0","0","0","22946","","null","","","null","8","","","","","","","","","","","","","","","NaN",""
"","S1","","html-keyboard-response","65","226072","0.0-1.0-83.0","0","0","22946","","null","","","null","9","","","","","","","","","","","","","","","",""
"","ISI","","html-keyboard-response","66","227081","0.0-1.0-84.0","0","0","22946","","null","","","null","9","NaN","","","","","","","","","","","","","","",""
"","S2","","html-keyboard-response","67","227343","0.0-1.0-85.0","0","0","22946","","null","","","null","9","","NaN","","","","","","","","","","","","","",""
"","response","","html-keyboard-response","68","227691","0.0-1.0-86.0-0.0","0","0","22946","","342","","","68","9","","","1","9","training","adjacent","AB","1","2","N.jpg","O.jpg","1","1","1","",""
"","feedback","","html-keyboard-response","69","228703","0.0-1.0-87.0-0.0","0","0","22946","","null","","","null","9","","","","","","","","","","","","","","","",""
"","ITI","","html-keyboard-response","70","229711","0.0-1.0-90.0","0","0","22946","","null","","","null","9","","","","","","","","","","","","","","","NaN",""
"","S1","","html-keyboard-response","71","229969","0.0-1.0-92.0","0","0","22946","","null","","","null","10","","","","","","","","","","","","","","","",""
"","ISI","","html-keyboard-response","72","230975","0.0-1.0-93.0","0","0","22946","","null","","","null","10","NaN","","","","","","","","","","","","","","",""
"","S2","","html-keyboard-response","73","231231","0.0-1.0-94.0","0","0","22946","","null","","","null","10","","NaN","","","","","","","","","","","","","",""
"","response","","html-keyboard-response","74","231622","0.0-1.0-95.0-0.0","0","0","22946","","387","","","68","10","","","1","10","training","adjacent","DC","4","3","Q.jpg","P.jpg","1","0","0","",""
"","feedback","","html-keyboard-response","75","232631","0.0-1.0-96.0-0.0","0","0","22946","","null","","","null","10","","","","","","","","","","","","","","","",""
"","time_out","","html-keyboard-response","76","234639","0.0-1.0-98.0-0.0","0","0","22946","","null","","","null","10","","","","","","","","","","","","","","","",""
"","ITI","","html-keyboard-response","77","235647","0.0-1.0-99.0","0","0","22946","","null","","","null","10","","","","","","","","","","","","","","","NaN",""
"","S1","","html-keyboard-response","78","235903","0.0-1.0-101.0","0","0","22946","","null","","","null","11","","","","","","","","","","","","","","","",""
"","ISI","","html-keyboard-response","79","236911","0.0-1.0-102.0","0","0","22946","","null","","","null","11","NaN","","","","","","","","","","","","","","",""
"","S2","","html-keyboard-response","80","237167","0.0-1.0-103.0","0","0","22946","","null","","","null","11","","NaN","","","","","","","","","","","","","",""
"","response","","html-keyboard-response","81","237317","0.0-1.0-104.0-0.0","0","0","22946","","144","","","68","11","","","1","11","training","adjacent","CB","3","2","P.jpg","O.jpg","1","0","0","",""
"","feedback","","html-keyboard-response","82","238327","0.0-1.0-105.0-0.0","0","0","22946","","null","","","null","11","","","","","","","","","","","","","","","",""
"","time_out","","html-keyboard-response","83","240335","0.0-1.0-107.0-0.0","0","0","22946","","null","","","null","11","","","","","","","","","","","","","","","",""
"","ITI","","html-keyboard-response","84","241343","0.0-1.0-108.0","0","0","22946","","null","","","null","11","","","","","","","","","","","","","","","NaN",""
"","S1","","html-keyboard-response","85","241599","0.0-1.0-110.0","0","0","22946","","null","","","null","12","","","","","","","","","","","","","","","",""
"","ISI","","html-keyboard-response","86","242608","0.0-1.0-111.0","0","0","22946","","null","","","null","12","NaN","","","","","","","","","","","","","","",""
"","S2","","html-keyboard-response","87","242863","0.0-1.0-112.0","0","0","22946","","null","","","null","12","","NaN","","","","","","","","","","","","","",""
"","response","","html-keyboard-response","88","243064","0.0-1.0-113.0-0.0","0","0","22946","","197","","","68","12","","","1","12","training","adjacent","DE","4","5","Q.jpg","L.jpg","1","1","1","",""
"","feedback","","html-keyboard-response","89","244071","0.0-1.0-114.0-0.0","0","0","22946","","null","","","null","12","","","","","","","","","","","","","","","",""
"","ITI","","html-keyboard-response","90","245080","0.0-1.0-117.0","0","0","22946","","null","","","null","12","","","","","","","","","","","","","","","NaN",""
"","S1","","html-keyboard-response","91","245336","0.0-1.0-119.0","0","0","22946","","null","","","null","13","","","","","","","","","","","","","","","",""
"","ISI","","html-keyboard-response","92","246344","0.0-1.0-120.0","0","0","22946","","null","","","null","13","NaN","","","","","","","","","","","","","","",""
"","S2","","html-keyboard-response","93","246599","0.0-1.0-121.0","0","0","22946","","null","","","null","13","","NaN","","","","","","","","","","","","","",""
"","response","","html-keyboard-response","94","247203","0.0-1.0-122.0-0.0","0","0","22946","","599","","","75","13","","","1","13","training","adjacent","FG","6","7","R.jpg","M.jpg","0","1","0","",""
"","feedback","","html-keyboard-response","95","248216","0.0-1.0-123.0-0.0","0","0","22946","","null","","","null","13","","","","","","","","","","","","","","","",""
"","time_out","","html-keyboard-response","96","250223","0.0-1.0-125.0-0.0","0","0","22946","","null","","","null","13","","","","","","","","","","","","","","","",""
"","ITI","","html-keyboard-response","97","251231","0.0-1.0-126.0","0","0","22946","","null","","","null","13","","","","","","","","","","","","","","","NaN",""
"","S1","","html-keyboard-response","98","251487","0.0-1.0-128.0","0","0","22946","","null","","","null","14","","","","","","","","","","","","","","","",""
"","ISI","","html-keyboard-response","99","252495","0.0-1.0-129.0","0","0","22946","","null","","","null","14","NaN","","","","","","","","","","","","","","",""
"","S2","","html-keyboard-response","100","252751","0.0-1.0-130.0","0","0","22946","","null","","","null","14","","NaN","","","","","","","","","","","","","",""
"","response","","html-keyboard-response","101","252898","0.0-1.0-131.0-0.0","0","0","22946","","141","","","68","14","","","1","14","training","adjacent","GF","7","6","M.jpg","R.jpg","1","0","0","",""
"","feedback","","html-keyboard-response","102","253911","0.0-1.0-132.0-0.0","0","0","22946","","null","","","null","14","","","","","","","","","","","","","","","",""
"","time_out","","html-keyboard-response","103","255919","0.0-1.0-134.0-0.0","0","0","22946","","null","","","null","14","","","","","","","","","","","","","","","",""
"","ITI","","html-keyboard-response","104","256928","0.0-1.0-135.0","0","0","22946","","null","","","null","14","","","","","","","","","","","","","","","NaN",""
"","S1","","html-keyboard-response","105","257184","0.0-1.0-137.0","0","0","22946","","null","","","null","15","","","","","","","","","","","","","","","",""
"","ISI","","html-keyboard-response","106","258191","0.0-1.0-138.0","0","0","22946","","null","","","null","15","NaN","","","","","","","","","","","","","","",""
"","S2","","html-keyboard-response","107","258447","0.0-1.0-139.0","0","0","22946","","null","","","null","15","","NaN","","","","","","","","","","","","","",""
"","response","","html-keyboard-response","108","258569","0.0-1.0-140.0-0.0","0","0","22946","","117","","","68","15","","","1","15","training","adjacent","AB","1","2","N.jpg","O.jpg","1","1","1","",""
"","feedback","","html-keyboard-response","109","259575","0.0-1.0-141.0-0.0","0","0","22946","","null","","","null","15","","","","","","","","","","","","","","","",""
"","ITI","","html-keyboard-response","110","260584","0.0-1.0-144.0","0","0","22946","","null","","","null","15","","","","","","","","","","","","","","","NaN",""
"","S1","","html-keyboard-response","111","260847","0.0-1.0-146.0","0","0","22946","","null","","","null","16","","","","","","","","","","","","","","","",""
"","ISI","","html-keyboard-response","112","261855","0.0-1.0-147.0","0","0","22946","","null","","","null","16","NaN","","","","","","","","","","","","","","",""
"","S2","","html-keyboard-response","113","262111","0.0-1.0-148.0","0","0","22946","","null","","","null","16","","NaN","","","","","","","","","","","","","",""
"","response","","html-keyboard-response","114","263112","0.0-1.0-149.0-0.0","0","0","22946","","997","","","75","16","","","1","16","training","adjacent","DC","4","3","Q.jpg","P.jpg","0","0","1","",""
"","feedback","","html-keyboard-response","115","264120","0.0-1.0-150.0-0.0","0","0","22946","","null","","","null","16","","","","","","","","","","","","","","","",""
"","ITI","","html-keyboard-response","116","265127","0.0-1.0-153.0","0","0","22946","","null","","","null","16","","","","","","","","","","","","","","","NaN",""
"","S1","","html-keyboard-response","117","265383","0.0-1.0-155.0","0","0","22946","","null","","","null","17","","","","","","","","","","","","","","","",""
"","ISI","","html-keyboard-response","118","266392","0.0-1.0-156.0","0","0","22946","","null","","","null","17","NaN","","","","","","","","","","","","","","",""
"","S2","","html-keyboard-response","119","266648","0.0-1.0-157.0","0","0","22946","","null","","","null","17","","NaN","","","","","","","","","","","","","",""
"","response","","html-keyboard-response","120","267481","0.0-1.0-158.0-0.0","0","0","22946","","828","","","75","17","","","1","17","training","adjacent","AB","1","2","N.jpg","O.jpg","0","1","0","",""
"","feedback","","html-keyboard-response","121","268487","0.0-1.0-159.0-0.0","0","0","22946","","null","","","null","17","","","","","","","","","","","","","","","",""
"","time_out","","html-keyboard-response","122","270496","0.0-1.0-161.0-0.0","0","0","22946","","null","","","null","17","","","","","","","","","","","","","","","",""
"","ITI","","html-keyboard-response","123","271503","0.0-1.0-162.0","0","0","22946","","null","","","null","17","","","","","","","","","","","","","","","NaN",""
"","S1","","html-keyboard-response","124","271759","0.0-1.0-164.0","0","0","22946","","null","","","null","18","","","","","","","","","","","","","","","",""
"","ISI","","html-keyboard-response","125","272767","0.0-1.0-165.0","0","0","22946","","null","","","null","18","NaN","","","","","","","","","","","","","","",""
"","S2","","html-keyboard-response","126","273023","0.0-1.0-166.0","0","0","22946","","null","","","null","18","","NaN","","","","","","","","","","","","","",""
"","response","","html-keyboard-response","127","273141","0.0-1.0-167.0-0.0","0","0","22946","","113","","","68","18","","","1","18","training","adjacent","CD","3","4","P.jpg","Q.jpg","1","1","1","",""
"","feedback","","html-keyboard-response","128","274151","0.0-1.0-168.0-0.0","0","0","22946","","null","","","null","18","","","","","","","","","","","","","","","",""
"","ITI","","html-keyboard-response","129","275160","0.0-1.0-171.0","0","0","22946","","null","","","null","18","","","","","","","","","","","","","","","NaN",""
"","S1","","html-keyboard-response","130","275415","0.0-1.0-173.0","0","0","22946","","null","","","null","19","","","","","","","","","","","","","","","",""
"","ISI","","html-keyboard-response","131","276423","0.0-1.0-174.0","0","0","22946","","null","","","null","19","NaN","","","","","","","","","","","","","","",""
"","S2","","html-keyboard-response","132","276679","0.0-1.0-175.0","0","0","22946","","null","","","null","19","","NaN","","","","","","","","","","","","","",""
"","response","","html-keyboard-response","133","277135","0.0-1.0-176.0-0.0","0","0","22946","","453","","","75","19","","","1","19","training","adjacent","DE","4","5","Q.jpg","L.jpg","0","1","0","",""
"","feedback","","html-keyboard-response","134","278143","0.0-1.0-177.0-0.0","0","0","22946","","null","","","null","19","","","","","","","","","","","","","","","",""
"","time_out","","html-keyboard-response","135","280151","0.0-1.0-179.0-0.0","0","0","22946","","null","","","null","19","","","","","","","","","","","","","","","",""
"","ITI","","html-keyboard-response","136","281160","0.0-1.0-180.0","0","0","22946","","null","","","null","19","","","","","","","","","","","","","","","NaN",""
"","S1","","html-keyboard-response","137","281423","0.0-1.0-182.0","0","0","22946","","null","","","null","20","","","","","","","","","","","","","","","",""
"","ISI","","html-keyboard-response","138","282431","0.0-1.0-183.0","0","0","22946","","null","","","null","20","NaN","","","","","","","","","","","","","","",""
"","S2","","html-keyboard-response","139","282687","0.0-1.0-184.0","0","0","22946","","null","","","null","20","","NaN","","","","","","","","","","","","","",""
"","response","","html-keyboard-response","140","283353","0.0-1.0-185.0-0.0","0","0","22946","","661","","","75","20","","","1","20","training","adjacent","BA","2","1","O.jpg","N.jpg","0","0","1","",""
"","feedback","","html-keyboard-response","141","284359","0.0-1.0-186.0-0.0","0","0","22946","","null","","","null","20","","","","","","","","","","","","","","","",""
"","ITI","","html-keyboard-response","142","285367","0.0-1.0-189.0","0","0","22946","","null","","","null","20","","","","","","","","","","","","","","","NaN",""
"","S1","","html-keyboard-response","143","285623","0.0-1.0-191.0","0","0","22946","","null","","","null","21","","","","","","","","","","","","","","","",""
"","ISI","","html-keyboard-response","144","286631","0.0-1.0-192.0","0","0","22946","","null","","","null","21","NaN","","","","","","","","","","","","","","",""
"","S2","","html-keyboard-response","145","286887","0.0-1.0-193.0","0","0","22946","","null","","","null","21","","NaN","","","","","","","","","","","","","",""
"","response","","html-keyboard-response","146","287951","0.0-1.0-194.0-0.0","0","0","22946","","1058","","","68","21","","","1","21","training","adjacent","DE","4","5","Q.jpg","L.jpg","1","1","1","",""
"","feedback","","html-keyboard-response","147","288959","0.0-1.0-195.0-0.0","0","0","22946","","null","","","null","21","","","","","","","","","","","","","","","",""
"","ITI","","html-keyboard-response","148","289967","0.0-1.0-198.0","0","0","22946","","null","","","null","21","","","","","","","","","","","","","","","NaN",""
"","S1","","html-keyboard-response","149","290223","0.0-1.0-200.0","0","0","22946","","null","","","null","22","","","","","","","","","","","","","","","",""
"","ISI","","html-keyboard-response","150","291231","0.0-1.0-201.0","0","0","22946","","null","","","null","22","NaN","","","","","","","","","","","","","","",""
"","S2","","html-keyboard-response","151","291487","0.0-1.0-202.0","0","0","22946","","null","","","null","22","","NaN","","","","","","","","","","","","","",""
"","response","","html-keyboard-response","152","292282","0.0-1.0-203.0-0.0","0","0","22946","","791","","","68","22","","","1","22","training","adjacent","CD","3","4","P.jpg","Q.jpg","1","1","1","",""
"","feedback","","html-keyboard-response","153","293295","0.0-1.0-204.0-0.0","0","0","22946","","null","","","null","22","","","","","","","","","","","","","","","",""
"","ITI","","html-keyboard-response","154","294303","0.0-1.0-207.0","0","0","22946","","null","","","null","22","","","","","","","","","","","","","","","NaN",""
"","S1","","html-keyboard-response","155","294559","0.0-1.0-209.0","0","0","22946","","null","","","null","23","","","","","","","","","","","","","","","",""
"","ISI","","html-keyboard-response","156","295567","0.0-1.0-210.0","0","0","22946","","null","","","null","23","NaN","","","","","","","","","","","","","","",""
"","S2","","html-keyboard-response","157","295823","0.0-1.0-211.0","0","0","22946","","null","","","null","23","","NaN","","","","","","","","","","","","","",""
"","response","","html-keyboard-response","158","296604","0.0-1.0-212.0-0.0","0","0","22946","","776","","","75","23","","","1","23","training","adjacent","BC","2","3","O.jpg","P.jpg","0","1","0","",""
"","feedback","","html-keyboard-response","159","297616","0.0-1.0-213.0-0.0","0","0","22946","","null","","","null","23","","","","","","","","","","","","","","","",""
"","time_out","","html-keyboard-response","160","299623","0.0-1.0-215.0-0.0","0","0","22946","","null","","","null","23","","","","","","","","","","","","","","","",""
"","ITI","","html-keyboard-response","161","300631","0.0-1.0-216.0","0","0","22946","","null","","","null","23","","","","","","","","","","","","","","","NaN",""
"","S1","","html-keyboard-response","162","300887","0.0-1.0-218.0","0","0","22946","","null","","","null","24","","","","","","","","","","","","","","","",""
"","ISI","","html-keyboard-response","163","301895","0.0-1.0-219.0","0","0","22946","","null","","","null","24","NaN","","","","","","","","","","","","","","",""
"","S2","","html-keyboard-response","164","302151","0.0-1.0-220.0","0","0","22946","","null","","","null","24","","NaN","","","","","","","","","","","","","",""
"","response","","html-keyboard-response","165","302926","0.0-1.0-221.0-0.0","0","0","22946","","769","","","75","24","","","1","24","training","adjacent","EF","5","6","L.jpg","R.jpg","0","1","0","",""
"","feedback","","html-keyboard-response","166","303935","0.0-1.0-222.0-0.0","0","0","22946","","null","","","null","24","","","","","","","","","","","","","","","",""
"","time_out","","html-keyboard-response","167","305943","0.0-1.0-224.0-0.0","0","0","22946","","null","","","null","24","","","","","","","","","","","","","","","",""
"","ITI","","html-keyboard-response","168","306951","0.0-1.0-225.0","0","0","22946","","null","","","null","24","","","","","","","","","","","","","","","NaN",""
"","S1","","html-keyboard-response","169","307207","0.0-1.0-227.0","0","0","22946","","null","","","null","25","","","","","","","","","","","","","","","",""
"","ISI","","html-keyboard-response","170","308215","0.0-1.0-228.0","0","0","22946","","null","","","null","25","NaN","","","","","","","","","","","","","","",""
"","S2","","html-keyboard-response","171","308472","0.0-1.0-229.0","0","0","22946","","null","","","null","25","","NaN","","","","","","","","","","","","","",""
"","response","","html-keyboard-response","172","308651","0.0-1.0-230.0-0.0","0","0","22946","","174","","","68","25","","","1","25","training","adjacent","GF","7","6","M.jpg","R.jpg","1","0","0","",""
"","feedback","","html-keyboard-response","173","309663","0.0-1.0-231.0-0.0","0","0","22946","","null","","","null","25","","","","","","","","","","","","","","","",""
"","time_out","","html-keyboard-response","174","311672","0.0-1.0-233.0-0.0","0","0","22946","","null","","","null","25","","","","","","","","","","","","","","","",""
"","ITI","","html-keyboard-response","175","312679","0.0-1.0-234.0","0","0","22946","","null","","","null","25","","","","","","","","","","","","","","","NaN",""
"","S1","","html-keyboard-response","176","312935","0.0-1.0-236.0","0","0","22946","","null","","","null","26","","","","","","","","","","","","","","","",""
"","ISI","","html-keyboard-response","177","313944","0.0-1.0-237.0","0","0","22946","","null","","","null","26","NaN","","","","","","","","","","","","","","",""
"","S2","","html-keyboard-response","178","314199","0.0-1.0-238.0","0","0","22946","","null","","","null","26","","NaN","","","","","","","","","","","","","",""
"","response","","html-keyboard-response","179","314352","0.0-1.0-239.0-0.0","0","0","22946","","148","","","68","26","","","1","26","training","adjacent","CB","3","2","P.jpg","O.jpg","1","0","0","",""
"","feedback","","html-keyboard-response","180","315359","0.0-1.0-240.0-0.0","0","0","22946","","null","","","null","26","","","","","","","","","","","","","","","",""
"","time_out","","html-keyboard-response","181","317367","0.0-1.0-242.0-0.0","0","0","22946","","null","","","null","26","","","","","","","","","","","","","","","",""
"","ITI","","html-keyboard-response","182","318375","0.0-1.0-243.0","0","0","22946","","null","","","null","26","","","","","","","","","","","","","","","NaN",""
"","S1","","html-keyboard-response","183","318631","0.0-1.0-245.0","0","0","22946","","null","","","null","27","","","","","","","","","","","","","","","",""
"","ISI","","html-keyboard-response","184","319640","0.0-1.0-246.0","0","0","22946","","null","","","null","27","NaN","","","","","","","","","","","","","","",""
"","S2","","html-keyboard-response","185","319896","0.0-1.0-247.0","0","0","22946","","null","","","null","27","","NaN","","","","","","","","","","","","","",""
"","response","","html-keyboard-response","186","320261","0.0-1.0-248.0-0.0","0","0","22946","","361","","","75","27","","","1","27","training","adjacent","EF","5","6","L.jpg","R.jpg","0","1","0","",""
"","feedback","","html-keyboard-response","187","321271","0.0-1.0-249.0-0.0","0","0","22946","","null","","","null","27","","","","","","","","","","","","","","","",""
"","time_out","","html-keyboard-response","188","323279","0.0-1.0-251.0-0.0","0","0","22946","","null","","","null","27","","","","","","","","","","","","","","","",""
"","ITI","","html-keyboard-response","189","324287","0.0-1.0-252.0","0","0","22946","","null","","","null","27","","","","","","","","","","","","","","","NaN",""
"","S1","","html-keyboard-response","190","324543","0.0-1.0-254.0","0","0","22946","","null","","","null","28","","","","","","","","","","","","","","","",""
"","ISI","","html-keyboard-response","191","325551","0.0-1.0-255.0","0","0","22946","","null","","","null","28","NaN","","","","","","","","","","","","","","",""
"","S2","","html-keyboard-response","192","325807","0.0-1.0-256.0","0","0","22946","","null","","","null","28","","NaN","","","","","","","","","","","","","",""
"","response","","html-keyboard-response","193","326517","0.0-1.0-257.0-0.0","0","0","22946","","705","","","75","28","","","1","28","training","adjacent","BA","2","1","O.jpg","N.jpg","0","0","1","",""
"","feedback","","html-keyboard-response","194","327527","0.0-1.0-258.0-0.0","0","0","22946","","null","","","null","28","","","","","","","","","","","","","","","",""
"","ITI","","html-keyboard-response","195","328536","0.0-1.0-261.0","0","0","22946","","null","","","null","28","","","","","","","","","","","","","","","NaN",""
"","S1","","html-keyboard-response","196","328792","0.0-1.0-263.0","0","0","22946","","null","","","null","29","","","","","","","","","","","","","","","",""
"","ISI","","html-keyboard-response","197","329799","0.0-1.0-264.0","0","0","22946","","null","","","null","29","NaN","","","","","","","","","","","","","","",""
"","S2","","html-keyboard-response","198","330055","0.0-1.0-265.0","0","0","22946","","null","","","null","29","","NaN","","","","","","","","","","","","","",""
"","response","","html-keyboard-response","199","330497","0.0-1.0-266.0-0.0","0","0","22946","","437","","","68","29","","","1","29","training","adjacent","CB","3","2","P.jpg","O.jpg","1","0","0","",""
"","feedback","","html-keyboard-response","200","331503","0.0-1.0-267.0-0.0","0","0","22946","","null","","","null","29","","","","","","","","","","","","","","","",""
"","time_out","","html-keyboard-response","201","333511","0.0-1.0-269.0-0.0","0","0","22946","","null","","","null","29","","","","","","","","","","","","","","","",""
"","ITI","","html-keyboard-response","202","334520","0.0-1.0-270.0","0","0","22946","","null","","","null","29","","","","","","","","","","","","","","","NaN",""
"","S1","","html-keyboard-response","203","334776","0.0-1.0-272.0","0","0","22946","","null","","","null","30","","","","","","","","","","","","","","","",""
"","ISI","","html-keyboard-response","204","335783","0.0-1.0-273.0","0","0","22946","","null","","","null","30","NaN","","","","","","","","","","","","","","",""
"","S2","","html-keyboard-response","205","336039","0.0-1.0-274.0","0","0","22946","","null","","","null","30","","NaN","","","","","","","","","","","","","",""
"","response","","html-keyboard-response","206","336758","0.0-1.0-275.0-0.0","0","0","22946","","714","","","75","30","","","1","30","training","adjacent","FG","6","7","R.jpg","M.jpg","0","1","0","",""
"","feedback","","html-keyboard-response","207","337767","0.0-1.0-276.0-0.0","0","0","22946","","null","","","null","30","","","","","","","","","","","","","","","",""
"","time_out","","html-keyboard-response","208","339775","0.0-1.0-278.0-0.0","0","0","22946","","null","","","null","30","","","","","","","","","","","","","","","",""
"","ITI","","html-keyboard-response","209","340783","0.0-1.0-279.0","0","0","22946","","null","","","null","30","","","","","","","","","","","","","","","NaN",""
"","S1","","html-keyboard-response","210","341039","0.0-1.0-281.0","0","0","22946","","null","","","null","31","","","","","","","","","","","","","","","",""
"","ISI","","html-keyboard-response","211","342047","0.0-1.0-282.0","0","0","22946","","null","","","null","31","NaN","","","","","","","","","","","","","","",""
"","S2","","html-keyboard-response","212","342303","0.0-1.0-283.0","0","0","22946","","null","","","null","31","","NaN","","","","","","","","","","","","","",""
"","response","","html-keyboard-response","213","343609","0.0-1.0-284.0-0.0","0","0","22946","","1301","","","75","31","","","1","31","training","adjacent","BA","2","1","O.jpg","N.jpg","0","0","1","",""
"","feedback","","html-keyboard-response","214","344615","0.0-1.0-285.0-0.0","0","0","22946","","null","","","null","31","","","","","","","","","","","","","","","",""
"","ITI","","html-keyboard-response","215","345624","0.0-1.0-288.0","0","0","22946","","null","","","null","31","","","","","","","","","","","","","","","NaN",""
"","S1","","html-keyboard-response","216","345879","0.0-1.0-290.0","0","0","22946","","null","","","null","32","","","","","","","","","","","","","","","",""
"","ISI","","html-keyboard-response","217","346887","0.0-1.0-291.0","0","0","22946","","null","","","null","32","NaN","","","","","","","","","","","","","","",""
"","S2","","html-keyboard-response","218","347143","0.0-1.0-292.0","0","0","22946","","null","","","null","32","","NaN","","","","","","","","","","","","","",""
"","response","","html-keyboard-response","219","347899","0.0-1.0-293.0-0.0","0","0","22946","","750","","","68","32","","","1","32","training","adjacent","FE","6","5","R.jpg","L.jpg","1","0","0","",""
"","feedback","","html-keyboard-response","220","348912","0.0-1.0-294.0-0.0","0","0","22946","","null","","","null","32","","","","","","","","","","","","","","","",""
"","time_out","","html-keyboard-response","221","350919","0.0-1.0-296.0-0.0","0","0","22946","","null","","","null","32","","","","","","","","","","","","","","","",""
"","ITI","","html-keyboard-response","222","351928","0.0-1.0-297.0","0","0","22946","","null","","","null","32","","","","","","","","","","","","","","","NaN",""
"","S1","","html-keyboard-response","223","352191","0.0-1.0-299.0","0","0","22946","","null","","","null","33","","","","","","","","","","","","","","","",""
"","ISI","","html-keyboard-response","224","353199","0.0-1.0-300.0","0","0","22946","","null","","","null","33","NaN","","","","","","","","","","","","","","",""
"","S2","","html-keyboard-response","225","353455","0.0-1.0-301.0","0","0","22946","","null","","","null","33","","NaN","","","","","","","","","","","","","",""
"","response","","html-keyboard-response","226","353942","0.0-1.0-302.0-0.0","0","0","22946","","483","","","75","33","","","1","33","training","adjacent","FG","6","7","R.jpg","M.jpg","0","1","0","",""
"","feedback","","html-keyboard-response","227","354952","0.0-1.0-303.0-0.0","0","0","22946","","null","","","null","33","","","","","","","","","","","","","","","",""
"","time_out","","html-keyboard-response","228","356959","0.0-1.0-305.0-0.0","0","0","22946","","null","","","null","33","","","","","","","","","","","","","","","",""
"","ITI","","html-keyboard-response","229","357967","0.0-1.0-306.0","0","0","22946","","null","","","null","33","","","","","","","","","","","","","","","NaN",""
"","S1","","html-keyboard-response","230","358223","0.0-1.0-308.0","0","0","22946","","null","","","null","34","","","","","","","","","","","","","","","",""
"","ISI","","html-keyboard-response","231","359231","0.0-1.0-309.0","0","0","22946","","null","","","null","34","NaN","","","","","","","","","","","","","","",""
"","S2","","html-keyboard-response","232","359488","0.0-1.0-310.0","0","0","22946","","null","","","null","34","","NaN","","","","","","","","","","","","","",""
"","response","","html-keyboard-response","233","359927","0.0-1.0-311.0-0.0","0","0","22946","","434","","","68","34","","","1","34","training","adjacent","FE","6","5","R.jpg","L.jpg","1","0","0","",""
"","feedback","","html-keyboard-response","234","360935","0.0-1.0-312.0-0.0","0","0","22946","","null","","","null","34","","","","","","","","","","","","","","","",""
"","time_out","","html-keyboard-response","235","362943","0.0-1.0-314.0-0.0","0","0","22946","","null","","","null","34","","","","","","","","","","","","","","","",""
"","ITI","","html-keyboard-response","236","363951","0.0-1.0-315.0","0","0","22946","","null","","","null","34","","","","","","","","","","","","","","","NaN",""
"","S1","","html-keyboard-response","237","364207","0.0-1.0-317.0","0","0","22946","","null","","","null","35","","","","","","","","","","","","","","","",""
"","ISI","","html-keyboard-response","238","365215","0.0-1.0-318.0","0","0","22946","","null","","","null","35","NaN","","","","","","","","","","","","","","",""
"","S2","","html-keyboard-response","239","365471","0.0-1.0-319.0","0","0","22946","","null","","","null","35","","NaN","","","","","","","","","","","","","",""
"","response","","html-keyboard-response","240","365900","0.0-1.0-320.0-0.0","0","0","22946","","424","","","75","35","","","1","35","training","adjacent","ED","5","4","L.jpg","Q.jpg","0","0","1","",""
"","feedback","","html-keyboard-response","241","366912","0.0-1.0-321.0-0.0","0","0","22946","","null","","","null","35","","","","","","","","","","","","","","","",""
"","ITI","","html-keyboard-response","242","367919","0.0-1.0-324.0","0","0","22946","","null","","","null","35","","","","","","","","","","","","","","","NaN",""
"","S1","","html-keyboard-response","243","368175","0.0-1.0-326.0","0","0","22946","","null","","","null","36","","","","","","","","","","","","","","","",""
"","ISI","","html-keyboard-response","244","369183","0.0-1.0-327.0","0","0","22946","","null","","","null","36","NaN","","","","","","","","","","","","","","",""
"","S2","","html-keyboard-response","245","369439","0.0-1.0-328.0","0","0","22946","","null","","","null","36","","NaN","","","","","","","","","","","","","",""
"","response","","html-keyboard-response","246","370479","0.0-1.0-329.0-0.0","0","0","22946","","1035","","","68","36","","","1","36","training","adjacent","BA","2","1","O.jpg","N.jpg","1","0","0","",""
"","feedback","","html-keyboard-response","247","371487","0.0-1.0-330.0-0.0","0","0","22946","","null","","","null","36","","","","","","","","","","","","","","","",""
"","time_out","","html-keyboard-response","248","373495","0.0-1.0-332.0-0.0","0","0","22946","","null","","","null","36","","","","","","","","","","","","","","","",""
"","ITI","","html-keyboard-response","249","374503","0.0-1.0-333.0","0","0","22946","","null","","","null","36","","","","","","","","","","","","","","","NaN",""
"","S1","","html-keyboard-response","250","374759","0.0-1.0-335.0","0","0","22946","","null","","","null","37","","","","","","","","","","","","","","","",""
"","ISI","","html-keyboard-response","251","375768","0.0-1.0-336.0","0","0","22946","","null","","","null","37","NaN","","","","","","","","","","","","","","",""
"","S2","","html-keyboard-response","252","376031","0.0-1.0-337.0","0","0","22946","","null","","","null","37","","NaN","","","","","","","","","","","","","",""
"","response","","html-keyboard-response","253","376459","0.0-1.0-338.0-0.0","0","0","22946","","423","","","68","37","","","1","37","training","adjacent","BC","2","3","O.jpg","P.jpg","1","1","1","",""
"","feedback","","html-keyboard-response","254","377471","0.0-1.0-339.0-0.0","0","0","22946","","null","","","null","37","","","","","","","","","","","","","","","",""
"","ITI","","html-keyboard-response","255","378479","0.0-1.0-342.0","0","0","22946","","null","","","null","37","","","","","","","","","","","","","","","NaN",""
"","S1","","html-keyboard-response","256","378735","0.0-1.0-344.0","0","0","22946","","null","","","null","38","","","","","","","","","","","","","","","",""
"","ISI","","html-keyboard-response","257","379744","0.0-1.0-345.0","0","0","22946","","null","","","null","38","NaN","","","","","","","","","","","","","","",""
"","S2","","html-keyboard-response","258","380007","0.0-1.0-346.0","0","0","22946","","null","","","null","38","","NaN","","","","","","","","","","","","","",""
"","response","","html-keyboard-response","259","380586","0.0-1.0-347.0-0.0","0","0","22946","","575","","","75","38","","","1","38","training","adjacent","EF","5","6","L.jpg","R.jpg","0","1","0","",""
"","feedback","","html-keyboard-response","260","381599","0.0-1.0-348.0-0.0","0","0","22946","","null","","","null","38","","","","","","","","","","","","","","","",""
"","time_out","","html-keyboard-response","261","383607","0.0-1.0-350.0-0.0","0","0","22946","","null","","","null","38","","","","","","","","","","","","","","","",""
"","ITI","","html-keyboard-response","262","384615","0.0-1.0-351.0","0","0","22946","","null","","","null","38","","","","","","","","","","","","","","","NaN",""
"","S1","","html-keyboard-response","263","384871","0.0-1.0-353.0","0","0","22946","","null","","","null","39","","","","","","","","","","","","","","","",""
"","ISI","","html-keyboard-response","264","385880","0.0-1.0-354.0","0","0","22946","","null","","","null","39","NaN","","","","","","","","","","","","","","",""
"","S2","","html-keyboard-response","265","386136","0.0-1.0-355.0","0","0","22946","","null","","","null","39","","NaN","","","","","","","","","","","","","",""
"","response","","html-keyboard-response","266","386934","0.0-1.0-356.0-0.0","0","0","22946","","792","","","75","39","","","1","39","training","adjacent","FE","6","5","R.jpg","L.jpg","0","0","1","",""
"","feedback","","html-keyboard-response","267","387943","0.0-1.0-357.0-0.0","0","0","22946","","null","","","null","39","","","","","","","","","","","","","","","",""
"","ITI","","html-keyboard-response","268","388951","0.0-1.0-360.0","0","0","22946","","null","","","null","39","","","","","","","","","","","","","","","NaN",""
"","S1","","html-keyboard-response","269","389208","0.0-1.0-362.0","0","0","22946","","null","","","null","40","","","","","","","","","","","","","","","",""
"","ISI","","html-keyboard-response","270","390215","0.0-1.0-363.0","0","0","22946","","null","","","null","40","NaN","","","","","","","","","","","","","","",""
"","S2","","html-keyboard-response","271","390472","0.0-1.0-364.0","0","0","22946","","null","","","null","40","","NaN","","","","","","","","","","","","","",""
"","response","","html-keyboard-response","272","390771","0.0-1.0-365.0-0.0","0","0","22946","","292","","","68","40","","","1","40","training","adjacent","GF","7","6","M.jpg","R.jpg","1","0","0","",""
"","feedback","","html-keyboard-response","273","391783","0.0-1.0-366.0-0.0","0","0","22946","","null","","","null","40","","","","","","","","","","","","","","","",""
"","time_out","","html-keyboard-response","274","393791","0.0-1.0-368.0-0.0","0","0","22946","","null","","","null","40","","","","","","","","","","","","","","","",""
"","ITI","","html-keyboard-response","275","394799","0.0-1.0-369.0","0","0","22946","","null","","","null","40","","","","","","","","","","","","","","","NaN",""
"","S1","","html-keyboard-response","276","395055","0.0-1.0-371.0","0","0","22946","","null","","","null","41","","","","","","","","","","","","","","","",""
"","ISI","","html-keyboard-response","277","396064","0.0-1.0-372.0","0","0","22946","","null","","","null","41","NaN","","","","","","","","","","","","","","",""
"","S2","","html-keyboard-response","278","396328","0.0-1.0-373.0","0","0","22946","","null","","","null","41","","NaN","","","","","","","","","","","","","",""
"","response","","html-keyboard-response","279","397008","0.0-1.0-374.0-0.0","0","0","22946","","676","","","75","41","","","1","41","training","adjacent","BC","2","3","O.jpg","P.jpg","0","1","0","",""
"","feedback","","html-keyboard-response","280","398015","0.0-1.0-375.0-0.0","0","0","22946","","null","","","null","41","","","","","","","","","","","","","","","",""
"","time_out","","html-keyboard-response","281","400023","0.0-1.0-377.0-0.0","0","0","22946","","null","","","null","41","","","","","","","","","","","","","","","",""
"","ITI","","html-keyboard-response","282","401031","0.0-1.0-378.0","0","0","22946","","null","","","null","41","","","","","","","","","","","","","","","NaN",""
"","S1","","html-keyboard-response","283","401287","0.0-1.0-380.0","0","0","22946","","null","","","null","42","","","","","","","","","","","","","","","",""
"","ISI","","html-keyboard-response","284","402296","0.0-1.0-381.0","0","0","22946","","null","","","null","42","NaN","","","","","","","","","","","","","","",""
"","S2","","html-keyboard-response","285","402551","0.0-1.0-382.0","0","0","22946","","null","","","null","42","","NaN","","","","","","","","","","","","","",""
"","response","","html-keyboard-response","286","403109","0.0-1.0-383.0-0.0","0","0","22946","","554","","","68","42","","","1","42","training","adjacent","BC","2","3","O.jpg","P.jpg","1","1","1","",""
"","feedback","","html-keyboard-response","287","404119","0.0-1.0-384.0-0.0","0","0","22946","","null","","","null","42","","","","","","","","","","","","","","","",""
"","ITI","","html-keyboard-response","288","405127","0.0-1.0-387.0","0","0","22946","","null","","","null","42","","","","","","","","","","","","","","","NaN",""
"","S1","","html-keyboard-response","289","405383","0.0-1.0-389.0","0","0","22946","","null","","","null","43","","","","","","","","","","","","","","","",""
"","ISI","","html-keyboard-response","290","406391","0.0-1.0-390.0","0","0","22946","","null","","","null","43","NaN","","","","","","","","","","","","","","",""
"","S2","","html-keyboard-response","291","406648","0.0-1.0-391.0","0","0","22946","","null","","","null","43","","NaN","","","","","","","","","","","","","",""
"","response","","html-keyboard-response","292","407224","0.0-1.0-392.0-0.0","0","0","22946","","572","","","68","43","","","1","43","training","adjacent","ED","5","4","L.jpg","Q.jpg","1","0","0","",""
"","feedback","","html-keyboard-response","293","408232","0.0-1.0-393.0-0.0","0","0","22946","","null","","","null","43","","","","","","","","","","","","","","","",""
"","time_out","","html-keyboard-response","294","410239","0.0-1.0-395.0-0.0","0","0","22946","","null","","","null","43","","","","","","","","","","","","","","","",""
"","ITI","","html-keyboard-response","295","411248","0.0-1.0-396.0","0","0","22946","","null","","","null","43","","","","","","","","","","","","","","","NaN",""
"","S1","","html-keyboard-response","296","411504","0.0-1.0-398.0","0","0","22946","","null","","","null","44","","","","","","","","","","","","","","","",""
"","ISI","","html-keyboard-response","297","412511","0.0-1.0-399.0","0","0","22946","","null","","","null","44","NaN","","","","","","","","","","","","","","",""
"","S2","","html-keyboard-response","298","412768","0.0-1.0-400.0","0","0","22946","","null","","","null","44","","NaN","","","","","","","","","","","","","",""
"","response","","html-keyboard-response","299","413209","0.0-1.0-401.0-0.0","0","0","22946","","437","","","68","44","","","1","44","training","adjacent","GF","7","6","M.jpg","R.jpg","1","0","0","",""
"","feedback","","html-keyboard-response","300","414215","0.0-1.0-402.0-0.0","0","0","22946","","null","","","null","44","","","","","","","","","","","","","","","",""
"","time_out","","html-keyboard-response","301","416223","0.0-1.0-404.0-0.0","0","0","22946","","null","","","null","44","","","","","","","","","","","","","","","",""
"","ITI","","html-keyboard-response","302","417231","0.0-1.0-405.0","0","0","22946","","null","","","null","44","","","","","","","","","","","","","","","NaN",""
"","S1","","html-keyboard-response","303","417487","0.0-1.0-407.0","0","0","22946","","null","","","null","45","","","","","","","","","","","","","","","",""
"","ISI","","html-keyboard-response","304","418495","0.0-1.0-408.0","0","0","22946","","null","","","null","45","NaN","","","","","","","","","","","","","","",""
"","S2","","html-keyboard-response","305","418751","0.0-1.0-409.0","0","0","22946","","null","","","null","45","","NaN","","","","","","","","","","","","","",""
"","response","","html-keyboard-response","306","419199","0.0-1.0-410.0-0.0","0","0","22946","","443","","","68","45","","","1","45","training","adjacent","FE","6","5","R.jpg","L.jpg","1","0","0","",""
"","feedback","","html-keyboard-response","307","420208","0.0-1.0-411.0-0.0","0","0","22946","","null","","","null","45","","","","","","","","","","","","","","","",""
"","time_out","","html-keyboard-response","308","422215","0.0-1.0-413.0-0.0","0","0","22946","","null","","","null","45","","","","","","","","","","","","","","","",""
"","ITI","","html-keyboard-response","309","423224","0.0-1.0-414.0","0","0","22946","","null","","","null","45","","","","","","","","","","","","","","","NaN",""
"","S1","","html-keyboard-response","310","423479","0.0-1.0-416.0","0","0","22946","","null","","","null","46","","","","","","","","","","","","","","","",""
"","ISI","","html-keyboard-response","311","424488","0.0-1.0-417.0","0","0","22946","","null","","","null","46","NaN","","","","","","","","","","","","","","",""
"","S2","","html-keyboard-response","312","424743","0.0-1.0-418.0","0","0","22946","","null","","","null","46","","NaN","","","","","","","","","","","","","",""
"","response","","html-keyboard-response","313","425399","0.0-1.0-419.0-0.0","0","0","22946","","651","","","75","46","","","1","46","training","adjacent","ED","5","4","L.jpg","Q.jpg","0","0","1","",""
"","feedback","","html-keyboard-response","314","426407","0.0-1.0-420.0-0.0","0","0","22946","","null","","","null","46","","","","","","","","","","","","","","","",""
"","ITI","","html-keyboard-response","315","427415","0.0-1.0-423.0","0","0","22946","","null","","","null","46","","","","","","","","","","","","","","","NaN",""
"","S1","","html-keyboard-response","316","427671","0.0-1.0-425.0","0","0","22946","","null","","","null","47","","","","","","","","","","","","","","","",""
"","ISI","","html-keyboard-response","317","428679","0.0-1.0-426.0","0","0","22946","","null","","","null","47","NaN","","","","","","","","","","","","","","",""
"","S2","","html-keyboard-response","318","428935","0.0-1.0-427.0","0","0","22946","","null","","","null","47","","NaN","","","","","","","","","","","","","",""
"","response","","html-keyboard-response","319","430175","0.0-1.0-428.0-0.0","0","0","22946","","1235","","","68","47","","","1","47","training","adjacent","DC","4","3","Q.jpg","P.jpg","1","0","0","",""
"","feedback","","html-keyboard-response","320","431184","0.0-1.0-429.0-0.0","0","0","22946","","null","","","null","47","","","","","","","","","","","","","","","",""
"","time_out","","html-keyboard-response","321","433191","0.0-1.0-431.0-0.0","0","0","22946","","null","","","null","47","","","","","","","","","","","","","","","",""
"","ITI","","html-keyboard-response","322","434199","0.0-1.0-432.0","0","0","22946","","null","","","null","47","","","","","","","","","","","","","","","NaN",""
"","block_over","","html-keyboard-response","323","439284","0.0-1.0-433.0-0.0","0","0","22946","","5079","","","32","47","","","","","","","","","","","","","","","",""
"","S1","","html-keyboard-response","324","439543","0.0-1.0-434.0","0","0","22946","","null","","","null","48","","","","","","","","","","","","","","","",""
"","ISI","","html-keyboard-response","325","440551","0.0-1.0-435.0","0","0","22946","","null","","","null","48","NaN","","","","","","","","","","","","","","",""
"","S2","","html-keyboard-response","326","440807","0.0-1.0-436.0","0","0","22946","","null","","","null","48","","NaN","","","","","","","","","","","","","",""
"","response","","html-keyboard-response","327","442040","0.0-1.0-437.0-0.0","0","0","22946","","1228","","","75","48","","","2","48","training","adjacent","ED","5","4","L.jpg","Q.jpg","0","0","1","",""
"","feedback","","html-keyboard-response","328","443047","0.0-1.0-438.0-0.0","0","0","22946","","null","","","null","48","","","","","","","","","","","","","","","",""
"","ITI","","html-keyboard-response","329","444055","0.0-1.0-441.0","0","0","22946","","null","","","null","48","","","","","","","","","","","","","","","NaN",""
"","S1","","html-keyboard-response","330","444311","0.0-1.0-443.0","0","0","22946","","null","","","null","49","","","","","","","","","","","","","","","",""
"","ISI","","html-keyboard-response","331","445319","0.0-1.0-444.0","0","0","22946","","null","","","null","49","NaN","","","","","","","","","","","","","","",""
"","S2","","html-keyboard-response","332","445575","0.0-1.0-445.0","0","0","22946","","null","","","null","49","","NaN","","","","","","","","","","","","","",""
"","response","","html-keyboard-response","333","447088","0.0-1.0-446.0-0.0","0","0","22946","","1508","","","68","49","","","2","49","training","adjacent","GF","7","6","M.jpg","R.jpg","1","0","0","",""
"","feedback","","html-keyboard-response","334","448095","0.0-1.0-447.0-0.0","0","0","22946","","null","","","null","49","","","","","","","","","","","","","","","",""
"","time_out","","html-keyboard-response","335","450104","0.0-1.0-449.0-0.0","0","0","22946","","null","","","null","49","","","","","","","","","","","","","","","",""
"","ITI","","html-keyboard-response","336","451111","0.0-1.0-450.0","0","0","22946","","null","","","null","49","","","","","","","","","","","","","","","NaN",""
"","S1","","html-keyboard-response","337","451367","0.0-1.0-452.0","0","0","22946","","null","","","null","50","","","","","","","","","","","","","","","",""
"","ISI","","html-keyboard-response","338","452375","0.0-1.0-453.0","0","0","22946","","null","","","null","50","NaN","","","","","","","","","","","","","","",""
"","S2","","html-keyboard-response","339","452632","0.0-1.0-454.0","0","0","22946","","null","","","null","50","","NaN","","","","","","","","","","","","","",""
"","response","","html-keyboard-response","340","453157","0.0-1.0-455.0-0.0","0","0","22946","","521","","","75","50","","","2","50","training","adjacent","ED","5","4","L.jpg","Q.jpg","0","0","1","",""
"","feedback","","html-keyboard-response","341","454168","0.0-1.0-456.0-0.0","0","0","22946","","null","","","null","50","","","","","","","","","","","","","","","",""
"","ITI","","html-keyboard-response","342","455175","0.0-1.0-459.0","0","0","22946","","null","","","null","50","","","","","","","","","","","","","","","NaN",""
"","S1","","html-keyboard-response","343","455431","0.0-1.0-461.0","0","0","22946","","null","","","null","51","","","","","","","","","","","","","","","",""
"","ISI","","html-keyboard-response","344","456439","0.0-1.0-462.0","0","0","22946","","null","","","null","51","NaN","","","","","","","","","","","","","","",""
"","S2","","html-keyboard-response","345","456696","0.0-1.0-463.0","0","0","22946","","null","","","null","51","","NaN","","","","","","","","","","","","","",""
"","response","","html-keyboard-response","346","456980","0.0-1.0-464.0-0.0","0","0","22946","","280","","","68","51","","","2","51","training","adjacent","DC","4","3","Q.jpg","P.jpg","1","0","0","",""
"","feedback","","html-keyboard-response","347","457992","0.0-1.0-465.0-0.0","0","0","22946","","null","","","null","51","","","","","","","","","","","","","","","",""
"","time_out","","html-keyboard-response","348","459999","0.0-1.0-467.0-0.0","0","0","22946","","null","","","null","51","","","","","","","","","","","","","","","",""
"","ITI","","html-keyboard-response","349","461007","0.0-1.0-468.0","0","0","22946","","null","","","null","51","","","","","","","","","","","","","","","NaN",""
"","S1","","html-keyboard-response","350","461263","0.0-1.0-470.0","0","0","22946","","null","","","null","52","","","","","","","","","","","","","","","",""
"","ISI","","html-keyboard-response","351","462271","0.0-1.0-471.0","0","0","22946","","null","","","null","52","NaN","","","","","","","","","","","","","","",""
"","S2","","html-keyboard-response","352","462527","0.0-1.0-472.0","0","0","22946","","null","","","null","52","","NaN","","","","","","","","","","","","","",""
"","response","","html-keyboard-response","353","463413","0.0-1.0-473.0-0.0","0","0","22946","","881","","","68","52","","","2","52","training","adjacent","ED","5","4","L.jpg","Q.jpg","1","0","0","",""
"","feedback","","html-keyboard-response","354","464424","0.0-1.0-474.0-0.0","0","0","22946","","null","","","null","52","","","","","","","","","","","","","","","",""
"","time_out","","html-keyboard-response","355","466431","0.0-1.0-476.0-0.0","0","0","22946","","null","","","null","52","","","","","","","","","","","","","","","",""
"","ITI","","html-keyboard-response","356","467439","0.0-1.0-477.0","0","0","22946","","null","","","null","52","","","","","","","","","","","","","","","NaN",""
"","S1","","html-keyboard-response","357","467695","0.0-1.0-479.0","0","0","22946","","null","","","null","53","","","","","","","","","","","","","","","",""
"","ISI","","html-keyboard-response","358","468703","0.0-1.0-480.0","0","0","22946","","null","","","null","53","NaN","","","","","","","","","","","","","","",""
"","S2","","html-keyboard-response","359","468959","0.0-1.0-481.0","0","0","22946","","null","","","null","53","","NaN","","","","","","","","","","","","","",""
"","response","","html-keyboard-response","360","469384","0.0-1.0-482.0-0.0","0","0","22946","","420","","","68","53","","","2","53","training","adjacent","AB","1","2","N.jpg","O.jpg","1","1","1","",""
"","feedback","","html-keyboard-response","361","470392","0.0-1.0-483.0-0.0","0","0","22946","","null","","","null","53","","","","","","","","","","","","","","","",""
"","ITI","","html-keyboard-response","362","471399","0.0-1.0-486.0","0","0","22946","","null","","","null","53","","","","","","","","","","","","","","","NaN",""
"","S1","","html-keyboard-response","363","471655","0.0-1.0-488.0","0","0","22946","","null","","","null","54","","","","","","","","","","","","","","","",""
"","ISI","","html-keyboard-response","364","472663","0.0-1.0-489.0","0","0","22946","","null","","","null","54","NaN","","","","","","","","","","","","","","",""
"","S2","","html-keyboard-response","365","472919","0.0-1.0-490.0","0","0","22946","","null","","","null","54","","NaN","","","","","","","","","","","","","",""
"","response","","html-keyboard-response","366","473904","0.0-1.0-491.0-0.0","0","0","22946","","980","","","68","54","","","2","54","training","adjacent","FG","6","7","R.jpg","M.jpg","1","1","1","",""
"","feedback","","html-keyboard-response","367","474911","0.0-1.0-492.0-0.0","0","0","22946","","null","","","null","54","","","","","","","","","","","","","","","",""
"","ITI","","html-keyboard-response","368","475919","0.0-1.0-495.0","0","0","22946","","null","","","null","54","","","","","","","","","","","","","","","NaN",""
"","S1","","html-keyboard-response","369","476175","0.0-1.0-497.0","0","0","22946","","null","","","null","55","","","","","","","","","","","","","","","",""
"","ISI","","html-keyboard-response","370","477184","0.0-1.0-498.0","0","0","22946","","null","","","null","55","NaN","","","","","","","","","","","","","","",""
"","S2","","html-keyboard-response","371","477447","0.0-1.0-499.0","0","0","22946","","null","","","null","55","","NaN","","","","","","","","","","","","","",""
"","response","","html-keyboard-response","372","477857","0.0-1.0-500.0-0.0","0","0","22946","","405","","","75","55","","","2","55","training","adjacent","BC","2","3","O.jpg","P.jpg","0","1","0","",""
"","feedback","","html-keyboard-response","373","478863","0.0-1.0-501.0-0.0","0","0","22946","","null","","","null","55","","","","","","","","","","","","","","","",""
"","time_out","","html-keyboard-response","374","480872","0.0-1.0-503.0-0.0","0","0","22946","","null","","","null","55","","","","","","","","","","","","","","","",""
"","ITI","","html-keyboard-response","375","481879","0.0-1.0-504.0","0","0","22946","","null","","","null","55","","","","","","","","","","","","","","","NaN",""
"","S1","","html-keyboard-response","376","482136","0.0-1.0-506.0","0","0","22946","","null","","","null","56","","","","","","","","","","","","","","","",""
"","ISI","","html-keyboard-response","377","483143","0.0-1.0-507.0","0","0","22946","","null","","","null","56","NaN","","","","","","","","","","","","","","",""
"","S2","","html-keyboard-response","378","483399","0.0-1.0-508.0","0","0","22946","","null","","","null","56","","NaN","","","","","","","","","","","","","",""
"","response","","html-keyboard-response","379","483770","0.0-1.0-509.0-0.0","0","0","22946","","366","","","75","56","","","2","56","training","adjacent","FE","6","5","R.jpg","L.jpg","0","0","1","",""
"","feedback","","html-keyboard-response","380","484783","0.0-1.0-510.0-0.0","0","0","22946","","null","","","null","56","","","","","","","","","","","","","","","",""
"","ITI","","html-keyboard-response","381","485791","0.0-1.0-513.0","0","0","22946","","null","","","null","56","","","","","","","","","","","","","","","NaN",""
"","S1","","html-keyboard-response","382","486048","0.0-1.0-515.0","0","0","22946","","null","","","null","57","","","","","","","","","","","","","","","",""
"","ISI","","html-keyboard-response","383","487055","0.0-1.0-516.0","0","0","22946","","null","","","null","57","NaN","","","","","","","","","","","","","","",""
"","S2","","html-keyboard-response","384","487311","0.0-1.0-517.0","0","0","22946","","null","","","null","57","","NaN","","","","","","","","","","","","","",""
"","response","","html-keyboard-response","385","488429","0.0-1.0-518.0-0.0","0","0","22946","","1113","","","68","57","","","2","57","training","adjacent","FG","6","7","R.jpg","M.jpg","1","1","1","",""
"","feedback","","html-keyboard-response","386","489439","0.0-1.0-519.0-0.0","0","0","22946","","null","","","null","57","","","","","","","","","","","","","","","",""
"","ITI","","html-keyboard-response","387","490448","0.0-1.0-522.0","0","0","22946","","null","","","null","57","","","","","","","","","","","","","","","NaN",""
"","S1","","html-keyboard-response","388","490711","0.0-1.0-524.0","0","0","22946","","null","","","null","58","","","","","","","","","","","","","","","",""
"","ISI","","html-keyboard-response","389","491719","0.0-1.0-525.0","0","0","22946","","null","","","null","58","NaN","","","","","","","","","","","","","","",""
"","S2","","html-keyboard-response","390","491976","0.0-1.0-526.0","0","0","22946","","null","","","null","58","","NaN","","","","","","","","","","","","","",""
"","response","","html-keyboard-response","391","492438","0.0-1.0-527.0-0.0","0","0","22946","","456","","","75","58","","","2","58","training","adjacent","CB","3","2","P.jpg","O.jpg","0","0","1","",""
"","feedback","","html-keyboard-response","392","493448","0.0-1.0-528.0-0.0","0","0","22946","","null","","","null","58","","","","","","","","","","","","","","","",""
"","ITI","","html-keyboard-response","393","494456","0.0-1.0-531.0","0","0","22946","","null","","","null","58","","","","","","","","","","","","","","","NaN",""
"","S1","","html-keyboard-response","394","494711","0.0-1.0-533.0","0","0","22946","","null","","","null","59","","","","","","","","","","","","","","","",""
"","ISI","","html-keyboard-response","395","495719","0.0-1.0-534.0","0","0","22946","","null","","","null","59","NaN","","","","","","","","","","","","","","",""
"","S2","","html-keyboard-response","396","495975","0.0-1.0-535.0","0","0","22946","","null","","","null","59","","NaN","","","","","","","","","","","","","",""
"","response","","html-keyboard-response","397","497046","0.0-1.0-536.0-0.0","0","0","22946","","1066","","","68","59","","","2","59","training","adjacent","CB","3","2","P.jpg","O.jpg","1","0","0","",""
"","feedback","","html-keyboard-response","398","498055","0.0-1.0-537.0-0.0","0","0","22946","","null","","","null","59","","","","","","","","","","","","","","","",""
"","time_out","","html-keyboard-response","399","500066","0.0-1.0-539.0-0.0","0","0","22946","","null","","","null","59","","","","","","","","","","","","","","","",""
"","ITI","","html-keyboard-response","400","501072","0.0-1.0-540.0","0","0","22946","","null","","","null","59","","","","","","","","","","","","","","","NaN",""
"","S1","","html-keyboard-response","401","501327","0.0-1.0-542.0","0","0","22946","","null","","","null","60","","","","","","","","","","","","","","","",""
"","ISI","","html-keyboard-response","402","502335","0.0-1.0-543.0","0","0","22946","","null","","","null","60","NaN","","","","","","","","","","","","","","",""
"","S2","","html-keyboard-response","403","502591","0.0-1.0-544.0","0","0","22946","","null","","","null","60","","NaN","","","","","","","","","","","","","",""
"","response","","html-keyboard-response","404","502804","0.0-1.0-545.0-0.0","0","0","22946","","209","","","68","60","","","2","60","training","adjacent","AB","1","2","N.jpg","O.jpg","1","1","1","",""
"","feedback","","html-keyboard-response","405","503815","0.0-1.0-546.0-0.0","0","0","22946","","null","","","null","60","","","","","","","","","","","","","","","",""
"","ITI","","html-keyboard-response","406","504823","0.0-1.0-549.0","0","0","22946","","null","","","null","60","","","","","","","","","","","","","","","NaN",""
"","S1","","html-keyboard-response","407","505081","0.0-1.0-551.0","0","0","22946","","null","","","null","61","","","","","","","","","","","","","","","",""
"","ISI","","html-keyboard-response","408","506087","0.0-1.0-552.0","0","0","22946","","null","","","null","61","NaN","","","","","","","","","","","","","","",""
"","S2","","html-keyboard-response","409","506346","0.0-1.0-553.0","0","0","22946","","null","","","null","61","","NaN","","","","","","","","","","","","","",""
"","response","","html-keyboard-response","410","507237","0.0-1.0-554.0-0.0","0","0","22946","","886","","","75","61","","","2","61","training","adjacent","CB","3","2","P.jpg","O.jpg","0","0","1","",""
"","feedback","","html-keyboard-response","411","508247","0.0-1.0-555.0-0.0","0","0","22946","","null","","","null","61","","","","","","","","","","","","","","","",""
"","ITI","","html-keyboard-response","412","509255","0.0-1.0-558.0","0","0","22946","","null","","","null","61","","","","","","","","","","","","","","","NaN",""
"","S1","","html-keyboard-response","413","509511","0.0-1.0-560.0","0","0","22946","","null","","","null","62","","","","","","","","","","","","","","","",""
"","ISI","","html-keyboard-response","414","510519","0.0-1.0-561.0","0","0","22946","","null","","","null","62","NaN","","","","","","","","","","","","","","",""
"","S2","","html-keyboard-response","415","510775","0.0-1.0-562.0","0","0","22946","","null","","","null","62","","NaN","","","","","","","","","","","","","",""
"","response","","html-keyboard-response","416","511121","0.0-1.0-563.0-0.0","0","0","22946","","342","","","68","62","","","2","62","training","adjacent","EF","5","6","L.jpg","R.jpg","1","1","1","",""
"","feedback","","html-keyboard-response","417","512127","0.0-1.0-564.0-0.0","0","0","22946","","null","","","null","62","","","","","","","","","","","","","","","",""
"","ITI","","html-keyboard-response","418","513135","0.0-1.0-567.0","0","0","22946","","null","","","null","62","","","","","","","","","","","","","","","NaN",""
"","S1","","html-keyboard-response","419","513391","0.0-1.0-569.0","0","0","22946","","null","","","null","63","","","","","","","","","","","","","","","",""
"","ISI","","html-keyboard-response","420","514399","0.0-1.0-570.0","0","0","22946","","null","","","null","63","NaN","","","","","","","","","","","","","","",""
"","S2","","html-keyboard-response","421","514655","0.0-1.0-571.0","0","0","22946","","null","","","null","63","","NaN","","","","","","","","","","","","","",""
"","response","","html-keyboard-response","422","514937","0.0-1.0-572.0-0.0","0","0","22946","","275","","","75","63","","","2","63","training","adjacent","AB","1","2","N.jpg","O.jpg","0","1","0","",""
"","feedback","","html-keyboard-response","423","515943","0.0-1.0-573.0-0.0","0","0","22946","","null","","","null","63","","","","","","","","","","","","","","","",""
"","time_out","","html-keyboard-response","424","517951","0.0-1.0-575.0-0.0","0","0","22946","","null","","","null","63","","","","","","","","","","","","","","","",""
"","ITI","","html-keyboard-response","425","518959","0.0-1.0-576.0","0","0","22946","","null","","","null","63","","","","","","","","","","","","","","","NaN",""
"","S1","","html-keyboard-response","426","519215","0.0-1.0-578.0","0","0","22946","","null","","","null","64","","","","","","","","","","","","","","","",""
"","ISI","","html-keyboard-response","427","520224","0.0-1.0-579.0","0","0","22946","","null","","","null","64","NaN","","","","","","","","","","","","","","",""
"","S2","","html-keyboard-response","428","520488","0.0-1.0-580.0","0","0","22946","","null","","","null","64","","NaN","","","","","","","","","","","","","",""
"","response","","html-keyboard-response","429","521171","0.0-1.0-581.0-0.0","0","0","22946","","679","","","68","64","","","2","64","training","adjacent","CD","3","4","P.jpg","Q.jpg","1","1","1","",""
"","feedback","","html-keyboard-response","430","522184","0.0-1.0-582.0-0.0","0","0","22946","","null","","","null","64","","","","","","","","","","","","","","","",""
"","ITI","","html-keyboard-response","431","523192","0.0-1.0-585.0","0","0","22946","","null","","","null","64","","","","","","","","","","","","","","","NaN",""
"","S1","","html-keyboard-response","432","523448","0.0-1.0-587.0","0","0","22946","","null","","","null","65","","","","","","","","","","","","","","","",""
"","ISI","","html-keyboard-response","433","524455","0.0-1.0-588.0","0","0","22946","","null","","","null","65","NaN","","","","","","","","","","","","","","",""
"","S2","","html-keyboard-response","434","524711","0.0-1.0-589.0","0","0","22946","","null","","","null","65","","NaN","","","","","","","","","","","","","",""
"","response","","html-keyboard-response","435","524979","0.0-1.0-590.0-0.0","0","0","22946","","264","","","75","65","","","2","65","training","adjacent","GF","7","6","M.jpg","R.jpg","0","0","1","",""
"","feedback","","html-keyboard-response","436","525992","0.0-1.0-591.0-0.0","0","0","22946","","null","","","null","65","","","","","","","","","","","","","","","",""
"","ITI","","html-keyboard-response","437","526999","0.0-1.0-594.0","0","0","22946","","null","","","null","65","","","","","","","","","","","","","","","NaN",""
"","S1","","html-keyboard-response","438","527255","0.0-1.0-596.0","0","0","22946","","null","","","null","66","","","","","","","","","","","","","","","",""
"","ISI","","html-keyboard-response","439","528263","0.0-1.0-597.0","0","0","22946","","null","","","null","66","NaN","","","","","","","","","","","","","","",""
"","S2","","html-keyboard-response","440","528520","0.0-1.0-598.0","0","0","22946","","null","","","null","66","","NaN","","","","","","","","","","","","","",""
"","response","","html-keyboard-response","441","528986","0.0-1.0-599.0-0.0","0","0","22946","","461","","","68","66","","","2","66","training","adjacent","ED","5","4","L.jpg","Q.jpg","1","0","0","",""
"","feedback","","html-keyboard-response","442","529999","0.0-1.0-600.0-0.0","0","0","22946","","null","","","null","66","","","","","","","","","","","","","","","",""
"","time_out","","html-keyboard-response","443","532007","0.0-1.0-602.0-0.0","0","0","22946","","null","","","null","66","","","","","","","","","","","","","","","",""
"","ITI","","html-keyboard-response","444","533016","0.0-1.0-603.0","0","0","22946","","null","","","null","66","","","","","","","","","","","","","","","NaN",""
"","S1","","html-keyboard-response","445","533271","0.0-1.0-605.0","0","0","22946","","null","","","null","67","","","","","","","","","","","","","","","",""
"","ISI","","html-keyboard-response","446","534279","0.0-1.0-606.0","0","0","22946","","null","","","null","67","NaN","","","","","","","","","","","","","","",""
"","S2","","html-keyboard-response","447","534535","0.0-1.0-607.0","0","0","22946","","null","","","null","67","","NaN","","","","","","","","","","","","","",""
"","response","","html-keyboard-response","448","534765","0.0-1.0-608.0-0.0","0","0","22946","","225","","","75","67","","","2","67","training","adjacent","EF","5","6","L.jpg","R.jpg","0","1","0","",""
"","feedback","","html-keyboard-response","449","535775","0.0-1.0-609.0-0.0","0","0","22946","","null","","","null","67","","","","","","","","","","","","","","","",""
"","time_out","","html-keyboard-response","450","537784","0.0-1.0-611.0-0.0","0","0","22946","","null","","","null","67","","","","","","","","","","","","","","","",""
"","ITI","","html-keyboard-response","451","538791","0.0-1.0-612.0","0","0","22946","","null","","","null","67","","","","","","","","","","","","","","","NaN",""
"","S1","","html-keyboard-response","452","539047","0.0-1.0-614.0","0","0","22946","","null","","","null","68","","","","","","","","","","","","","","","",""
"","ISI","","html-keyboard-response","453","540055","0.0-1.0-615.0","0","0","22946","","null","","","null","68","NaN","","","","","","","","","","","","","","",""
"","S2","","html-keyboard-response","454","540311","0.0-1.0-616.0","0","0","22946","","null","","","null","68","","NaN","","","","","","","","","","","","","",""
"","response","","html-keyboard-response","455","540392","0.0-1.0-617.0-0.0","0","0","22946","","76","","","68","68","","","2","68","training","adjacent","EF","5","6","L.jpg","R.jpg","1","1","1","",""
"","feedback","","html-keyboard-response","456","541400","0.0-1.0-618.0-0.0","0","0","22946","","null","","","null","68","","","","","","","","","","","","","","","",""
"","ITI","","html-keyboard-response","457","542407","0.0-1.0-621.0","0","0","22946","","null","","","null","68","","","","","","","","","","","","","","","NaN",""
"","S1","","html-keyboard-response","458","542663","0.0-1.0-623.0","0","0","22946","","null","","","null","69","","","","","","","","","","","","","","","",""
"","ISI","","html-keyboard-response","459","543672","0.0-1.0-624.0","0","0","22946","","null","","","null","69","NaN","","","","","","","","","","","","","","",""
"","S2","","html-keyboard-response","460","543928","0.0-1.0-625.0","0","0","22946","","null","","","null","69","","NaN","","","","","","","","","","","","","",""
"","response","","html-keyboard-response","461","544503","0.0-1.0-626.0-0.0","0","0","22946","","570","","","68","69","","","2","69","training","adjacent","FE","6","5","R.jpg","L.jpg","1","0","0","",""
"","feedback","","html-keyboard-response","462","545511","0.0-1.0-627.0-0.0","0","0","22946","","null","","","null","69","","","","","","","","","","","","","","","",""
"","time_out","","html-keyboard-response","463","547519","0.0-1.0-629.0-0.0","0","0","22946","","null","","","null","69","","","","","","","","","","","","","","","",""
"","ITI","","html-keyboard-response","464","548527","0.0-1.0-630.0","0","0","22946","","null","","","null","69","","","","","","","","","","","","","","","NaN",""
"","S1","","html-keyboard-response","465","548783","0.0-1.0-632.0","0","0","22946","","null","","","null","70","","","","","","","","","","","","","","","",""
"","ISI","","html-keyboard-response","466","549801","0.0-1.0-633.0","0","0","22946","","null","","","null","70","NaN","","","","","","","","","","","","","","",""
"","S2","","html-keyboard-response","467","550071","0.0-1.0-634.0","0","0","22946","","null","","","null","70","","NaN","","","","","","","","","","","","","",""
"","response","","html-keyboard-response","468","550522","0.0-1.0-635.0-0.0","0","0","22946","","445","","","68","70","","","2","70","training","adjacent","DE","4","5","Q.jpg","L.jpg","1","1","1","",""
"","feedback","","html-keyboard-response","469","551537","0.0-1.0-636.0-0.0","0","0","22946","","null","","","null","70","","","","","","","","","","","","","","","",""
"","ITI","","html-keyboard-response","470","552543","0.0-1.0-639.0","0","0","22946","","null","","","null","70","","","","","","","","","","","","","","","NaN",""
"","S1","","html-keyboard-response","471","552799","0.0-1.0-641.0","0","0","22946","","null","","","null","71","","","","","","","","","","","","","","","",""
"","ISI","","html-keyboard-response","472","553807","0.0-1.0-642.0","0","0","22946","","null","","","null","71","NaN","","","","","","","","","","","","","","",""
"","S2","","html-keyboard-response","473","554063","0.0-1.0-643.0","0","0","22946","","null","","","null","71","","NaN","","","","","","","","","","","","","",""
"","response","","html-keyboard-response","474","554541","0.0-1.0-644.0-0.0","0","0","22946","","471","","","75","71","","","2","71","training","adjacent","CD","3","4","P.jpg","Q.jpg","0","1","0","",""
"","feedback","","html-keyboard-response","475","555551","0.0-1.0-645.0-0.0","0","0","22946","","null","","","null","71","","","","","","","","","","","","","","","",""
"","time_out","","html-keyboard-response","476","557559","0.0-1.0-647.0-0.0","0","0","22946","","null","","","null","71","","","","","","","","","","","","","","","",""
"","ITI","","html-keyboard-response","477","558567","0.0-1.0-648.0","0","0","22946","","null","","","null","71","","","","","","","","","","","","","","","NaN",""
"","S1","","html-keyboard-response","478","558823","0.0-1.0-650.0","0","0","22946","","null","","","null","72","","","","","","","","","","","","","","","",""
"","ISI","","html-keyboard-response","479","559831","0.0-1.0-651.0","0","0","22946","","null","","","null","72","NaN","","","","","","","","","","","","","","",""
"","S2","","html-keyboard-response","480","560087","0.0-1.0-652.0","0","0","22946","","null","","","null","72","","NaN","","","","","","","","","","","","","",""
"","response","","html-keyboard-response","481","560689","0.0-1.0-653.0-0.0","0","0","22946","","598","","","68","72","","","2","72","training","adjacent","DE","4","5","Q.jpg","L.jpg","1","1","1","",""
"","feedback","","html-keyboard-response","482","561695","0.0-1.0-654.0-0.0","0","0","22946","","null","","","null","72","","","","","","","","","","","","","","","",""
"","ITI","","html-keyboard-response","483","562702","0.0-1.0-657.0","0","0","22946","","null","","","null","72","","","","","","","","","","","","","","","NaN",""
"","S1","","html-keyboard-response","484","562959","0.0-1.0-659.0","0","0","22946","","null","","","null","73","","","","","","","","","","","","","","","",""
"","ISI","","html-keyboard-response","485","563967","0.0-1.0-660.0","0","0","22946","","null","","","null","73","NaN","","","","","","","","","","","","","","",""
"","S2","","html-keyboard-response","486","564223","0.0-1.0-661.0","0","0","22946","","null","","","null","73","","NaN","","","","","","","","","","","","","",""
"","response","","html-keyboard-response","487","564842","0.0-1.0-662.0-0.0","0","0","22946","","614","","","75","73","","","2","73","training","adjacent","DC","4","3","Q.jpg","P.jpg","0","0","1","",""
"","feedback","","html-keyboard-response","488","565855","0.0-1.0-663.0-0.0","0","0","22946","","null","","","null","73","","","","","","","","","","","","","","","",""
"","ITI","","html-keyboard-response","489","566863","0.0-1.0-666.0","0","0","22946","","null","","","null","73","","","","","","","","","","","","","","","NaN",""
"","S1","","html-keyboard-response","490","567119","0.0-1.0-668.0","0","0","22946","","null","","","null","74","","","","","","","","","","","","","","","",""
"","ISI","","html-keyboard-response","491","568128","0.0-1.0-669.0","0","0","22946","","null","","","null","74","NaN","","","","","","","","","","","","","","",""
"","S2","","html-keyboard-response","492","568384","0.0-1.0-670.0","0","0","22946","","null","","","null","74","","NaN","","","","","","","","","","","","","",""
"","response","","html-keyboard-response","493","568767","0.0-1.0-671.0-0.0","0","0","22946","","378","","","68","74","","","2","74","training","adjacent","EF","5","6","L.jpg","R.jpg","1","1","1","",""
"","feedback","","html-keyboard-response","494","569775","0.0-1.0-672.0-0.0","0","0","22946","","null","","","null","74","","","","","","","","","","","","","","","",""
"","ITI","","html-keyboard-response","495","570783","0.0-1.0-675.0","0","0","22946","","null","","","null","74","","","","","","","","","","","","","","","NaN",""
"","S1","","html-keyboard-response","496","571040","0.0-1.0-677.0","0","0","22946","","null","","","null","75","","","","","","","","","","","","","","","",""
"","ISI","","html-keyboard-response","497","572047","0.0-1.0-678.0","0","0","22946","","null","","","null","75","NaN","","","","","","","","","","","","","","",""
"","S2","","html-keyboard-response","498","572311","0.0-1.0-679.0","0","0","22946","","null","","","null","75","","NaN","","","","","","","","","","","","","",""
"","response","","html-keyboard-response","499","572807","0.0-1.0-680.0-0.0","0","0","22946","","492","","","75","75","","","2","75","training","adjacent","DE","4","5","Q.jpg","L.jpg","0","1","0","",""
"","feedback","","html-keyboard-response","500","573815","0.0-1.0-681.0-0.0","0","0","22946","","null","","","null","75","","","","","","","","","","","","","","","",""
"","time_out","","html-keyboard-response","501","575823","0.0-1.0-683.0-0.0","0","0","22946","","null","","","null","75","","","","","","","","","","","","","","","",""
"","ITI","","html-keyboard-response","502","576833","0.0-1.0-684.0","0","0","22946","","null","","","null","75","","","","","","","","","","","","","","","NaN",""
"","S1","","html-keyboard-response","503","577095","0.0-1.0-686.0","0","0","22946","","null","","","null","76","","","","","","","","","","","","","","","",""
"","ISI","","html-keyboard-response","504","578103","0.0-1.0-687.0","0","0","22946","","null","","","null","76","NaN","","","","","","","","","","","","","","",""
"","S2","","html-keyboard-response","505","578359","0.0-1.0-688.0","0","0","22946","","null","","","null","76","","NaN","","","","","","","","","","","","","",""
"","response","","html-keyboard-response","506","578733","0.0-1.0-689.0-0.0","0","0","22946","","369","","","68","76","","","2","76","training","adjacent","DE","4","5","Q.jpg","L.jpg","1","1","1","",""
"","feedback","","html-keyboard-response","507","579743","0.0-1.0-690.0-0.0","0","0","22946","","null","","","null","76","","","","","","","","","","","","","","","",""
"","ITI","","html-keyboard-response","508","580751","0.0-1.0-693.0","0","0","22946","","null","","","null","76","","","","","","","","","","","","","","","NaN",""
"","S1","","html-keyboard-response","509","581007","0.0-1.0-695.0","0","0","22946","","null","","","null","77","","","","","","","","","","","","","","","",""
"","ISI","","html-keyboard-response","510","582015","0.0-1.0-696.0","0","0","22946","","null","","","null","77","NaN","","","","","","","","","","","","","","",""
"","S2","","html-keyboard-response","511","582271","0.0-1.0-697.0","0","0","22946","","null","","","null","77","","NaN","","","","","","","","","","","","","",""
"","response","","html-keyboard-response","512","582698","0.0-1.0-698.0-0.0","0","0","22946","","422","","","75","77","","","2","77","training","adjacent","BC","2","3","O.jpg","P.jpg","0","1","0","",""
"","feedback","","html-keyboard-response","513","583711","0.0-1.0-699.0-0.0","0","0","22946","","null","","","null","77","","","","","","","","","","","","","","","",""
"","time_out","","html-keyboard-response","514","585719","0.0-1.0-701.0-0.0","0","0","22946","","null","","","null","77","","","","","","","","","","","","","","","",""
"","ITI","","html-keyboard-response","515","586727","0.0-1.0-702.0","0","0","22946","","null","","","null","77","","","","","","","","","","","","","","","NaN",""
"","S1","","html-keyboard-response","516","586982","0.0-1.0-704.0","0","0","22946","","null","","","null","78","","","","","","","","","","","","","","","",""
"","ISI","","html-keyboard-response","517","587992","0.0-1.0-705.0","0","0","22946","","null","","","null","78","NaN","","","","","","","","","","","","","","",""
"","S2","","html-keyboard-response","518","588255","0.0-1.0-706.0","0","0","22946","","null","","","null","78","","NaN","","","","","","","","","","","","","",""
"","response","","html-keyboard-response","519","588655","0.0-1.0-707.0-0.0","0","0","22946","","395","","","68","78","","","2","78","training","adjacent","FG","6","7","R.jpg","M.jpg","1","1","1","",""
"","feedback","","html-keyboard-response","520","589663","0.0-1.0-708.0-0.0","0","0","22946","","null","","","null","78","","","","","","","","","","","","","","","",""
"","ITI","","html-keyboard-response","521","590671","0.0-1.0-711.0","0","0","22946","","null","","","null","78","","","","","","","","","","","","","","","NaN",""
"","S1","","html-keyboard-response","522","590935","0.0-1.0-713.0","0","0","22946","","null","","","null","79","","","","","","","","","","","","","","","",""
"","ISI","","html-keyboard-response","523","591943","0.0-1.0-714.0","0","0","22946","","null","","","null","79","NaN","","","","","","","","","","","","","","",""
"","S2","","html-keyboard-response","524","592199","0.0-1.0-715.0","0","0","22946","","null","","","null","79","","NaN","","","","","","","","","","","","","",""
"","response","","html-keyboard-response","525","593141","0.0-1.0-716.0-0.0","0","0","22946","","937","","","75","79","","","2","79","training","adjacent","CB","3","2","P.jpg","O.jpg","0","0","1","",""
"","feedback","","html-keyboard-response","526","594151","0.0-1.0-717.0-0.0","0","0","22946","","null","","","null","79","","","","","","","","","","","","","","","",""
"","ITI","","html-keyboard-response","527","595159","0.0-1.0-720.0","0","0","22946","","null","","","null","79","","","","","","","","","","","","","","","NaN",""
"","S1","","html-keyboard-response","528","595423","0.0-1.0-722.0","0","0","22946","","null","","","null","80","","","","","","","","","","","","","","","",""
"","ISI","","html-keyboard-response","529","596431","0.0-1.0-723.0","0","0","22946","","null","","","null","80","NaN","","","","","","","","","","","","","","",""
"","S2","","html-keyboard-response","530","596687","0.0-1.0-724.0","0","0","22946","","null","","","null","80","","NaN","","","","","","","","","","","","","",""
"","response","","html-keyboard-response","531","597257","0.0-1.0-725.0-0.0","0","0","22946","","565","","","75","80","","","2","80","training","adjacent","GF","7","6","M.jpg","R.jpg","0","0","1","",""
"","feedback","","html-keyboard-response","532","598264","0.0-1.0-726.0-0.0","0","0","22946","","null","","","null","80","","","","","","","","","","","","","","","",""
"","ITI","","html-keyboard-response","533","599271","0.0-1.0-729.0","0","0","22946","","null","","","null","80","","","","","","","","","","","","","","","NaN",""
"","S1","","html-keyboard-response","534","599527","0.0-1.0-731.0","0","0","22946","","null","","","null","81","","","","","","","","","","","","","","","",""
"","ISI","","html-keyboard-response","535","600536","0.0-1.0-732.0","0","0","22946","","null","","","null","81","NaN","","","","","","","","","","","","","","",""
"","S2","","html-keyboard-response","536","600791","0.0-1.0-733.0","0","0","22946","","null","","","null","81","","NaN","","","","","","","","","","","","","",""
"","response","","html-keyboard-response","537","601104","0.0-1.0-734.0-0.0","0","0","22946","","309","","","68","81","","","2","81","training","adjacent","BC","2","3","O.jpg","P.jpg","1","1","1","",""
"","feedback","","html-keyboard-response","538","602111","0.0-1.0-735.0-0.0","0","0","22946","","null","","","null","81","","","","","","","","","","","","","","","",""
"","ITI","","html-keyboard-response","539","603119","0.0-1.0-738.0","0","0","22946","","null","","","null","81","","","","","","","","","","","","","","","NaN",""
"","S1","","html-keyboard-response","540","603375","0.0-1.0-740.0","0","0","22946","","null","","","null","82","","","","","","","","","","","","","","","",""
"","ISI","","html-keyboard-response","541","604383","0.0-1.0-741.0","0","0","22946","","null","","","null","82","NaN","","","","","","","","","","","","","","",""
"","S2","","html-keyboard-response","542","604639","0.0-1.0-742.0","0","0","22946","","null","","","null","82","","NaN","","","","","","","","","","","","","",""
"","response","","html-keyboard-response","543","605047","0.0-1.0-743.0-0.0","0","0","22946","","403","","","75","82","","","2","82","training","adjacent","FG","6","7","R.jpg","M.jpg","0","1","0","",""
"","feedback","","html-keyboard-response","544","606056","0.0-1.0-744.0-0.0","0","0","22946","","null","","","null","82","","","","","","","","","","","","","","","",""
"","time_out","","html-keyboard-response","545","608063","0.0-1.0-746.0-0.0","0","0","22946","","null","","","null","82","","","","","","","","","","","","","","","",""
"","ITI","","html-keyboard-response","546","609072","0.0-1.0-747.0","0","0","22946","","null","","","null","82","","","","","","","","","","","","","","","NaN",""
"","S1","","html-keyboard-response","547","609335","0.0-1.0-749.0","0","0","22946","","null","","","null","83","","","","","","","","","","","","","","","",""
"","ISI","","html-keyboard-response","548","610343","0.0-1.0-750.0","0","0","22946","","null","","","null","83","NaN","","","","","","","","","","","","","","",""
"","S2","","html-keyboard-response","549","610599","0.0-1.0-751.0","0","0","22946","","null","","","null","83","","NaN","","","","","","","","","","","","","",""
"","response","","html-keyboard-response","550","610740","0.0-1.0-752.0-0.0","0","0","22946","","136","","","75","83","","","2","83","training","adjacent","AB","1","2","N.jpg","O.jpg","0","1","0","",""
"","feedback","","html-keyboard-response","551","611751","0.0-1.0-753.0-0.0","0","0","22946","","null","","","null","83","","","","","","","","","","","","","","","",""
"","time_out","","html-keyboard-response","552","613760","0.0-1.0-755.0-0.0","0","0","22946","","null","","","null","83","","","","","","","","","","","","","","","",""
"","ITI","","html-keyboard-response","553","614767","0.0-1.0-756.0","0","0","22946","","null","","","null","83","","","","","","","","","","","","","","","NaN",""
"","S1","","html-keyboard-response","554","615024","0.0-1.0-758.0","0","0","22946","","null","","","null","84","","","","","","","","","","","","","","","",""
"","ISI","","html-keyboard-response","555","616031","0.0-1.0-759.0","0","0","22946","","null","","","null","84","NaN","","","","","","","","","","","","","","",""
"","S2","","html-keyboard-response","556","616287","0.0-1.0-760.0","0","0","22946","","null","","","null","84","","NaN","","","","","","","","","","","","","",""
"","response","","html-keyboard-response","557","616682","0.0-1.0-761.0-0.0","0","0","22946","","390","","","75","84","","","2","84","training","adjacent","CD","3","4","P.jpg","Q.jpg","0","1","0","",""
"","feedback","","html-keyboard-response","558","617695","0.0-1.0-762.0-0.0","0","0","22946","","null","","","null","84","","","","","","","","","","","","","","","",""
"","time_out","","html-keyboard-response","559","619703","0.0-1.0-764.0-0.0","0","0","22946","","null","","","null","84","","","","","","","","","","","","","","","",""
"","ITI","","html-keyboard-response","560","620712","0.0-1.0-765.0","0","0","22946","","null","","","null","84","","","","","","","","","","","","","","","NaN",""
"","S1","","html-keyboard-response","561","620975","0.0-1.0-767.0","0","0","22946","","null","","","null","85","","","","","","","","","","","","","","","",""
"","ISI","","html-keyboard-response","562","621983","0.0-1.0-768.0","0","0","22946","","null","","","null","85","NaN","","","","","","","","","","","","","","",""
"","S2","","html-keyboard-response","563","622239","0.0-1.0-769.0","0","0","22946","","null","","","null","85","","NaN","","","","","","","","","","","","","",""
"","response","","html-keyboard-response","564","622754","0.0-1.0-770.0-0.0","0","0","22946","","509","","","75","85","","","2","85","training","adjacent","FE","6","5","R.jpg","L.jpg","0","0","1","",""
"","feedback","","html-keyboard-response","565","623767","0.0-1.0-771.0-0.0","0","0","22946","","null","","","null","85","","","","","","","","","","","","","","","",""
"","ITI","","html-keyboard-response","566","624776","0.0-1.0-774.0","0","0","22946","","null","","","null","85","","","","","","","","","","","","","","","NaN",""
"","S1","","html-keyboard-response","567","625031","0.0-1.0-776.0","0","0","22946","","null","","","null","86","","","","","","","","","","","","","","","",""
"","ISI","","html-keyboard-response","568","626039","0.0-1.0-777.0","0","0","22946","","null","","","null","86","NaN","","","","","","","","","","","","","","",""
"","S2","","html-keyboard-response","569","626295","0.0-1.0-778.0","0","0","22946","","null","","","null","86","","NaN","","","","","","","","","","","","","",""
"","response","","html-keyboard-response","570","626750","0.0-1.0-779.0-0.0","0","0","22946","","450","","","68","86","","","2","86","training","adjacent","DC","4","3","Q.jpg","P.jpg","1","0","0","",""
"","feedback","","html-keyboard-response","571","627759","0.0-1.0-780.0-0.0","0","0","22946","","null","","","null","86","","","","","","","","","","","","","","","",""
"","time_out","","html-keyboard-response","572","629767","0.0-1.0-782.0-0.0","0","0","22946","","null","","","null","86","","","","","","","","","","","","","","","",""
"","ITI","","html-keyboard-response","573","630776","0.0-1.0-783.0","0","0","22946","","null","","","null","86","","","","","","","","","","","","","","","NaN",""
"","S1","","html-keyboard-response","574","631039","0.0-1.0-785.0","0","0","22946","","null","","","null","87","","","","","","","","","","","","","","","",""
"","ISI","","html-keyboard-response","575","632047","0.0-1.0-786.0","0","0","22946","","null","","","null","87","NaN","","","","","","","","","","","","","","",""
"","S2","","html-keyboard-response","576","632303","0.0-1.0-787.0","0","0","22946","","null","","","null","87","","NaN","","","","","","","","","","","","","",""
"","response","","html-keyboard-response","577","632527","0.0-1.0-788.0-0.0","0","0","22946","","219","","","75","87","","","2","87","training","adjacent","FE","6","5","R.jpg","L.jpg","0","0","1","",""
"","feedback","","html-keyboard-response","578","633536","0.0-1.0-789.0-0.0","0","0","22946","","null","","","null","87","","","","","","","","","","","","","","","",""
"","ITI","","html-keyboard-response","579","634543","0.0-1.0-792.0","0","0","22946","","null","","","null","87","","","","","","","","","","","","","","","NaN",""
"","S1","","html-keyboard-response","580","634799","0.0-1.0-794.0","0","0","22946","","null","","","null","88","","","","","","","","","","","","","","","",""
