"success","ttype","start_time","trial_type","trial_index","time_elapsed","internal_node_id","warning","missed_checkup","PID","view_history","rt","responses","repeat_instructions","key_press","index","keypress_isi","keypress_S2","block","trial_num","phase","group_type","pair_type","S1_stim","S2_stim","S1_img","S2_img","S1_chosen","S1_higher","accuracy","keypress_iti","total_bonus_tally"
"true","full_screen","d04162023hr0458","fullscreen","0","12143","0.0-0.0","0","0","95103","","","","","","","","","","","","","","","","","","","","","",""
"","instructions","","instructions","1","67652","0.0-1.0-0.0-0.0","0","0","95103","[{""page_index"":0,""viewing_time"":3523},{""page_index"":1,""viewing_time"":40688},{""page_index"":2,""viewing_time"":9488},{""page_index"":3,""viewing_time"":1808}]","55507","","","","","","","","","","","","","","","","","","","",""
"","comprehension_check","","survey-multi-choice","2","86676","0.0-1.0-0.0-1.0","0","0","95103","","19021","{""Q0"":""True"",""Q1"":""D"",""Q2"":""Once the second image appears and while the screen 'MAKE A CHOICE' is shown"",""Q3"":""Green mark"",""Q4"":""either D or K""}","1","","","","","","","","","","","","","","","","","",""
"","missed_instruction_checkup","","html-keyboard-response","3","89240","0.0-1.0-0.0-2.0-0.0","0","1","95103","","2562","","","32","","","","","","","","","","","","","","","","",""
"","instructions","","instructions","4","107804","0.0-1.0-0.1-0.1","0","0","95103","[{""page_index"":0,""viewing_time"":2946},{""page_index"":1,""viewing_time"":14104},{""page_index"":2,""viewing_time"":880},{""page_index"":3,""viewing_time"":632}]","18562","","","","","","","","","","","","","","","","","","","",""
"","comprehension_check","","survey-multi-choice","5","114828","0.0-1.0-0.1-1.1","0","0","95103","","7022","{""Q0"":""True"",""Q1"":""K"",""Q2"":""Once the second image appears and while the screen 'MAKE A CHOICE' is shown"",""Q3"":""Green mark"",""Q4"":""either D or K""}","0","","","","","","","","","","","","","","","","","",""
"","start_exp","","html-keyboard-response","6","118013","0.0-1.0-1.0","0","0","95103","","3183","","","32","","","","","","","","","","","","","","","","",""
"","S1","","html-keyboard-response","7","118267","0.0-1.0-2.0","0","0","95103","","null","","","null","0","","","","","","","","","","","","","","","",""
"","ISI","","html-keyboard-response","8","119269","0.0-1.0-3.0","0","0","95103","","null","","","null","0","NaN","","","","","","","","","","","","","","",""
"","S2","","html-keyboard-response","9","119522","0.0-1.0-4.0","0","0","95103","","null","","","null","0","","NaN","","","","","","","","","","","","","",""
"","response","","html-keyboard-response","10","120748","0.0-1.0-5.0-0.0","0","0","95103","","1225","","","75","0","","","1","0","training","adjacent","DE","4","5","M.jpg","L.jpg","1","1","1","",""
"","feedback","","html-keyboard-response","11","121765","0.0-1.0-6.0-0.0","0","0","95103","","null","","","null","0","","","","","","","","","","","","","","","",""
"","ITI","","html-keyboard-response","12","122768","0.0-1.0-9.0","0","0","95103","","null","","","null","0","","","","","","","","","","","","","","","NaN",""
"","S1","","html-keyboard-response","13","123021","0.0-1.0-11.0","0","0","95103","","null","","","null","1","","","","","","","","","","","","","","","",""
"","ISI","","html-keyboard-response","14","124023","0.0-1.0-12.0","0","0","95103","","null","","","null","1","NaN","","","","","","","","","","","","","","",""
"","S2","","html-keyboard-response","15","124276","0.0-1.0-13.0","0","0","95103","","null","","","null","1","","NaN","","","","","","","","","","","","","",""
"","response","","html-keyboard-response","16","125165","0.0-1.0-14.0-0.0","0","0","95103","","887","","","75","1","","","1","1","training","adjacent","DE","4","5","M.jpg","L.jpg","1","1","1","",""
"","feedback","","html-keyboard-response","17","126167","0.0-1.0-15.0-0.0","0","0","95103","","null","","","null","1","","","","","","","","","","","","","","","",""
"","ITI","","html-keyboard-response","18","127170","0.0-1.0-18.0","0","0","95103","","null","","","null","1","","","","","","","","","","","","","","","NaN",""
"","S1","","html-keyboard-response","19","127423","0.0-1.0-20.0","0","0","95103","","null","","","null","2","","","","","","","","","","","","","","","",""
"","ISI","","html-keyboard-response","20","128425","0.0-1.0-21.0","0","0","95103","","null","","","null","2","NaN","","","","","","","","","","","","","","",""
"","S2","","html-keyboard-response","21","128677","0.0-1.0-22.0","0","0","95103","","null","","","null","2","","NaN","","","","","","","","","","","","","",""
"","response","","html-keyboard-response","22","129476","0.0-1.0-23.0-0.0","0","0","95103","","797","","","68","2","","","1","2","training","adjacent","BC","2","3","O.jpg","Q.jpg","0","1","0","",""
"","feedback","","html-keyboard-response","23","130477","0.0-1.0-24.0-0.0","0","0","95103","","null","","","null","2","","","","","","","","","","","","","","","",""
"","time_out","","html-keyboard-response","24","132479","0.0-1.0-26.0-0.0","0","0","95103","","null","","","null","2","","","","","","","","","","","","","","","",""
"","ITI","","html-keyboard-response","25","133481","0.0-1.0-27.0","0","0","95103","","null","","","null","2","","","","","","","","","","","","","","","NaN",""
"","S1","","html-keyboard-response","26","133734","0.0-1.0-29.0","0","0","95103","","null","","","null","3","","","","","","","","","","","","","","","",""
"","ISI","","html-keyboard-response","27","134736","0.0-1.0-30.0","0","0","95103","","null","","","null","3","NaN","","","","","","","","","","","","","","",""
"","S2","","html-keyboard-response","28","134987","0.0-1.0-31.0","0","0","95103","","null","","","null","3","","NaN","","","","","","","","","","","","","",""
"","response","","html-keyboard-response","29","135732","0.0-1.0-32.0-0.0","0","0","95103","","744","","","75","3","","","1","3","training","adjacent","EF","5","6","L.jpg","P.jpg","1","1","1","",""
"","feedback","","html-keyboard-response","30","136734","0.0-1.0-33.0-0.0","0","0","95103","","null","","","null","3","","","","","","","","","","","","","","","",""
"","ITI","","html-keyboard-response","31","137737","0.0-1.0-36.0","0","0","95103","","null","","","null","3","","","","","","","","","","","","","","","NaN",""
"","S1","","html-keyboard-response","32","137989","0.0-1.0-38.0","0","0","95103","","null","","","null","4","","","","","","","","","","","","","","","",""
"","ISI","","html-keyboard-response","33","138991","0.0-1.0-39.0","0","0","95103","","null","","","null","4","NaN","","","","","","","","","","","","","","",""
"","S2","","html-keyboard-response","34","139244","0.0-1.0-40.0","0","0","95103","","null","","","null","4","","NaN","","","","","","","","","","","","","",""
"","response","","html-keyboard-response","35","139853","0.0-1.0-41.0-0.0","0","0","95103","","608","","","68","4","","","1","4","training","adjacent","FG","6","7","P.jpg","R.jpg","0","1","0","",""
"","feedback","","html-keyboard-response","36","140858","0.0-1.0-42.0-0.0","0","0","95103","","null","","","null","4","","","","","","","","","","","","","","","",""
"","time_out","","html-keyboard-response","37","142860","0.0-1.0-44.0-0.0","0","0","95103","","null","","","null","4","","","","","","","","","","","","","","","",""
"","ITI","","html-keyboard-response","38","143863","0.0-1.0-45.0","0","0","95103","","null","","","null","4","","","","","","","","","","","","","","","NaN",""
"","S1","","html-keyboard-response","39","144115","0.0-1.0-47.0","0","0","95103","","null","","","null","5","","","","","","","","","","","","","","","",""
"","ISI","","html-keyboard-response","40","145117","0.0-1.0-48.0","0","0","95103","","null","","","null","5","NaN","","","","","","","","","","","","","","",""
"","S2","","html-keyboard-response","41","145369","0.0-1.0-49.0","0","0","95103","","null","","","null","5","","NaN","","","","","","","","","","","","","",""
"","response","","html-keyboard-response","42","145780","0.0-1.0-50.0-0.0","0","0","95103","","410","","","75","5","","","1","5","training","adjacent","DC","4","3","M.jpg","Q.jpg","1","0","0","",""
"","feedback","","html-keyboard-response","43","146782","0.0-1.0-51.0-0.0","0","0","95103","","null","","","null","5","","","","","","","","","","","","","","","",""
"","time_out","","html-keyboard-response","44","148783","0.0-1.0-53.0-0.0","0","0","95103","","null","","","null","5","","","","","","","","","","","","","","","",""
"","ITI","","html-keyboard-response","45","149786","0.0-1.0-54.0","0","0","95103","","null","","","null","5","","","","","","","","","","","","","","","NaN",""
"","S1","","html-keyboard-response","46","150039","0.0-1.0-56.0","0","0","95103","","null","","","null","6","","","","","","","","","","","","","","","",""
"","ISI","","html-keyboard-response","47","151051","0.0-1.0-57.0","0","0","95103","","null","","","null","6","NaN","","","","","","","","","","","","","","",""
"","S2","","html-keyboard-response","48","151303","0.0-1.0-58.0","0","0","95103","","null","","","null","6","","NaN","","","","","","","","","","","","","",""
"","response","","html-keyboard-response","49","152060","0.0-1.0-59.0-0.0","0","0","95103","","756","","","75","6","","","1","6","training","adjacent","AB","1","2","N.jpg","O.jpg","1","1","1","",""
"","feedback","","html-keyboard-response","50","153062","0.0-1.0-60.0-0.0","0","0","95103","","null","","","null","6","","","","","","","","","","","","","","","",""
"","ITI","","html-keyboard-response","51","154076","0.0-1.0-63.0","0","0","95103","","null","","","null","6","","","","","","","","","","","","","","","NaN",""
"","S1","","html-keyboard-response","52","154330","0.0-1.0-65.0","0","0","95103","","null","","","null","7","","","","","","","","","","","","","","","",""
"","ISI","","html-keyboard-response","53","155333","0.0-1.0-66.0","0","0","95103","","null","","","null","7","NaN","","","","","","","","","","","","","","",""
"","S2","","html-keyboard-response","54","155585","0.0-1.0-67.0","0","0","95103","","null","","","null","7","","NaN","","","","","","","","","","","","","",""
"","response","","html-keyboard-response","55","156309","0.0-1.0-68.0-0.0","0","0","95103","","722","","","75","7","","","1","7","training","adjacent","BC","2","3","O.jpg","Q.jpg","1","1","1","",""
"","feedback","","html-keyboard-response","56","157312","0.0-1.0-69.0-0.0","0","0","95103","","null","","","null","7","","","","","","","","","","","","","","","",""
"","ITI","","html-keyboard-response","57","158316","0.0-1.0-72.0","0","0","95103","","null","","","null","7","","","","","","","","","","","","","","","NaN",""
"","S1","","html-keyboard-response","58","158569","0.0-1.0-74.0","0","0","95103","","null","","","null","8","","","","","","","","","","","","","","","",""
"","ISI","","html-keyboard-response","59","159571","0.0-1.0-75.0","0","0","95103","","null","","","null","8","NaN","","","","","","","","","","","","","","",""
"","S2","","html-keyboard-response","60","159825","0.0-1.0-76.0","0","0","95103","","null","","","null","8","","NaN","","","","","","","","","","","","","",""
"","response","","html-keyboard-response","61","160668","0.0-1.0-77.0-0.0","0","0","95103","","842","","","68","8","","","1","8","training","adjacent","FE","6","5","P.jpg","L.jpg","0","0","1","",""
"","feedback","","html-keyboard-response","62","161671","0.0-1.0-78.0-0.0","0","0","95103","","null","","","null","8","","","","","","","","","","","","","","","",""
"","ITI","","html-keyboard-response","63","162673","0.0-1.0-81.0","0","0","95103","","null","","","null","8","","","","","","","","","","","","","","","NaN",""
"","S1","","html-keyboard-response","64","162944","0.0-1.0-83.0","0","0","95103","","null","","","null","9","","","","","","","","","","","","","","","",""
"","ISI","","html-keyboard-response","65","163955","0.0-1.0-84.0","0","0","95103","","null","","","null","9","NaN","","","","","","","","","","","","","","",""
"","S2","","html-keyboard-response","66","164211","0.0-1.0-85.0","0","0","95103","","null","","","null","9","","NaN","","","","","","","","","","","","","",""
"","response","","html-keyboard-response","67","164846","0.0-1.0-86.0-0.0","0","0","95103","","632","","","75","9","","","1","9","training","adjacent","BA","2","1","O.jpg","N.jpg","1","0","0","",""
"","feedback","","html-keyboard-response","68","165849","0.0-1.0-87.0-0.0","0","0","95103","","null","","","null","9","","","","","","","","","","","","","","","",""
"","time_out","","html-keyboard-response","69","167851","0.0-1.0-89.0-0.0","0","0","95103","","null","","","null","9","","","","","","","","","","","","","","","",""
"","ITI","","html-keyboard-response","70","168854","0.0-1.0-90.0","0","0","95103","","null","","","null","9","","","","","","","","","","","","","","","NaN",""
"","S1","","html-keyboard-response","71","169107","0.0-1.0-92.0","0","0","95103","","null","","","null","10","","","","","","","","","","","","","","","",""
"","ISI","","html-keyboard-response","72","170109","0.0-1.0-93.0","0","0","95103","","null","","","null","10","NaN","","","","","","","","","","","","","","",""
"","S2","","html-keyboard-response","73","170363","0.0-1.0-94.0","0","0","95103","","null","","","null","10","","NaN","","","","","","","","","","","","","",""
"","response","","html-keyboard-response","74","170837","0.0-1.0-95.0-0.0","0","0","95103","","471","","","68","10","","","1","10","training","adjacent","CD","3","4","Q.jpg","M.jpg","0","1","0","",""
"","feedback","","html-keyboard-response","75","171839","0.0-1.0-96.0-0.0","0","0","95103","","null","","","null","10","","","","","","","","","","","","","","","",""
"","time_out","","html-keyboard-response","76","173841","0.0-1.0-98.0-0.0","0","0","95103","","null","","","null","10","","","","","","","","","","","","","","","",""
"","ITI","","html-keyboard-response","77","174844","0.0-1.0-99.0","0","0","95103","","null","","","null","10","","","","","","","","","","","","","","","NaN",""
"","S1","","html-keyboard-response","78","175097","0.0-1.0-101.0","0","0","95103","","null","","","null","11","","","","","","","","","","","","","","","",""
"","ISI","","html-keyboard-response","79","176099","0.0-1.0-102.0","0","0","95103","","null","","","null","11","NaN","","","","","","","","","","","","","","",""
"","S2","","html-keyboard-response","80","176352","0.0-1.0-103.0","0","0","95103","","null","","","null","11","","NaN","","","","","","","","","","","","","",""
"","response","","html-keyboard-response","81","177061","0.0-1.0-104.0-0.0","0","0","95103","","708","","","75","11","","","1","11","training","adjacent","CB","3","2","Q.jpg","O.jpg","1","0","0","",""
"","feedback","","html-keyboard-response","82","178077","0.0-1.0-105.0-0.0","0","0","95103","","null","","","null","11","","","","","","","","","","","","","","","",""
"","time_out","","html-keyboard-response","83","180079","0.0-1.0-107.0-0.0","0","0","95103","","null","","","null","11","","","","","","","","","","","","","","","",""
"","ITI","","html-keyboard-response","84","181082","0.0-1.0-108.0","0","0","95103","","null","","","null","11","","","","","","","","","","","","","","","NaN",""
"","S1","","html-keyboard-response","85","181334","0.0-1.0-110.0","0","0","95103","","null","","","null","12","","","","","","","","","","","","","","","",""
"","ISI","","html-keyboard-response","86","182336","0.0-1.0-111.0","0","0","95103","","null","","","null","12","NaN","","","","","","","","","","","","","","",""
"","S2","","html-keyboard-response","87","182588","0.0-1.0-112.0","0","0","95103","","null","","","null","12","","NaN","","","","","","","","","","","","","",""
"","response","","html-keyboard-response","88","183940","0.0-1.0-113.0-0.0","0","0","95103","","1352","","","68","12","","","1","12","training","adjacent","CB","3","2","Q.jpg","O.jpg","0","0","1","",""
"","feedback","","html-keyboard-response","89","184943","0.0-1.0-114.0-0.0","0","0","95103","","null","","","null","12","","","","","","","","","","","","","","","",""
"","ITI","","html-keyboard-response","90","185954","0.0-1.0-117.0","0","0","95103","","null","","","null","12","","","","","","","","","","","","","","","NaN",""
"","S1","","html-keyboard-response","91","186207","0.0-1.0-119.0","0","0","95103","","null","","","null","13","","","","","","","","","","","","","","","",""
"","ISI","","html-keyboard-response","92","187210","0.0-1.0-120.0","0","0","95103","","null","","","null","13","NaN","","","","","","","","","","","","","","",""
"","S2","","html-keyboard-response","93","187462","0.0-1.0-121.0","0","0","95103","","null","","","null","13","","NaN","","","","","","","","","","","","","",""
"","response","","html-keyboard-response","94","187789","0.0-1.0-122.0-0.0","0","0","95103","","326","","","75","13","","","1","13","training","adjacent","BC","2","3","O.jpg","Q.jpg","1","1","1","",""
"","feedback","","html-keyboard-response","95","188799","0.0-1.0-123.0-0.0","0","0","95103","","null","","","null","13","","","","","","","","","","","","","","","",""
"","ITI","","html-keyboard-response","96","189801","0.0-1.0-126.0","0","0","95103","","null","","","null","13","","","","","","","","","","","","","","","NaN",""
"","S1","","html-keyboard-response","97","190053","0.0-1.0-128.0","0","0","95103","","null","","","null","14","","","","","","","","","","","","","","","",""
"","ISI","","html-keyboard-response","98","191063","0.0-1.0-129.0","0","0","95103","","null","","","null","14","NaN","","","","","","","","","","","","","","",""
"","S2","","html-keyboard-response","99","191315","0.0-1.0-130.0","0","0","95103","","null","","","null","14","","NaN","","","","","","","","","","","","","",""
"","response","","html-keyboard-response","100","192612","0.0-1.0-131.0-0.0","0","0","95103","","1295","","","75","14","","","1","14","training","adjacent","FG","6","7","P.jpg","R.jpg","1","1","1","",""
"","feedback","","html-keyboard-response","101","193614","0.0-1.0-132.0-0.0","0","0","95103","","null","","","null","14","","","","","","","","","","","","","","","",""
"","ITI","","html-keyboard-response","102","194617","0.0-1.0-135.0","0","0","95103","","null","","","null","14","","","","","","","","","","","","","","","NaN",""
"","S1","","html-keyboard-response","103","194869","0.0-1.0-137.0","0","0","95103","","null","","","null","15","","","","","","","","","","","","","","","",""
"","ISI","","html-keyboard-response","104","195872","0.0-1.0-138.0","0","0","95103","","null","","","null","15","NaN","","","","","","","","","","","","","","",""
"","S2","","html-keyboard-response","105","196125","0.0-1.0-139.0","0","0","95103","","null","","","null","15","","NaN","","","","","","","","","","","","","",""
"","response","","html-keyboard-response","106","196908","0.0-1.0-140.0-0.0","0","0","95103","","781","","","68","15","","","1","15","training","adjacent","CD","3","4","Q.jpg","M.jpg","0","1","0","",""
"","feedback","","html-keyboard-response","107","197911","0.0-1.0-141.0-0.0","0","0","95103","","null","","","null","15","","","","","","","","","","","","","","","",""
"","time_out","","html-keyboard-response","108","199913","0.0-1.0-143.0-0.0","0","0","95103","","null","","","null","15","","","","","","","","","","","","","","","",""
"","ITI","","html-keyboard-response","109","200914","0.0-1.0-144.0","0","0","95103","","null","","","null","15","","","","","","","","","","","","","","","NaN",""
"","S1","","html-keyboard-response","110","201167","0.0-1.0-146.0","0","0","95103","","null","","","null","16","","","","","","","","","","","","","","","",""
"","ISI","","html-keyboard-response","111","202169","0.0-1.0-147.0","0","0","95103","","null","","","null","16","NaN","","","","","","","","","","","","","","",""
"","S2","","html-keyboard-response","112","202421","0.0-1.0-148.0","0","0","95103","","null","","","null","16","","NaN","","","","","","","","","","","","","",""
"","response","","html-keyboard-response","113","202924","0.0-1.0-149.0-0.0","0","0","95103","","503","","","75","16","","","1","16","training","adjacent","CB","3","2","Q.jpg","O.jpg","1","0","0","",""
"","feedback","","html-keyboard-response","114","203931","0.0-1.0-150.0-0.0","0","0","95103","","null","","","null","16","","","","","","","","","","","","","","","",""
"","time_out","","html-keyboard-response","115","205933","0.0-1.0-152.0-0.0","0","0","95103","","null","","","null","16","","","","","","","","","","","","","","","",""
"","ITI","","html-keyboard-response","116","206935","0.0-1.0-153.0","0","0","95103","","null","","","null","16","","","","","","","","","","","","","","","NaN",""
"","S1","","html-keyboard-response","117","207186","0.0-1.0-155.0","0","0","95103","","null","","","null","17","","","","","","","","","","","","","","","",""
"","ISI","","html-keyboard-response","118","208188","0.0-1.0-156.0","0","0","95103","","null","","","null","17","NaN","","","","","","","","","","","","","","",""
"","S2","","html-keyboard-response","119","208440","0.0-1.0-157.0","0","0","95103","","null","","","null","17","","NaN","","","","","","","","","","","","","",""
"","response","","html-keyboard-response","120","208765","0.0-1.0-158.0-0.0","0","0","95103","","323","","","68","17","","","1","17","training","adjacent","CD","3","4","Q.jpg","M.jpg","0","1","0","",""
"","feedback","","html-keyboard-response","121","209768","0.0-1.0-159.0-0.0","0","0","95103","","null","","","null","17","","","","","","","","","","","","","","","",""
"","time_out","","html-keyboard-response","122","211783","0.0-1.0-161.0-0.0","0","0","95103","","null","","","null","17","","","","","","","","","","","","","","","",""
"","ITI","","html-keyboard-response","123","212785","0.0-1.0-162.0","0","0","95103","","null","","","null","17","","","","","","","","","","","","","","","NaN",""
"","S1","","html-keyboard-response","124","213037","0.0-1.0-164.0","0","0","95103","","null","","","null","18","","","","","","","","","","","","","","","",""
"","ISI","","html-keyboard-response","125","214040","0.0-1.0-165.0","0","0","95103","","null","","","null","18","NaN","","","","","","","","","","","","","","",""
"","S2","","html-keyboard-response","126","214292","0.0-1.0-166.0","0","0","95103","","null","","","null","18","","NaN","","","","","","","","","","","","","",""
"","response","","html-keyboard-response","127","216045","0.0-1.0-167.0-0.0","0","0","95103","","null","","","null","18","","","1","18","training","adjacent","AB","1","2","N.jpg","O.jpg","NaN","1","0","",""
"","too_slow_prompt","","html-keyboard-response","128","217047","0.0-1.0-169.0-0.0","1","0","95103","","null","","","null","","","","","","","","","","","","","","","","",""
"","time_out","","html-keyboard-response","129","219049","0.0-1.0-170.0-0.0","0","0","95103","","null","","","null","18","","","","","","","","","","","","","","","",""
"","ITI","","html-keyboard-response","130","220052","0.0-1.0-171.0","0","0","95103","","null","","","null","18","","","","","","","","","","","","","","","NaN",""
"","S1","","html-keyboard-response","131","220304","0.0-1.0-173.0","0","0","95103","","null","","","null","19","","","","","","","","","","","","","","","",""
"","ISI","","html-keyboard-response","132","221306","0.0-1.0-174.0","0","0","95103","","null","","","null","19","NaN","","","","","","","","","","","","","","",""
"","S2","","html-keyboard-response","133","221559","0.0-1.0-175.0","0","0","95103","","null","","","null","19","","NaN","","","","","","","","","","","","","",""
"","response","","html-keyboard-response","134","222252","0.0-1.0-176.0-0.0","0","0","95103","","692","","","75","19","","","1","19","training","adjacent","FG","6","7","P.jpg","R.jpg","1","1","1","",""
"","feedback","","html-keyboard-response","135","223255","0.0-1.0-177.0-0.0","0","0","95103","","null","","","null","19","","","","","","","","","","","","","","","",""
"","ITI","","html-keyboard-response","136","224258","0.0-1.0-180.0","0","0","95103","","null","","","null","19","","","","","","","","","","","","","","","NaN",""
"","S1","","html-keyboard-response","137","224511","0.0-1.0-182.0","0","0","95103","","null","","","null","20","","","","","","","","","","","","","","","",""
"","ISI","","html-keyboard-response","138","225521","0.0-1.0-183.0","0","0","95103","","null","","","null","20","NaN","","","","","","","","","","","","","","",""
"","S2","","html-keyboard-response","139","225772","0.0-1.0-184.0","0","0","95103","","null","","","null","20","","NaN","","","","","","","","","","","","","",""
"","response","","html-keyboard-response","140","226700","0.0-1.0-185.0-0.0","0","0","95103","","927","","","68","20","","","1","20","training","adjacent","AB","1","2","N.jpg","O.jpg","0","1","0","",""
"","feedback","","html-keyboard-response","141","227703","0.0-1.0-186.0-0.0","0","0","95103","","null","","","null","20","","","","","","","","","","","","","","","",""
"","time_out","","html-keyboard-response","142","229706","0.0-1.0-188.0-0.0","0","0","95103","","null","","","null","20","","","","","","","","","","","","","","","",""
"","ITI","","html-keyboard-response","143","230708","0.0-1.0-189.0","0","0","95103","","null","","","null","20","","","","","","","","","","","","","","","NaN",""
"","S1","","html-keyboard-response","144","230961","0.0-1.0-191.0","0","0","95103","","null","","","null","21","","","","","","","","","","","","","","","",""
"","ISI","","html-keyboard-response","145","231963","0.0-1.0-192.0","0","0","95103","","null","","","null","21","NaN","","","","","","","","","","","","","","",""
"","S2","","html-keyboard-response","146","232215","0.0-1.0-193.0","0","0","95103","","null","","","null","21","","NaN","","","","","","","","","","","","","",""
"","response","","html-keyboard-response","147","233253","0.0-1.0-194.0-0.0","0","0","95103","","1036","","","68","21","","","1","21","training","adjacent","FE","6","5","P.jpg","L.jpg","0","0","1","",""
"","feedback","","html-keyboard-response","148","234256","0.0-1.0-195.0-0.0","0","0","95103","","null","","","null","21","","","","","","","","","","","","","","","",""
"","ITI","","html-keyboard-response","149","235258","0.0-1.0-198.0","0","0","95103","","null","","","null","21","","","","","","","","","","","","","","","NaN",""
"","S1","","html-keyboard-response","150","235510","0.0-1.0-200.0","0","0","95103","","null","","","null","22","","","","","","","","","","","","","","","",""
"","ISI","","html-keyboard-response","151","236513","0.0-1.0-201.0","0","0","95103","","null","","","null","22","NaN","","","","","","","","","","","","","","",""
"","S2","","html-keyboard-response","152","236765","0.0-1.0-202.0","0","0","95103","","null","","","null","22","","NaN","","","","","","","","","","","","","",""
"","response","","html-keyboard-response","153","237244","0.0-1.0-203.0-0.0","0","0","95103","","479","","","75","22","","","1","22","training","adjacent","BC","2","3","O.jpg","Q.jpg","1","1","1","",""
"","feedback","","html-keyboard-response","154","238247","0.0-1.0-204.0-0.0","0","0","95103","","null","","","null","22","","","","","","","","","","","","","","","",""
"","ITI","","html-keyboard-response","155","239250","0.0-1.0-207.0","0","0","95103","","null","","","null","22","","","","","","","","","","","","","","","NaN",""
"","S1","","html-keyboard-response","156","239503","0.0-1.0-209.0","0","0","95103","","null","","","null","23","","","","","","","","","","","","","","","",""
"","ISI","","html-keyboard-response","157","240505","0.0-1.0-210.0","0","0","95103","","null","","","null","23","NaN","","","","","","","","","","","","","","",""
"","S2","","html-keyboard-response","158","240757","0.0-1.0-211.0","0","0","95103","","null","","","null","23","","NaN","","","","","","","","","","","","","",""
"","response","","html-keyboard-response","159","241404","0.0-1.0-212.0-0.0","0","0","95103","","646","","","68","23","","","1","23","training","adjacent","DE","4","5","M.jpg","L.jpg","0","1","0","",""
"","feedback","","html-keyboard-response","160","242407","0.0-1.0-213.0-0.0","0","0","95103","","null","","","null","23","","","","","","","","","","","","","","","",""
"","time_out","","html-keyboard-response","161","244410","0.0-1.0-215.0-0.0","0","0","95103","","null","","","null","23","","","","","","","","","","","","","","","",""
"","ITI","","html-keyboard-response","162","245412","0.0-1.0-216.0","0","0","95103","","null","","","null","23","","","","","","","","","","","","","","","NaN",""
"","S1","","html-keyboard-response","163","245664","0.0-1.0-218.0","0","0","95103","","null","","","null","24","","","","","","","","","","","","","","","",""
"","ISI","","html-keyboard-response","164","246666","0.0-1.0-219.0","0","0","95103","","null","","","null","24","NaN","","","","","","","","","","","","","","",""
"","S2","","html-keyboard-response","165","246918","0.0-1.0-220.0","0","0","95103","","null","","","null","24","","NaN","","","","","","","","","","","","","",""
"","response","","html-keyboard-response","166","247773","0.0-1.0-221.0-0.0","0","0","95103","","853","","","75","24","","","1","24","training","adjacent","FG","6","7","P.jpg","R.jpg","1","1","1","",""
"","feedback","","html-keyboard-response","167","248783","0.0-1.0-222.0-0.0","0","0","95103","","null","","","null","24","","","","","","","","","","","","","","","",""
"","ITI","","html-keyboard-response","168","249786","0.0-1.0-225.0","0","0","95103","","null","","","null","24","","","","","","","","","","","","","","","NaN",""
"","S1","","html-keyboard-response","169","250038","0.0-1.0-227.0","0","0","95103","","null","","","null","25","","","","","","","","","","","","","","","",""
"","ISI","","html-keyboard-response","170","251040","0.0-1.0-228.0","0","0","95103","","null","","","null","25","NaN","","","","","","","","","","","","","","",""
"","S2","","html-keyboard-response","171","251292","0.0-1.0-229.0","0","0","95103","","null","","","null","25","","NaN","","","","","","","","","","","","","",""
"","response","","html-keyboard-response","172","252044","0.0-1.0-230.0-0.0","0","0","95103","","752","","","75","25","","","1","25","training","adjacent","DC","4","3","M.jpg","Q.jpg","1","0","0","",""
"","feedback","","html-keyboard-response","173","253046","0.0-1.0-231.0-0.0","0","0","95103","","null","","","null","25","","","","","","","","","","","","","","","",""
"","time_out","","html-keyboard-response","174","255048","0.0-1.0-233.0-0.0","0","0","95103","","null","","","null","25","","","","","","","","","","","","","","","",""
"","ITI","","html-keyboard-response","175","256050","0.0-1.0-234.0","0","0","95103","","null","","","null","25","","","","","","","","","","","","","","","NaN",""
"","S1","","html-keyboard-response","176","256303","0.0-1.0-236.0","0","0","95103","","null","","","null","26","","","","","","","","","","","","","","","",""
"","ISI","","html-keyboard-response","177","257306","0.0-1.0-237.0","0","0","95103","","null","","","null","26","NaN","","","","","","","","","","","","","","",""
"","S2","","html-keyboard-response","178","257558","0.0-1.0-238.0","0","0","95103","","null","","","null","26","","NaN","","","","","","","","","","","","","",""
"","response","","html-keyboard-response","179","258397","0.0-1.0-239.0-0.0","0","0","95103","","838","","","68","26","","","1","26","training","adjacent","EF","5","6","L.jpg","P.jpg","0","1","0","",""
"","feedback","","html-keyboard-response","180","259399","0.0-1.0-240.0-0.0","0","0","95103","","null","","","null","26","","","","","","","","","","","","","","","",""
"","time_out","","html-keyboard-response","181","261401","0.0-1.0-242.0-0.0","0","0","95103","","null","","","null","26","","","","","","","","","","","","","","","",""
"","ITI","","html-keyboard-response","182","262403","0.0-1.0-243.0","0","0","95103","","null","","","null","26","","","","","","","","","","","","","","","NaN",""
"","S1","","html-keyboard-response","183","262656","0.0-1.0-245.0","0","0","95103","","null","","","null","27","","","","","","","","","","","","","","","",""
"","ISI","","html-keyboard-response","184","263658","0.0-1.0-246.0","0","0","95103","","null","","","null","27","NaN","","","","","","","","","","","","","","",""
"","S2","","html-keyboard-response","185","263910","0.0-1.0-247.0","0","0","95103","","null","","","null","27","","NaN","","","","","","","","","","","","","",""
"","response","","html-keyboard-response","186","264445","0.0-1.0-248.0-0.0","0","0","95103","","533","","","75","27","","","1","27","training","adjacent","FE","6","5","P.jpg","L.jpg","1","0","0","",""
"","feedback","","html-keyboard-response","187","265447","0.0-1.0-249.0-0.0","0","0","95103","","null","","","null","27","","","","","","","","","","","","","","","",""
"","time_out","","html-keyboard-response","188","267456","0.0-1.0-251.0-0.0","0","0","95103","","null","","","null","27","","","","","","","","","","","","","","","",""
"","ITI","","html-keyboard-response","189","268458","0.0-1.0-252.0","0","0","95103","","null","","","null","27","","","","","","","","","","","","","","","NaN",""
"","S1","","html-keyboard-response","190","268710","0.0-1.0-254.0","0","0","95103","","null","","","null","28","","","","","","","","","","","","","","","",""
"","ISI","","html-keyboard-response","191","269713","0.0-1.0-255.0","0","0","95103","","null","","","null","28","NaN","","","","","","","","","","","","","","",""
"","S2","","html-keyboard-response","192","269964","0.0-1.0-256.0","0","0","95103","","null","","","null","28","","NaN","","","","","","","","","","","","","",""
"","response","","html-keyboard-response","193","271101","0.0-1.0-257.0-0.0","0","0","95103","","1136","","","68","28","","","1","28","training","adjacent","DC","4","3","M.jpg","Q.jpg","0","0","1","",""
"","feedback","","html-keyboard-response","194","272103","0.0-1.0-258.0-0.0","0","0","95103","","null","","","null","28","","","","","","","","","","","","","","","",""
"","ITI","","html-keyboard-response","195","273105","0.0-1.0-261.0","0","0","95103","","null","","","null","28","","","","","","","","","","","","","","","NaN",""
"","S1","","html-keyboard-response","196","273357","0.0-1.0-263.0","0","0","95103","","null","","","null","29","","","","","","","","","","","","","","","",""
"","ISI","","html-keyboard-response","197","274359","0.0-1.0-264.0","0","0","95103","","null","","","null","29","NaN","","","","","","","","","","","","","","",""
"","S2","","html-keyboard-response","198","274612","0.0-1.0-265.0","0","0","95103","","null","","","null","29","","NaN","","","","","","","","","","","","","",""
"","response","","html-keyboard-response","199","275461","0.0-1.0-266.0-0.0","0","0","95103","","848","","","68","29","","","1","29","training","adjacent","CB","3","2","Q.jpg","O.jpg","0","0","1","",""
"","feedback","","html-keyboard-response","200","276463","0.0-1.0-267.0-0.0","0","0","95103","","null","","","null","29","","","","","","","","","","","","","","","",""
"","ITI","","html-keyboard-response","201","277465","0.0-1.0-270.0","0","0","95103","","null","","","null","29","","","","","","","","","","","","","","","NaN",""
"","S1","","html-keyboard-response","202","277718","0.0-1.0-272.0","0","0","95103","","null","","","null","30","","","","","","","","","","","","","","","",""
"","ISI","","html-keyboard-response","203","278720","0.0-1.0-273.0","0","0","95103","","null","","","null","30","NaN","","","","","","","","","","","","","","",""
"","S2","","html-keyboard-response","204","278972","0.0-1.0-274.0","0","0","95103","","null","","","null","30","","NaN","","","","","","","","","","","","","",""
"","response","","html-keyboard-response","205","279524","0.0-1.0-275.0-0.0","0","0","95103","","551","","","75","30","","","1","30","training","adjacent","CD","3","4","Q.jpg","M.jpg","1","1","1","",""
"","feedback","","html-keyboard-response","206","280527","0.0-1.0-276.0-0.0","0","0","95103","","null","","","null","30","","","","","","","","","","","","","","","",""
"","ITI","","html-keyboard-response","207","281529","0.0-1.0-279.0","0","0","95103","","null","","","null","30","","","","","","","","","","","","","","","NaN",""
"","S1","","html-keyboard-response","208","281782","0.0-1.0-281.0","0","0","95103","","null","","","null","31","","","","","","","","","","","","","","","",""
"","ISI","","html-keyboard-response","209","282784","0.0-1.0-282.0","0","0","95103","","null","","","null","31","NaN","","","","","","","","","","","","","","",""
"","S2","","html-keyboard-response","210","283036","0.0-1.0-283.0","0","0","95103","","null","","","null","31","","NaN","","","","","","","","","","","","","",""
"","response","","html-keyboard-response","211","283796","0.0-1.0-284.0-0.0","0","0","95103","","760","","","75","31","","","1","31","training","adjacent","ED","5","4","L.jpg","M.jpg","1","0","0","",""
"","feedback","","html-keyboard-response","212","284798","0.0-1.0-285.0-0.0","0","0","95103","","null","","","null","31","","","","","","","","","","","","","","","",""
"","time_out","","html-keyboard-response","213","286801","0.0-1.0-287.0-0.0","0","0","95103","","null","","","null","31","","","","","","","","","","","","","","","",""
"","ITI","","html-keyboard-response","214","287803","0.0-1.0-288.0","0","0","95103","","null","","","null","31","","","","","","","","","","","","","","","NaN",""
"","S1","","html-keyboard-response","215","288055","0.0-1.0-290.0","0","0","95103","","null","","","null","32","","","","","","","","","","","","","","","",""
"","ISI","","html-keyboard-response","216","289057","0.0-1.0-291.0","0","0","95103","","null","","","null","32","NaN","","","","","","","","","","","","","","",""
"","S2","","html-keyboard-response","217","289310","0.0-1.0-292.0","0","0","95103","","null","","","null","32","","NaN","","","","","","","","","","","","","",""
"","response","","html-keyboard-response","218","289701","0.0-1.0-293.0-0.0","0","0","95103","","390","","","68","32","","","1","32","training","adjacent","GF","7","6","R.jpg","P.jpg","0","0","1","",""
"","feedback","","html-keyboard-response","219","290704","0.0-1.0-294.0-0.0","0","0","95103","","null","","","null","32","","","","","","","","","","","","","","","",""
"","ITI","","html-keyboard-response","220","291722","0.0-1.0-297.0","0","0","95103","","null","","","null","32","","","","","","","","","","","","","","","NaN",""
"","S1","","html-keyboard-response","221","291975","0.0-1.0-299.0","0","0","95103","","null","","","null","33","","","","","","","","","","","","","","","",""
"","ISI","","html-keyboard-response","222","292984","0.0-1.0-300.0","0","0","95103","","null","","","null","33","NaN","","","","","","","","","","","","","","",""
"","S2","","html-keyboard-response","223","293236","0.0-1.0-301.0","0","0","95103","","null","","","null","33","","NaN","","","","","","","","","","","","","",""
"","response","","html-keyboard-response","224","294533","0.0-1.0-302.0-0.0","0","0","95103","","1296","","","68","33","","","1","33","training","adjacent","ED","5","4","L.jpg","M.jpg","0","0","1","",""
"","feedback","","html-keyboard-response","225","295535","0.0-1.0-303.0-0.0","0","0","95103","","null","","","null","33","","","","","","","","","","","","","","","",""
"","ITI","","html-keyboard-response","226","296537","0.0-1.0-306.0","0","0","95103","","null","","","null","33","","","","","","","","","","","","","","","NaN",""
"","S1","","html-keyboard-response","227","296789","0.0-1.0-308.0","0","0","95103","","null","","","null","34","","","","","","","","","","","","","","","",""
"","ISI","","html-keyboard-response","228","297792","0.0-1.0-309.0","0","0","95103","","null","","","null","34","NaN","","","","","","","","","","","","","","",""
"","S2","","html-keyboard-response","229","298044","0.0-1.0-310.0","0","0","95103","","null","","","null","34","","NaN","","","","","","","","","","","","","",""
"","response","","html-keyboard-response","230","298493","0.0-1.0-311.0-0.0","0","0","95103","","447","","","75","34","","","1","34","training","adjacent","EF","5","6","L.jpg","P.jpg","1","1","1","",""
"","feedback","","html-keyboard-response","231","299503","0.0-1.0-312.0-0.0","0","0","95103","","null","","","null","34","","","","","","","","","","","","","","","",""
"","ITI","","html-keyboard-response","232","300505","0.0-1.0-315.0","0","0","95103","","null","","","null","34","","","","","","","","","","","","","","","NaN",""
"","S1","","html-keyboard-response","233","300757","0.0-1.0-317.0","0","0","95103","","null","","","null","35","","","","","","","","","","","","","","","",""
"","ISI","","html-keyboard-response","234","301760","0.0-1.0-318.0","0","0","95103","","null","","","null","35","NaN","","","","","","","","","","","","","","",""
"","S2","","html-keyboard-response","235","302012","0.0-1.0-319.0","0","0","95103","","null","","","null","35","","NaN","","","","","","","","","","","","","",""
"","response","","html-keyboard-response","236","302397","0.0-1.0-320.0-0.0","0","0","95103","","384","","","68","35","","","1","35","training","adjacent","ED","5","4","L.jpg","M.jpg","0","0","1","",""
"","feedback","","html-keyboard-response","237","303400","0.0-1.0-321.0-0.0","0","0","95103","","null","","","null","35","","","","","","","","","","","","","","","",""
"","ITI","","html-keyboard-response","238","304402","0.0-1.0-324.0","0","0","95103","","null","","","null","35","","","","","","","","","","","","","","","NaN",""
"","S1","","html-keyboard-response","239","304655","0.0-1.0-326.0","0","0","95103","","null","","","null","36","","","","","","","","","","","","","","","",""
"","ISI","","html-keyboard-response","240","305660","0.0-1.0-327.0","0","0","95103","","null","","","null","36","NaN","","","","","","","","","","","","","","",""
"","S2","","html-keyboard-response","241","305912","0.0-1.0-328.0","0","0","95103","","null","","","null","36","","NaN","","","","","","","","","","","","","",""
"","response","","html-keyboard-response","242","306213","0.0-1.0-329.0-0.0","0","0","95103","","301","","","75","36","","","1","36","training","adjacent","BA","2","1","O.jpg","N.jpg","1","0","0","",""
"","feedback","","html-keyboard-response","243","307216","0.0-1.0-330.0-0.0","0","0","95103","","null","","","null","36","","","","","","","","","","","","","","","",""
"","time_out","","html-keyboard-response","244","309218","0.0-1.0-332.0-0.0","0","0","95103","","null","","","null","36","","","","","","","","","","","","","","","",""
"","ITI","","html-keyboard-response","245","310220","0.0-1.0-333.0","0","0","95103","","null","","","null","36","","","","","","","","","","","","","","","NaN",""
"","S1","","html-keyboard-response","246","310472","0.0-1.0-335.0","0","0","95103","","null","","","null","37","","","","","","","","","","","","","","","",""
"","ISI","","html-keyboard-response","247","311475","0.0-1.0-336.0","0","0","95103","","null","","","null","37","NaN","","","","","","","","","","","","","","",""
"","S2","","html-keyboard-response","248","311728","0.0-1.0-337.0","0","0","95103","","null","","","null","37","","NaN","","","","","","","","","","","","","",""
"","response","","html-keyboard-response","249","312037","0.0-1.0-338.0-0.0","0","0","95103","","308","","","75","37","","","1","37","training","adjacent","BA","2","1","O.jpg","N.jpg","1","0","0","",""
"","feedback","","html-keyboard-response","250","313039","0.0-1.0-339.0-0.0","0","0","95103","","null","","","null","37","","","","","","","","","","","","","","","",""
"","time_out","","html-keyboard-response","251","315042","0.0-1.0-341.0-0.0","0","0","95103","","null","","","null","37","","","","","","","","","","","","","","","",""
"","ITI","","html-keyboard-response","252","316044","0.0-1.0-342.0","0","0","95103","","null","","","null","37","","","","","","","","","","","","","","","NaN",""
"","S1","","html-keyboard-response","253","316296","0.0-1.0-344.0","0","0","95103","","null","","","null","38","","","","","","","","","","","","","","","",""
"","ISI","","html-keyboard-response","254","317298","0.0-1.0-345.0","0","0","95103","","null","","","null","38","NaN","","","","","","","","","","","","","","",""
"","S2","","html-keyboard-response","255","317552","0.0-1.0-346.0","0","0","95103","","null","","","null","38","","NaN","","","","","","","","","","","","","",""
"","response","","html-keyboard-response","256","318269","0.0-1.0-347.0-0.0","0","0","95103","","716","","","68","38","","","1","38","training","adjacent","EF","5","6","L.jpg","P.jpg","0","1","0","",""
"","feedback","","html-keyboard-response","257","319272","0.0-1.0-348.0-0.0","0","0","95103","","null","","","null","38","","","","","","","","","","","","","","","",""
"","time_out","","html-keyboard-response","258","321274","0.0-1.0-350.0-0.0","0","0","95103","","null","","","null","38","","","","","","","","","","","","","","","",""
"","ITI","","html-keyboard-response","259","322276","0.0-1.0-351.0","0","0","95103","","null","","","null","38","","","","","","","","","","","","","","","NaN",""
"","S1","","html-keyboard-response","260","322528","0.0-1.0-353.0","0","0","95103","","null","","","null","39","","","","","","","","","","","","","","","",""
"","ISI","","html-keyboard-response","261","323531","0.0-1.0-354.0","0","0","95103","","null","","","null","39","NaN","","","","","","","","","","","","","","",""
"","S2","","html-keyboard-response","262","323783","0.0-1.0-355.0","0","0","95103","","null","","","null","39","","NaN","","","","","","","","","","","","","",""
"","response","","html-keyboard-response","263","325092","0.0-1.0-356.0-0.0","0","0","95103","","1308","","","75","39","","","1","39","training","adjacent","BA","2","1","O.jpg","N.jpg","1","0","0","",""
"","feedback","","html-keyboard-response","264","326094","0.0-1.0-357.0-0.0","0","0","95103","","null","","","null","39","","","","","","","","","","","","","","","",""
"","time_out","","html-keyboard-response","265","328097","0.0-1.0-359.0-0.0","0","0","95103","","null","","","null","39","","","","","","","","","","","","","","","",""
"","ITI","","html-keyboard-response","266","329099","0.0-1.0-360.0","0","0","95103","","null","","","null","39","","","","","","","","","","","","","","","NaN",""
"","S1","","html-keyboard-response","267","329351","0.0-1.0-362.0","0","0","95103","","null","","","null","40","","","","","","","","","","","","","","","",""
"","ISI","","html-keyboard-response","268","330354","0.0-1.0-363.0","0","0","95103","","null","","","null","40","NaN","","","","","","","","","","","","","","",""
"","S2","","html-keyboard-response","269","330606","0.0-1.0-364.0","0","0","95103","","null","","","null","40","","NaN","","","","","","","","","","","","","",""
"","response","","html-keyboard-response","270","330949","0.0-1.0-365.0-0.0","0","0","95103","","342","","","75","40","","","1","40","training","adjacent","GF","7","6","R.jpg","P.jpg","1","0","0","",""
"","feedback","","html-keyboard-response","271","331952","0.0-1.0-366.0-0.0","0","0","95103","","null","","","null","40","","","","","","","","","","","","","","","",""
"","time_out","","html-keyboard-response","272","333954","0.0-1.0-368.0-0.0","0","0","95103","","null","","","null","40","","","","","","","","","","","","","","","",""
"","ITI","","html-keyboard-response","273","334956","0.0-1.0-369.0","0","0","95103","","null","","","null","40","","","","","","","","","","","","","","","NaN",""
"","S1","","html-keyboard-response","274","335208","0.0-1.0-371.0","0","0","95103","","null","","","null","41","","","","","","","","","","","","","","","",""
"","ISI","","html-keyboard-response","275","336211","0.0-1.0-372.0","0","0","95103","","null","","","null","41","NaN","","","","","","","","","","","","","","",""
"","S2","","html-keyboard-response","276","336464","0.0-1.0-373.0","0","0","95103","","null","","","null","41","","NaN","","","","","","","","","","","","","",""
"","response","","html-keyboard-response","277","337661","0.0-1.0-374.0-0.0","0","0","95103","","1196","","","75","41","","","1","41","training","adjacent","ED","5","4","L.jpg","M.jpg","1","0","0","",""
"","feedback","","html-keyboard-response","278","338662","0.0-1.0-375.0-0.0","0","0","95103","","null","","","null","41","","","","","","","","","","","","","","","",""
"","time_out","","html-keyboard-response","279","340665","0.0-1.0-377.0-0.0","0","0","95103","","null","","","null","41","","","","","","","","","","","","","","","",""
"","ITI","","html-keyboard-response","280","341677","0.0-1.0-378.0","0","0","95103","","null","","","null","41","","","","","","","","","","","","","","","NaN",""
"","S1","","html-keyboard-response","281","341929","0.0-1.0-380.0","0","0","95103","","null","","","null","42","","","","","","","","","","","","","","","",""
"","ISI","","html-keyboard-response","282","342931","0.0-1.0-381.0","0","0","95103","","null","","","null","42","NaN","","","","","","","","","","","","","","",""
"","S2","","html-keyboard-response","283","343183","0.0-1.0-382.0","0","0","95103","","null","","","null","42","","NaN","","","","","","","","","","","","","",""
"","response","","html-keyboard-response","284","343453","0.0-1.0-383.0-0.0","0","0","95103","","269","","","75","42","","","1","42","training","adjacent","GF","7","6","R.jpg","P.jpg","1","0","0","",""
"","feedback","","html-keyboard-response","285","344456","0.0-1.0-384.0-0.0","0","0","95103","","null","","","null","42","","","","","","","","","","","","","","","",""
"","time_out","","html-keyboard-response","286","346458","0.0-1.0-386.0-0.0","0","0","95103","","null","","","null","42","","","","","","","","","","","","","","","",""
"","ITI","","html-keyboard-response","287","347461","0.0-1.0-387.0","0","0","95103","","null","","","null","42","","","","","","","","","","","","","","","NaN",""
"","S1","","html-keyboard-response","288","347713","0.0-1.0-389.0","0","0","95103","","null","","","null","43","","","","","","","","","","","","","","","",""
"","ISI","","html-keyboard-response","289","348714","0.0-1.0-390.0","0","0","95103","","null","","","null","43","NaN","","","","","","","","","","","","","","",""
"","S2","","html-keyboard-response","290","348966","0.0-1.0-391.0","0","0","95103","","null","","","null","43","","NaN","","","","","","","","","","","","","",""
"","response","","html-keyboard-response","291","349157","0.0-1.0-392.0-0.0","0","0","95103","","190","","","68","43","","","1","43","training","adjacent","DE","4","5","M.jpg","L.jpg","0","1","0","",""
"","feedback","","html-keyboard-response","292","350159","0.0-1.0-393.0-0.0","0","0","95103","","null","","","null","43","","","","","","","","","","","","","","","",""
"","time_out","","html-keyboard-response","293","352162","0.0-1.0-395.0-0.0","0","0","95103","","null","","","null","43","","","","","","","","","","","","","","","",""
"","ITI","","html-keyboard-response","294","353165","0.0-1.0-396.0","0","0","95103","","null","","","null","43","","","","","","","","","","","","","","","NaN",""
"","S1","","html-keyboard-response","295","353417","0.0-1.0-398.0","0","0","95103","","null","","","null","44","","","","","","","","","","","","","","","",""
"","ISI","","html-keyboard-response","296","354419","0.0-1.0-399.0","0","0","95103","","null","","","null","44","NaN","","","","","","","","","","","","","","",""
"","S2","","html-keyboard-response","297","354671","0.0-1.0-400.0","0","0","95103","","null","","","null","44","","NaN","","","","","","","","","","","","","",""
"","response","","html-keyboard-response","298","355221","0.0-1.0-401.0-0.0","0","0","95103","","548","","","68","44","","","1","44","training","adjacent","DC","4","3","M.jpg","Q.jpg","0","0","1","",""
"","feedback","","html-keyboard-response","299","356237","0.0-1.0-402.0-0.0","0","0","95103","","null","","","null","44","","","","","","","","","","","","","","","",""
"","ITI","","html-keyboard-response","300","357239","0.0-1.0-405.0","0","0","95103","","null","","","null","44","","","","","","","","","","","","","","","NaN",""
"","S1","","html-keyboard-response","301","357490","0.0-1.0-407.0","0","0","95103","","null","","","null","45","","","","","","","","","","","","","","","",""
"","ISI","","html-keyboard-response","302","358492","0.0-1.0-408.0","0","0","95103","","null","","","null","45","NaN","","","","","","","","","","","","","","",""
"","S2","","html-keyboard-response","303","358744","0.0-1.0-409.0","0","0","95103","","null","","","null","45","","NaN","","","","","","","","","","","","","",""
"","response","","html-keyboard-response","304","359205","0.0-1.0-410.0-0.0","0","0","95103","","459","","","75","45","","","1","45","training","adjacent","AB","1","2","N.jpg","O.jpg","1","1","1","",""
"","feedback","","html-keyboard-response","305","360207","0.0-1.0-411.0-0.0","0","0","95103","","null","","","null","45","","","","","","","","","","","","","","","",""
"","ITI","","html-keyboard-response","306","361209","0.0-1.0-414.0","0","0","95103","","null","","","null","45","","","","","","","","","","","","","","","NaN",""
"","S1","","html-keyboard-response","307","361461","0.0-1.0-416.0","0","0","95103","","null","","","null","46","","","","","","","","","","","","","","","",""
"","ISI","","html-keyboard-response","308","362463","0.0-1.0-417.0","0","0","95103","","null","","","null","46","NaN","","","","","","","","","","","","","","",""
"","S2","","html-keyboard-response","309","362715","0.0-1.0-418.0","0","0","95103","","null","","","null","46","","NaN","","","","","","","","","","","","","",""
"","response","","html-keyboard-response","310","363157","0.0-1.0-419.0-0.0","0","0","95103","","440","","","68","46","","","1","46","training","adjacent","FE","6","5","P.jpg","L.jpg","0","0","1","",""
"","feedback","","html-keyboard-response","311","364159","0.0-1.0-420.0-0.0","0","0","95103","","null","","","null","46","","","","","","","","","","","","","","","",""
"","ITI","","html-keyboard-response","312","365161","0.0-1.0-423.0","0","0","95103","","null","","","null","46","","","","","","","","","","","","","","","NaN",""
"","S1","","html-keyboard-response","313","365413","0.0-1.0-425.0","0","0","95103","","null","","","null","47","","","","","","","","","","","","","","","",""
"","ISI","","html-keyboard-response","314","366416","0.0-1.0-426.0","0","0","95103","","null","","","null","47","NaN","","","","","","","","","","","","","","",""
"","S2","","html-keyboard-response","315","366668","0.0-1.0-427.0","0","0","95103","","null","","","null","47","","NaN","","","","","","","","","","","","","",""
"","response","","html-keyboard-response","316","367381","0.0-1.0-428.0-0.0","0","0","95103","","712","","","68","47","","","1","47","training","adjacent","GF","7","6","R.jpg","P.jpg","0","0","1","",""
"","feedback","","html-keyboard-response","317","368383","0.0-1.0-429.0-0.0","0","0","95103","","null","","","null","47","","","","","","","","","","","","","","","",""
"","ITI","","html-keyboard-response","318","369387","0.0-1.0-432.0","0","0","95103","","null","","","null","47","","","","","","","","","","","","","","","NaN",""
"","block_over","","html-keyboard-response","319","424605","0.0-1.0-433.0-0.0","0","0","95103","","55217","","","32","47","","","","","","","","","","","","","","","",""
"","S1","","html-keyboard-response","320","424857","0.0-1.0-434.0","0","0","95103","","null","","","null","48","","","","","","","","","","","","","","","",""
"","ISI","","html-keyboard-response","321","425859","0.0-1.0-435.0","0","0","95103","","null","","","null","48","NaN","","","","","","","","","","","","","","",""
"","S2","","html-keyboard-response","322","426112","0.0-1.0-436.0","0","0","95103","","null","","","null","48","","NaN","","","","","","","","","","","","","",""
"","response","","html-keyboard-response","323","427204","0.0-1.0-437.0-0.0","0","0","95103","","1090","","","75","48","","","2","48","training","adjacent","DC","4","3","M.jpg","Q.jpg","1","0","0","",""
"","feedback","","html-keyboard-response","324","428206","0.0-1.0-438.0-0.0","0","0","95103","","null","","","null","48","","","","","","","","","","","","","","","",""
"","time_out","","html-keyboard-response","325","430208","0.0-1.0-440.0-0.0","0","0","95103","","null","","","null","48","","","","","","","","","","","","","","","",""
"","ITI","","html-keyboard-response","326","431209","0.0-1.0-441.0","0","0","95103","","null","","","null","48","","","","","","","","","","","","","","","NaN",""
"","S1","","html-keyboard-response","327","431462","0.0-1.0-443.0","0","0","95103","","null","","","null","49","","","","","","","","","","","","","","","",""
"","ISI","","html-keyboard-response","328","432465","0.0-1.0-444.0","0","0","95103","","null","","","null","49","NaN","","","","","","","","","","","","","","",""
"","S2","","html-keyboard-response","329","432717","0.0-1.0-445.0","0","0","95103","","null","","","null","49","","NaN","","","","","","","","","","","","","",""
"","response","","html-keyboard-response","330","433244","0.0-1.0-446.0-0.0","0","0","95103","","525","","","68","49","","","2","49","training","adjacent","ED","5","4","L.jpg","M.jpg","0","0","1","",""
"","feedback","","html-keyboard-response","331","434247","0.0-1.0-447.0-0.0","0","0","95103","","null","","","null","49","","","","","","","","","","","","","","","",""
"","ITI","","html-keyboard-response","332","435249","0.0-1.0-450.0","0","0","95103","","null","","","null","49","","","","","","","","","","","","","","","NaN",""
"","S1","","html-keyboard-response","333","435502","0.0-1.0-452.0","0","0","95103","","null","","","null","50","","","","","","","","","","","","","","","",""
"","ISI","","html-keyboard-response","334","436504","0.0-1.0-453.0","0","0","95103","","null","","","null","50","NaN","","","","","","","","","","","","","","",""
"","S2","","html-keyboard-response","335","436756","0.0-1.0-454.0","0","0","95103","","null","","","null","50","","NaN","","","","","","","","","","","","","",""
"","response","","html-keyboard-response","336","437836","0.0-1.0-455.0-0.0","0","0","95103","","1080","","","75","50","","","2","50","training","adjacent","DC","4","3","M.jpg","Q.jpg","1","0","0","",""
"","feedback","","html-keyboard-response","337","438838","0.0-1.0-456.0-0.0","0","0","95103","","null","","","null","50","","","","","","","","","","","","","","","",""
"","time_out","","html-keyboard-response","338","440841","0.0-1.0-458.0-0.0","0","0","95103","","null","","","null","50","","","","","","","","","","","","","","","",""
"","ITI","","html-keyboard-response","339","441844","0.0-1.0-459.0","0","0","95103","","null","","","null","50","","","","","","","","","","","","","","","NaN",""
"","S1","","html-keyboard-response","340","442095","0.0-1.0-461.0","0","0","95103","","null","","","null","51","","","","","","","","","","","","","","","",""
"","ISI","","html-keyboard-response","341","443098","0.0-1.0-462.0","0","0","95103","","null","","","null","51","NaN","","","","","","","","","","","","","","",""
"","S2","","html-keyboard-response","342","443352","0.0-1.0-463.0","0","0","95103","","null","","","null","51","","NaN","","","","","","","","","","","","","",""
"","response","","html-keyboard-response","343","443637","0.0-1.0-464.0-0.0","0","0","95103","","284","","","68","51","","","2","51","training","adjacent","FE","6","5","P.jpg","L.jpg","0","0","1","",""
"","feedback","","html-keyboard-response","344","444640","0.0-1.0-465.0-0.0","0","0","95103","","null","","","null","51","","","","","","","","","","","","","","","",""
"","ITI","","html-keyboard-response","345","445643","0.0-1.0-468.0","0","0","95103","","null","","","null","51","","","","","","","","","","","","","","","NaN",""
"","S1","","html-keyboard-response","346","445896","0.0-1.0-470.0","0","0","95103","","null","","","null","52","","","","","","","","","","","","","","","",""
"","ISI","","html-keyboard-response","347","446899","0.0-1.0-471.0","0","0","95103","","null","","","null","52","NaN","","","","","","","","","","","","","","",""
"","S2","","html-keyboard-response","348","447151","0.0-1.0-472.0","0","0","95103","","null","","","null","52","","NaN","","","","","","","","","","","","","",""
"","response","","html-keyboard-response","349","447669","0.0-1.0-473.0-0.0","0","0","95103","","516","","","75","52","","","2","52","training","adjacent","CB","3","2","Q.jpg","O.jpg","1","0","0","",""
"","feedback","","html-keyboard-response","350","448672","0.0-1.0-474.0-0.0","0","0","95103","","null","","","null","52","","","","","","","","","","","","","","","",""
"","time_out","","html-keyboard-response","351","450674","0.0-1.0-476.0-0.0","0","0","95103","","null","","","null","52","","","","","","","","","","","","","","","",""
"","ITI","","html-keyboard-response","352","451678","0.0-1.0-477.0","0","0","95103","","null","","","null","52","","","","","","","","","","","","","","","NaN",""
"","S1","","html-keyboard-response","353","451930","0.0-1.0-479.0","0","0","95103","","null","","","null","53","","","","","","","","","","","","","","","",""
"","ISI","","html-keyboard-response","354","452933","0.0-1.0-480.0","0","0","95103","","null","","","null","53","NaN","","","","","","","","","","","","","","",""
"","S2","","html-keyboard-response","355","453185","0.0-1.0-481.0","0","0","95103","","null","","","null","53","","NaN","","","","","","","","","","","","","",""
"","response","","html-keyboard-response","356","453533","0.0-1.0-482.0-0.0","0","0","95103","","347","","","68","53","","","2","53","training","adjacent","EF","5","6","L.jpg","P.jpg","0","1","0","",""
"","feedback","","html-keyboard-response","357","454535","0.0-1.0-483.0-0.0","0","0","95103","","null","","","null","53","","","","","","","","","","","","","","","",""
"","time_out","","html-keyboard-response","358","456537","0.0-1.0-485.0-0.0","0","0","95103","","null","","","null","53","","","","","","","","","","","","","","","",""
"","ITI","","html-keyboard-response","359","457540","0.0-1.0-486.0","0","0","95103","","null","","","null","53","","","","","","","","","","","","","","","NaN",""
"","S1","","html-keyboard-response","360","457791","0.0-1.0-488.0","0","0","95103","","null","","","null","54","","","","","","","","","","","","","","","",""
"","ISI","","html-keyboard-response","361","458793","0.0-1.0-489.0","0","0","95103","","null","","","null","54","NaN","","","","","","","","","","","","","","",""
"","S2","","html-keyboard-response","362","459045","0.0-1.0-490.0","0","0","95103","","null","","","null","54","","NaN","","","","","","","","","","","","","",""
"","response","","html-keyboard-response","363","459252","0.0-1.0-491.0-0.0","0","0","95103","","205","","","68","54","","","2","54","training","adjacent","DE","4","5","M.jpg","L.jpg","0","1","0","",""
"","feedback","","html-keyboard-response","364","460255","0.0-1.0-492.0-0.0","0","0","95103","","null","","","null","54","","","","","","","","","","","","","","","",""
"","time_out","","html-keyboard-response","365","462257","0.0-1.0-494.0-0.0","0","0","95103","","null","","","null","54","","","","","","","","","","","","","","","",""
"","ITI","","html-keyboard-response","366","463260","0.0-1.0-495.0","0","0","95103","","null","","","null","54","","","","","","","","","","","","","","","NaN",""
"","S1","","html-keyboard-response","367","463514","0.0-1.0-497.0","0","0","95103","","null","","","null","55","","","","","","","","","","","","","","","",""
"","ISI","","html-keyboard-response","368","464516","0.0-1.0-498.0","0","0","95103","","null","","","null","55","NaN","","","","","","","","","","","","","","",""
"","S2","","html-keyboard-response","369","464768","0.0-1.0-499.0","0","0","95103","","null","","","null","55","","NaN","","","","","","","","","","","","","",""
"","response","","html-keyboard-response","370","465245","0.0-1.0-500.0-0.0","0","0","95103","","475","","","75","55","","","2","55","training","adjacent","ED","5","4","L.jpg","M.jpg","1","0","0","",""
"","feedback","","html-keyboard-response","371","466247","0.0-1.0-501.0-0.0","0","0","95103","","null","","","null","55","","","","","","","","","","","","","","","",""
"","time_out","","html-keyboard-response","372","468250","0.0-1.0-503.0-0.0","0","0","95103","","null","","","null","55","","","","","","","","","","","","","","","",""
"","ITI","","html-keyboard-response","373","469252","0.0-1.0-504.0","0","0","95103","","null","","","null","55","","","","","","","","","","","","","","","NaN",""
"","S1","","html-keyboard-response","374","469504","0.0-1.0-506.0","0","0","95103","","null","","","null","56","","","","","","","","","","","","","","","",""
"","ISI","","html-keyboard-response","375","470505","0.0-1.0-507.0","0","0","95103","","null","","","null","56","NaN","","","","","","","","","","","","","","",""
"","S2","","html-keyboard-response","376","470758","0.0-1.0-508.0","0","0","95103","","null","","","null","56","","NaN","","","","","","","","","","","","","",""
"","response","","html-keyboard-response","377","470989","0.0-1.0-509.0-0.0","0","0","95103","","229","","","68","56","","","2","56","training","adjacent","BA","2","1","O.jpg","N.jpg","0","0","1","",""
"","feedback","","html-keyboard-response","378","472003","0.0-1.0-510.0-0.0","0","0","95103","","null","","","null","56","","","","","","","","","","","","","","","",""
"","ITI","","html-keyboard-response","379","473005","0.0-1.0-513.0","0","0","95103","","null","","","null","56","","","","","","","","","","","","","","","NaN",""
"","S1","","html-keyboard-response","380","473257","0.0-1.0-515.0","0","0","95103","","null","","","null","57","","","","","","","","","","","","","","","",""
"","ISI","","html-keyboard-response","381","474259","0.0-1.0-516.0","0","0","95103","","null","","","null","57","NaN","","","","","","","","","","","","","","",""
"","S2","","html-keyboard-response","382","474512","0.0-1.0-517.0","0","0","95103","","null","","","null","57","","NaN","","","","","","","","","","","","","",""
"","response","","html-keyboard-response","383","475061","0.0-1.0-518.0-0.0","0","0","95103","","548","","","68","57","","","2","57","training","adjacent","FE","6","5","P.jpg","L.jpg","0","0","1","",""
"","feedback","","html-keyboard-response","384","476063","0.0-1.0-519.0-0.0","0","0","95103","","null","","","null","57","","","","","","","","","","","","","","","",""
"","ITI","","html-keyboard-response","385","477066","0.0-1.0-522.0","0","0","95103","","null","","","null","57","","","","","","","","","","","","","","","NaN",""
"","S1","","html-keyboard-response","386","477317","0.0-1.0-524.0","0","0","95103","","null","","","null","58","","","","","","","","","","","","","","","",""
"","ISI","","html-keyboard-response","387","478320","0.0-1.0-525.0","0","0","95103","","null","","","null","58","NaN","","","","","","","","","","","","","","",""
"","S2","","html-keyboard-response","388","478573","0.0-1.0-526.0","0","0","95103","","null","","","null","58","","NaN","","","","","","","","","","","","","",""
"","response","","html-keyboard-response","389","478900","0.0-1.0-527.0-0.0","0","0","95103","","326","","","68","58","","","2","58","training","adjacent","BA","2","1","O.jpg","N.jpg","0","0","1","",""
"","feedback","","html-keyboard-response","390","479903","0.0-1.0-528.0-0.0","0","0","95103","","null","","","null","58","","","","","","","","","","","","","","","",""
"","ITI","","html-keyboard-response","391","480905","0.0-1.0-531.0","0","0","95103","","null","","","null","58","","","","","","","","","","","","","","","NaN",""
"","S1","","html-keyboard-response","392","481156","0.0-1.0-533.0","0","0","95103","","null","","","null","59","","","","","","","","","","","","","","","",""
"","ISI","","html-keyboard-response","393","482159","0.0-1.0-534.0","0","0","95103","","null","","","null","59","NaN","","","","","","","","","","","","","","",""
"","S2","","html-keyboard-response","394","482411","0.0-1.0-535.0","0","0","95103","","null","","","null","59","","NaN","","","","","","","","","","","","","",""
"","response","","html-keyboard-response","395","482693","0.0-1.0-536.0-0.0","0","0","95103","","281","","","75","59","","","2","59","training","adjacent","DE","4","5","M.jpg","L.jpg","1","1","1","",""
"","feedback","","html-keyboard-response","396","483695","0.0-1.0-537.0-0.0","0","0","95103","","null","","","null","59","","","","","","","","","","","","","","","",""
"","ITI","","html-keyboard-response","397","484698","0.0-1.0-540.0","0","0","95103","","null","","","null","59","","","","","","","","","","","","","","","NaN",""
"","S1","","html-keyboard-response","398","484950","0.0-1.0-542.0","0","0","95103","","null","","","null","60","","","","","","","","","","","","","","","",""
"","ISI","","html-keyboard-response","399","485953","0.0-1.0-543.0","0","0","95103","","null","","","null","60","NaN","","","","","","","","","","","","","","",""
"","S2","","html-keyboard-response","400","486204","0.0-1.0-544.0","0","0","95103","","null","","","null","60","","NaN","","","","","","","","","","","","","",""
"","response","","html-keyboard-response","401","486685","0.0-1.0-545.0-0.0","0","0","95103","","479","","","75","60","","","2","60","training","adjacent","BC","2","3","O.jpg","Q.jpg","1","1","1","",""
"","feedback","","html-keyboard-response","402","487688","0.0-1.0-546.0-0.0","0","0","95103","","null","","","null","60","","","","","","","","","","","","","","","",""
"","ITI","","html-keyboard-response","403","488691","0.0-1.0-549.0","0","0","95103","","null","","","null","60","","","","","","","","","","","","","","","NaN",""
"","S1","","html-keyboard-response","404","488943","0.0-1.0-551.0","0","0","95103","","null","","","null","61","","","","","","","","","","","","","","","",""
"","ISI","","html-keyboard-response","405","489945","0.0-1.0-552.0","0","0","95103","","null","","","null","61","NaN","","","","","","","","","","","","","","",""
"","S2","","html-keyboard-response","406","490197","0.0-1.0-553.0","0","0","95103","","null","","","null","61","","NaN","","","","","","","","","","","","","",""
"","response","","html-keyboard-response","407","490510","0.0-1.0-554.0-0.0","0","0","95103","","312","","","68","61","","","2","61","training","adjacent","AB","1","2","N.jpg","O.jpg","0","1","0","",""
"","feedback","","html-keyboard-response","408","491512","0.0-1.0-555.0-0.0","0","0","95103","","null","","","null","61","","","","","","","","","","","","","","","",""
"","time_out","","html-keyboard-response","409","493514","0.0-1.0-557.0-0.0","0","0","95103","","null","","","null","61","","","","","","","","","","","","","","","",""
"","ITI","","html-keyboard-response","410","494517","0.0-1.0-558.0","0","0","95103","","null","","","null","61","","","","","","","","","","","","","","","NaN",""
"","S1","","html-keyboard-response","411","494769","0.0-1.0-560.0","0","0","95103","","null","","","null","62","","","","","","","","","","","","","","","",""
"","ISI","","html-keyboard-response","412","495771","0.0-1.0-561.0","0","0","95103","","null","","","null","62","NaN","","","","","","","","","","","","","","",""
"","S2","","html-keyboard-response","413","496023","0.0-1.0-562.0","0","0","95103","","null","","","null","62","","NaN","","","","","","","","","","","","","",""
"","response","","html-keyboard-response","414","496365","0.0-1.0-563.0-0.0","0","0","95103","","341","","","75","62","","","2","62","training","adjacent","BA","2","1","O.jpg","N.jpg","1","0","0","",""
"","feedback","","html-keyboard-response","415","497368","0.0-1.0-564.0-0.0","0","0","95103","","null","","","null","62","","","","","","","","","","","","","","","",""
"","time_out","","html-keyboard-response","416","499369","0.0-1.0-566.0-0.0","0","0","95103","","null","","","null","62","","","","","","","","","","","","","","","",""
"","ITI","","html-keyboard-response","417","500372","0.0-1.0-567.0","0","0","95103","","null","","","null","62","","","","","","","","","","","","","","","NaN",""
"","S1","","html-keyboard-response","418","500624","0.0-1.0-569.0","0","0","95103","","null","","","null","63","","","","","","","","","","","","","","","",""
"","ISI","","html-keyboard-response","419","501627","0.0-1.0-570.0","0","0","95103","","null","","","null","63","NaN","","","","","","","","","","","","","","",""
"","S2","","html-keyboard-response","420","501879","0.0-1.0-571.0","0","0","95103","","null","","","null","63","","NaN","","","","","","","","","","","","","",""
"","response","","html-keyboard-response","421","502286","0.0-1.0-572.0-0.0","0","0","95103","","406","","","68","63","","","2","63","training","adjacent","BA","2","1","O.jpg","N.jpg","0","0","1","",""
"","feedback","","html-keyboard-response","422","503288","0.0-1.0-573.0-0.0","0","0","95103","","null","","","null","63","","","","","","","","","","","","","","","",""
"","ITI","","html-keyboard-response","423","504291","0.0-1.0-576.0","0","0","95103","","null","","","null","63","","","","","","","","","","","","","","","NaN",""
"","S1","","html-keyboard-response","424","504544","0.0-1.0-578.0","0","0","95103","","null","","","null","64","","","","","","","","","","","","","","","",""
"","ISI","","html-keyboard-response","425","505545","0.0-1.0-579.0","0","0","95103","","null","","","null","64","NaN","","","","","","","","","","","","","","",""
"","S2","","html-keyboard-response","426","505797","0.0-1.0-580.0","0","0","95103","","null","","","null","64","","NaN","","","","","","","","","","","","","",""
"","response","","html-keyboard-response","427","506181","0.0-1.0-581.0-0.0","0","0","95103","","382","","","68","64","","","2","64","training","adjacent","CD","3","4","Q.jpg","M.jpg","0","1","0","",""
"","feedback","","html-keyboard-response","428","507197","0.0-1.0-582.0-0.0","0","0","95103","","null","","","null","64","","","","","","","","","","","","","","","",""
"","time_out","","html-keyboard-response","429","509199","0.0-1.0-584.0-0.0","0","0","95103","","null","","","null","64","","","","","","","","","","","","","","","",""
"","ITI","","html-keyboard-response","430","510201","0.0-1.0-585.0","0","0","95103","","null","","","null","64","","","","","","","","","","","","","","","NaN",""
"","S1","","html-keyboard-response","431","510453","0.0-1.0-587.0","0","0","95103","","null","","","null","65","","","","","","","","","","","","","","","",""
"","ISI","","html-keyboard-response","432","511455","0.0-1.0-588.0","0","0","95103","","null","","","null","65","NaN","","","","","","","","","","","","","","",""
"","S2","","html-keyboard-response","433","511707","0.0-1.0-589.0","0","0","95103","","null","","","null","65","","NaN","","","","","","","","","","","","","",""
"","response","","html-keyboard-response","434","512037","0.0-1.0-590.0-0.0","0","0","95103","","329","","","75","65","","","2","65","training","adjacent","FE","6","5","P.jpg","L.jpg","1","0","0","",""
"","feedback","","html-keyboard-response","435","513039","0.0-1.0-591.0-0.0","0","0","95103","","null","","","null","65","","","","","","","","","","","","","","","",""
"","time_out","","html-keyboard-response","436","515040","0.0-1.0-593.0-0.0","0","0","95103","","null","","","null","65","","","","","","","","","","","","","","","",""
"","ITI","","html-keyboard-response","437","516042","0.0-1.0-594.0","0","0","95103","","null","","","null","65","","","","","","","","","","","","","","","NaN",""
"","S1","","html-keyboard-response","438","516294","0.0-1.0-596.0","0","0","95103","","null","","","null","66","","","","","","","","","","","","","","","",""
"","ISI","","html-keyboard-response","439","517296","0.0-1.0-597.0","0","0","95103","","null","","","null","66","NaN","","","","","","","","","","","","","","",""
"","S2","","html-keyboard-response","440","517549","0.0-1.0-598.0","0","0","95103","","null","","","null","66","","NaN","","","","","","","","","","","","","",""
"","response","","html-keyboard-response","441","517694","0.0-1.0-599.0-0.0","0","0","95103","","144","","","75","66","","","2","66","training","adjacent","CD","3","4","Q.jpg","M.jpg","1","1","1","",""
"","feedback","","html-keyboard-response","442","518696","0.0-1.0-600.0-0.0","0","0","95103","","null","","","null","66","","","","","","","","","","","","","","","",""
"","ITI","","html-keyboard-response","443","519698","0.0-1.0-603.0","0","0","95103","","null","","","null","66","","","","","","","","","","","","","","","NaN",""
"","S1","","html-keyboard-response","444","519951","0.0-1.0-605.0","0","0","95103","","null","","","null","67","","","","","","","","","","","","","","","",""
"","ISI","","html-keyboard-response","445","520953","0.0-1.0-606.0","0","0","95103","","null","","","null","67","NaN","","","","","","","","","","","","","","",""
"","S2","","html-keyboard-response","446","521205","0.0-1.0-607.0","0","0","95103","","null","","","null","67","","NaN","","","","","","","","","","","","","",""
"","response","","html-keyboard-response","447","521621","0.0-1.0-608.0-0.0","0","0","95103","","415","","","68","67","","","2","67","training","adjacent","FG","6","7","P.jpg","R.jpg","0","1","0","",""
"","feedback","","html-keyboard-response","448","522623","0.0-1.0-609.0-0.0","0","0","95103","","null","","","null","67","","","","","","","","","","","","","","","",""
"","time_out","","html-keyboard-response","449","524626","0.0-1.0-611.0-0.0","0","0","95103","","null","","","null","67","","","","","","","","","","","","","","","",""
"","ITI","","html-keyboard-response","450","525629","0.0-1.0-612.0","0","0","95103","","null","","","null","67","","","","","","","","","","","","","","","NaN",""
"","S1","","html-keyboard-response","451","525881","0.0-1.0-614.0","0","0","95103","","null","","","null","68","","","","","","","","","","","","","","","",""
"","ISI","","html-keyboard-response","452","526883","0.0-1.0-615.0","0","0","95103","","null","","","null","68","NaN","","","","","","","","","","","","","","",""
"","S2","","html-keyboard-response","453","527137","0.0-1.0-616.0","0","0","95103","","null","","","null","68","","NaN","","","","","","","","","","","","","",""
"","response","","html-keyboard-response","454","527389","0.0-1.0-617.0-0.0","0","0","95103","","250","","","75","68","","","2","68","training","adjacent","DE","4","5","M.jpg","L.jpg","1","1","1","",""
"","feedback","","html-keyboard-response","455","528392","0.0-1.0-618.0-0.0","0","0","95103","","null","","","null","68","","","","","","","","","","","","","","","",""
"","ITI","","html-keyboard-response","456","529393","0.0-1.0-621.0","0","0","95103","","null","","","null","68","","","","","","","","","","","","","","","NaN",""
"","S1","","html-keyboard-response","457","529645","0.0-1.0-623.0","0","0","95103","","null","","","null","69","","","","","","","","","","","","","","","",""
"","ISI","","html-keyboard-response","458","530648","0.0-1.0-624.0","0","0","95103","","null","","","null","69","NaN","","","","","","","","","","","","","","",""
"","S2","","html-keyboard-response","459","530901","0.0-1.0-625.0","0","0","95103","","null","","","null","69","","NaN","","","","","","","","","","","","","",""
"","response","","html-keyboard-response","460","531389","0.0-1.0-626.0-0.0","0","0","95103","","487","","","75","69","","","2","69","training","adjacent","CB","3","2","Q.jpg","O.jpg","1","0","0","",""
"","feedback","","html-keyboard-response","461","532392","0.0-1.0-627.0-0.0","0","0","95103","","null","","","null","69","","","","","","","","","","","","","","","",""
"","time_out","","html-keyboard-response","462","534394","0.0-1.0-629.0-0.0","0","0","95103","","null","","","null","69","","","","","","","","","","","","","","","",""
"","ITI","","html-keyboard-response","463","535397","0.0-1.0-630.0","0","0","95103","","null","","","null","69","","","","","","","","","","","","","","","NaN",""
"","S1","","html-keyboard-response","464","535649","0.0-1.0-632.0","0","0","95103","","null","","","null","70","","","","","","","","","","","","","","","",""
"","ISI","","html-keyboard-response","465","536662","0.0-1.0-633.0","0","0","95103","","null","","","null","70","NaN","","","","","","","","","","","","","","",""
"","S2","","html-keyboard-response","466","536914","0.0-1.0-634.0","0","0","95103","","null","","","null","70","","NaN","","","","","","","","","","","","","",""
"","response","","html-keyboard-response","467","537276","0.0-1.0-635.0-0.0","0","0","95103","","361","","","75","70","","","2","70","training","adjacent","GF","7","6","R.jpg","P.jpg","1","0","0","",""
"","feedback","","html-keyboard-response","468","538279","0.0-1.0-636.0-0.0","0","0","95103","","null","","","null","70","","","","","","","","","","","","","","","",""
"","time_out","","html-keyboard-response","469","540281","0.0-1.0-638.0-0.0","0","0","95103","","null","","","null","70","","","","","","","","","","","","","","","",""
"","ITI","","html-keyboard-response","470","541284","0.0-1.0-639.0","0","0","95103","","null","","","null","70","","","","","","","","","","","","","","","NaN",""
"","S1","","html-keyboard-response","471","541536","0.0-1.0-641.0","0","0","95103","","null","","","null","71","","","","","","","","","","","","","","","",""
"","ISI","","html-keyboard-response","472","542538","0.0-1.0-642.0","0","0","95103","","null","","","null","71","NaN","","","","","","","","","","","","","","",""
"","S2","","html-keyboard-response","473","542790","0.0-1.0-643.0","0","0","95103","","null","","","null","71","","NaN","","","","","","","","","","","","","",""
"","response","","html-keyboard-response","474","542949","0.0-1.0-644.0-0.0","0","0","95103","","158","","","68","71","","","2","71","training","adjacent","GF","7","6","R.jpg","P.jpg","0","0","1","",""
"","feedback","","html-keyboard-response","475","543952","0.0-1.0-645.0-0.0","0","0","95103","","null","","","null","71","","","","","","","","","","","","","","","",""
"","ITI","","html-keyboard-response","476","544955","0.0-1.0-648.0","0","0","95103","","null","","","null","71","","","","","","","","","","","","","","","NaN",""
"","S1","","html-keyboard-response","477","545207","0.0-1.0-650.0","0","0","95103","","null","","","null","72","","","","","","","","","","","","","","","",""
"","ISI","","html-keyboard-response","478","546210","0.0-1.0-651.0","0","0","95103","","null","","","null","72","NaN","","","","","","","","","","","","","","",""
"","S2","","html-keyboard-response","479","546462","0.0-1.0-652.0","0","0","95103","","null","","","null","72","","NaN","","","","","","","","","","","","","",""
"","response","","html-keyboard-response","480","547045","0.0-1.0-653.0-0.0","0","0","95103","","581","","","68","72","","","2","72","training","adjacent","DC","4","3","M.jpg","Q.jpg","0","0","1","",""
"","feedback","","html-keyboard-response","481","548046","0.0-1.0-654.0-0.0","0","0","95103","","null","","","null","72","","","","","","","","","","","","","","","",""
"","ITI","","html-keyboard-response","482","549048","0.0-1.0-657.0","0","0","95103","","null","","","null","72","","","","","","","","","","","","","","","NaN",""
"","S1","","html-keyboard-response","483","549301","0.0-1.0-659.0","0","0","95103","","null","","","null","73","","","","","","","","","","","","","","","",""
"","ISI","","html-keyboard-response","484","550304","0.0-1.0-660.0","0","0","95103","","null","","","null","73","NaN","","","","","","","","","","","","","","",""
"","S2","","html-keyboard-response","485","550556","0.0-1.0-661.0","0","0","95103","","null","","","null","73","","NaN","","","","","","","","","","","","","",""
"","response","","html-keyboard-response","486","551438","0.0-1.0-662.0-0.0","0","0","95103","","880","","","68","73","","","2","73","training","adjacent","ED","5","4","L.jpg","M.jpg","0","0","1","",""
"","feedback","","html-keyboard-response","487","552440","0.0-1.0-663.0-0.0","0","0","95103","","null","","","null","73","","","","","","","","","","","","","","","",""
"","ITI","","html-keyboard-response","488","553442","0.0-1.0-666.0","0","0","95103","","null","","","null","73","","","","","","","","","","","","","","","NaN",""
"","S1","","html-keyboard-response","489","553694","0.0-1.0-668.0","0","0","95103","","null","","","null","74","","","","","","","","","","","","","","","",""
"","ISI","","html-keyboard-response","490","554708","0.0-1.0-669.0","0","0","95103","","null","","","null","74","NaN","","","","","","","","","","","","","","",""
"","S2","","html-keyboard-response","491","554961","0.0-1.0-670.0","0","0","95103","","null","","","null","74","","NaN","","","","","","","","","","","","","",""
"","response","","html-keyboard-response","492","555381","0.0-1.0-671.0-0.0","0","0","95103","","419","","","68","74","","","2","74","training","adjacent","DE","4","5","M.jpg","L.jpg","0","1","0","",""
"","feedback","","html-keyboard-response","493","556384","0.0-1.0-672.0-0.0","0","0","95103","","null","","","null","74","","","","","","","","","","","","","","","",""
"","time_out","","html-keyboard-response","494","558386","0.0-1.0-674.0-0.0","0","0","95103","","null","","","null","74","","","","","","","","","","","","","","","",""
"","ITI","","html-keyboard-response","495","559389","0.0-1.0-675.0","0","0","95103","","null","","","null","74","","","","","","","","","","","","","","","NaN",""
"","S1","","html-keyboard-response","496","559641","0.0-1.0-677.0","0","0","95103","","null","","","null","75","","","","","","","","","","","","","","","",""
"","ISI","","html-keyboard-response","497","560642","0.0-1.0-678.0","0","0","95103","","null","","","null","75","NaN","","","","","","","","","","","","","","",""
"","S2","","html-keyboard-response","498","560894","0.0-1.0-679.0","0","0","95103","","null","","","null","75","","NaN","","","","","","","","","","","","","",""
"","response","","html-keyboard-response","499","561453","0.0-1.0-680.0-0.0","0","0","95103","","558","","","75","75","","","2","75","training","adjacent","EF","5","6","L.jpg","P.jpg","1","1","1","",""
"","feedback","","html-keyboard-response","500","562456","0.0-1.0-681.0-0.0","0","0","95103","","null","","","null","75","","","","","","","","","","","","","","","",""
"","ITI","","html-keyboard-response","501","563458","0.0-1.0-684.0","0","0","95103","","null","","","null","75","","","","","","","","","","","","","","","NaN",""
"","S1","","html-keyboard-response","502","563711","0.0-1.0-686.0","0","0","95103","","null","","","null","76","","","","","","","","","","","","","","","",""
"","ISI","","html-keyboard-response","503","564713","0.0-1.0-687.0","0","0","95103","","null","","","null","76","NaN","","","","","","","","","","","","","","",""
"","S2","","html-keyboard-response","504","564965","0.0-1.0-688.0","0","0","95103","","null","","","null","76","","NaN","","","","","","","","","","","","","",""
"","response","","html-keyboard-response","505","565413","0.0-1.0-689.0-0.0","0","0","95103","","447","","","75","76","","","2","76","training","adjacent","AB","1","2","N.jpg","O.jpg","1","1","1","",""
"","feedback","","html-keyboard-response","506","566415","0.0-1.0-690.0-0.0","0","0","95103","","null","","","null","76","","","","","","","","","","","","","","","",""
"","ITI","","html-keyboard-response","507","567418","0.0-1.0-693.0","0","0","95103","","null","","","null","76","","","","","","","","","","","","","","","NaN",""
"","S1","","html-keyboard-response","508","567670","0.0-1.0-695.0","0","0","95103","","null","","","null","77","","","","","","","","","","","","","","","",""
"","ISI","","html-keyboard-response","509","568672","0.0-1.0-696.0","0","0","95103","","null","","","null","77","NaN","","","","","","","","","","","","","","",""
"","S2","","html-keyboard-response","510","568925","0.0-1.0-697.0","0","0","95103","","null","","","null","77","","NaN","","","","","","","","","","","","","",""
"","response","","html-keyboard-response","511","569534","0.0-1.0-698.0-0.0","0","0","95103","","608","","","68","77","","","2","77","training","adjacent","CD","3","4","Q.jpg","M.jpg","0","1","0","",""
"","feedback","","html-keyboard-response","512","570536","0.0-1.0-699.0-0.0","0","0","95103","","null","","","null","77","","","","","","","","","","","","","","","",""
"","time_out","","html-keyboard-response","513","572538","0.0-1.0-701.0-0.0","0","0","95103","","null","","","null","77","","","","","","","","","","","","","","","",""
"","ITI","","html-keyboard-response","514","573541","0.0-1.0-702.0","0","0","95103","","null","","","null","77","","","","","","","","","","","","","","","NaN",""
"","S1","","html-keyboard-response","515","573793","0.0-1.0-704.0","0","0","95103","","null","","","null","78","","","","","","","","","","","","","","","",""
"","ISI","","html-keyboard-response","516","574795","0.0-1.0-705.0","0","0","95103","","null","","","null","78","NaN","","","","","","","","","","","","","","",""
"","S2","","html-keyboard-response","517","575046","0.0-1.0-706.0","0","0","95103","","null","","","null","78","","NaN","","","","","","","","","","","","","",""
"","response","","html-keyboard-response","518","575405","0.0-1.0-707.0-0.0","0","0","95103","","358","","","68","78","","","2","78","training","adjacent","CB","3","2","Q.jpg","O.jpg","0","0","1","",""
"","feedback","","html-keyboard-response","519","576408","0.0-1.0-708.0-0.0","0","0","95103","","null","","","null","78","","","","","","","","","","","","","","","",""
"","ITI","","html-keyboard-response","520","577411","0.0-1.0-711.0","0","0","95103","","null","","","null","78","","","","","","","","","","","","","","","NaN",""
"","S1","","html-keyboard-response","521","577663","0.0-1.0-713.0","0","0","95103","","null","","","null","79","","","","","","","","","","","","","","","",""
"","ISI","","html-keyboard-response","522","578665","0.0-1.0-714.0","0","0","95103","","null","","","null","79","NaN","","","","","","","","","","","","","","",""
"","S2","","html-keyboard-response","523","578917","0.0-1.0-715.0","0","0","95103","","null","","","null","79","","NaN","","","","","","","","","","","","","",""
"","response","","html-keyboard-response","524","579406","0.0-1.0-716.0-0.0","0","0","95103","","487","","","75","79","","","2","79","training","adjacent","GF","7","6","R.jpg","P.jpg","1","0","0","",""
"","feedback","","html-keyboard-response","525","580410","0.0-1.0-717.0-0.0","0","0","95103","","null","","","null","79","","","","","","","","","","","","","","","",""
"","time_out","","html-keyboard-response","526","582413","0.0-1.0-719.0-0.0","0","0","95103","","null","","","null","79","","","","","","","","","","","","","","","",""
"","ITI","","html-keyboard-response","527","583415","0.0-1.0-720.0","0","0","95103","","null","","","null","79","","","","","","","","","","","","","","","NaN",""
"","S1","","html-keyboard-response","528","583668","0.0-1.0-722.0","0","0","95103","","null","","","null","80","","","","","","","","","","","","","","","",""
"","ISI","","html-keyboard-response","529","584671","0.0-1.0-723.0","0","0","95103","","null","","","null","80","NaN","","","","","","","","","","","","","","",""
"","S2","","html-keyboard-response","530","584923","0.0-1.0-724.0","0","0","95103","","null","","","null","80","","NaN","","","","","","","","","","","","","",""
"","response","","html-keyboard-response","531","585085","0.0-1.0-725.0-0.0","0","0","95103","","161","","","75","80","","","2","80","training","adjacent","CD","3","4","Q.jpg","M.jpg","1","1","1","",""
"","feedback","","html-keyboard-response","532","586087","0.0-1.0-726.0-0.0","0","0","95103","","null","","","null","80","","","","","","","","","","","","","","","",""
"","ITI","","html-keyboard-response","533","587090","0.0-1.0-729.0","0","0","95103","","null","","","null","80","","","","","","","","","","","","","","","NaN",""
"","S1","","html-keyboard-response","534","587342","0.0-1.0-731.0","0","0","95103","","null","","","null","81","","","","","","","","","","","","","","","",""
"","ISI","","html-keyboard-response","535","588345","0.0-1.0-732.0","0","0","95103","","null","","","null","81","NaN","","","","","","","","","","","","","","",""
"","S2","","html-keyboard-response","536","588596","0.0-1.0-733.0","0","0","95103","","null","","","null","81","","NaN","","","","","","","","","","","","","",""
"","response","","html-keyboard-response","537","589293","0.0-1.0-734.0-0.0","0","0","95103","","696","","","68","81","","","2","81","training","adjacent","EF","5","6","L.jpg","P.jpg","0","1","0","",""
"","feedback","","html-keyboard-response","538","590295","0.0-1.0-735.0-0.0","0","0","95103","","null","","","null","81","","","","","","","","","","","","","","","",""
"","time_out","","html-keyboard-response","539","592296","0.0-1.0-737.0-0.0","0","0","95103","","null","","","null","81","","","","","","","","","","","","","","","",""
"","ITI","","html-keyboard-response","540","593299","0.0-1.0-738.0","0","0","95103","","null","","","null","81","","","","","","","","","","","","","","","NaN",""
"","S1","","html-keyboard-response","541","593551","0.0-1.0-740.0","0","0","95103","","null","","","null","82","","","","","","","","","","","","","","","",""
"","ISI","","html-keyboard-response","542","594553","0.0-1.0-741.0","0","0","95103","","null","","","null","82","NaN","","","","","","","","","","","","","","",""
"","S2","","html-keyboard-response","543","594806","0.0-1.0-742.0","0","0","95103","","null","","","null","82","","NaN","","","","","","","","","","","","","",""
"","response","","html-keyboard-response","544","595053","0.0-1.0-743.0-0.0","0","0","95103","","245","","","75","82","","","2","82","training","adjacent","AB","1","2","N.jpg","O.jpg","1","1","1","",""
"","feedback","","html-keyboard-response","545","596055","0.0-1.0-744.0-0.0","0","0","95103","","null","","","null","82","","","","","","","","","","","","","","","",""
"","ITI","","html-keyboard-response","546","597066","0.0-1.0-747.0","0","0","95103","","null","","","null","82","","","","","","","","","","","","","","","NaN",""
"","S1","","html-keyboard-response","547","597318","0.0-1.0-749.0","0","0","95103","","null","","","null","83","","","","","","","","","","","","","","","",""
"","ISI","","html-keyboard-response","548","598320","0.0-1.0-750.0","0","0","95103","","null","","","null","83","NaN","","","","","","","","","","","","","","",""
"","S2","","html-keyboard-response","549","598573","0.0-1.0-751.0","0","0","95103","","null","","","null","83","","NaN","","","","","","","","","","","","","",""
"","response","","html-keyboard-response","550","598869","0.0-1.0-752.0-0.0","0","0","95103","","295","","","75","83","","","2","83","training","adjacent","FG","6","7","P.jpg","R.jpg","1","1","1","",""
"","feedback","","html-keyboard-response","551","599871","0.0-1.0-753.0-0.0","0","0","95103","","null","","","null","83","","","","","","","","","","","","","","","",""
"","ITI","","html-keyboard-response","552","600874","0.0-1.0-756.0","0","0","95103","","null","","","null","83","","","","","","","","","","","","","","","NaN",""
"","S1","","html-keyboard-response","553","601127","0.0-1.0-758.0","0","0","95103","","null","","","null","84","","","","","","","","","","","","","","","",""
"","ISI","","html-keyboard-response","554","602130","0.0-1.0-759.0","0","0","95103","","null","","","null","84","NaN","","","","","","","","","","","","","","",""
"","S2","","html-keyboard-response","555","602383","0.0-1.0-760.0","0","0","95103","","null","","","null","84","","NaN","","","","","","","","","","","","","",""
"","response","","html-keyboard-response","556","602798","0.0-1.0-761.0-0.0","0","0","95103","","414","","","75","84","","","2","84","training","adjacent","FG","6","7","P.jpg","R.jpg","1","1","1","",""
"","feedback","","html-keyboard-response","557","603801","0.0-1.0-762.0-0.0","0","0","95103","","null","","","null","84","","","","","","","","","","","","","","","",""
"","ITI","","html-keyboard-response","558","604805","0.0-1.0-765.0","0","0","95103","","null","","","null","84","","","","","","","","","","","","","","","NaN",""
"","S1","","html-keyboard-response","559","605056","0.0-1.0-767.0","0","0","95103","","null","","","null","85","","","","","","","","","","","","","","","",""
"","ISI","","html-keyboard-response","560","606059","0.0-1.0-768.0","0","0","95103","","null","","","null","85","NaN","","","","","","","","","","","","","","",""
"","S2","","html-keyboard-response","561","606312","0.0-1.0-769.0","0","0","95103","","null","","","null","85","","NaN","","","","","","","","","","","","","",""
"","response","","html-keyboard-response","562","607077","0.0-1.0-770.0-0.0","0","0","95103","","764","","","68","85","","","2","85","training","adjacent","CB","3","2","Q.jpg","O.jpg","0","0","1","",""
"","feedback","","html-keyboard-response","563","608080","0.0-1.0-771.0-0.0","0","0","95103","","null","","","null","85","","","","","","","","","","","","","","","",""
"","ITI","","html-keyboard-response","564","609082","0.0-1.0-774.0","0","0","95103","","null","","","null","85","","","","","","","","","","","","","","","NaN",""
"","S1","","html-keyboard-response","565","609335","0.0-1.0-776.0","0","0","95103","","null","","","null","86","","","","","","","","","","","","","","","",""
"","ISI","","html-keyboard-response","566","610337","0.0-1.0-777.0","0","0","95103","","null","","","null","86","NaN","","","","","","","","","","","","","","",""
"","S2","","html-keyboard-response","567","610588","0.0-1.0-778.0","0","0","95103","","null","","","null","86","","NaN","","","","","","","","","","","","","",""
"","response","","html-keyboard-response","568","611126","0.0-1.0-779.0-0.0","0","0","95103","","535","","","68","86","","","2","86","training","adjacent","EF","5","6","L.jpg","P.jpg","0","1","0","",""
"","feedback","","html-keyboard-response","569","612128","0.0-1.0-780.0-0.0","0","0","95103","","null","","","null","86","","","","","","","","","","","","","","","",""
"","time_out","","html-keyboard-response","570","614130","0.0-1.0-782.0-0.0","0","0","95103","","null","","","null","86","","","","","","","","","","","","","","","",""
"","ITI","","html-keyboard-response","571","615133","0.0-1.0-783.0","0","0","95103","","null","","","null","86","","","","","","","","","","","","","","","NaN",""
"","S1","","html-keyboard-response","572","615385","0.0-1.0-785.0","0","0","95103","","null","","","null","87","","","","","","","","","","","","","","","",""
"","ISI","","html-keyboard-response","573","616388","0.0-1.0-786.0","0","0","95103","","null","","","null","87","NaN","","","","","","","","","","","","","","",""
"","S2","","html-keyboard-response","574","616641","0.0-1.0-787.0","0","0","95103","","null","","","null","87","","NaN","","","","","","","","","","","","","",""
"","response","","html-keyboard-response","575","616830","0.0-1.0-788.0-0.0","0","0","95103","","188","","","75","87","","","2","87","training","adjacent","DC","4","3","M.jpg","Q.jpg","1","0","0","",""
"","feedback","","html-keyboard-response","576","617832","0.0-1.0-789.0-0.0","0","0","95103","","null","","","null","87","","","","","","","","","","","","","","","",""
"","time_out","","html-keyboard-response","577","619834","0.0-1.0-791.0-0.0","0","0","95103","","null","","","null","87","","","","","","","","","","","","","","","",""
"","ITI","","html-keyboard-response","578","620837","0.0-1.0-792.0","0","0","95103","","null","","","null","87","","","","","","","","","","","","","","","NaN",""
"","S1","","html-keyboard-response","579","621088","0.0-1.0-794.0","0","0","95103","","null","","","null","88","","","","","","","","","","","","","","","",""
"","ISI","","html-keyboard-response","580","622091","0.0-1.0-795.0","0","0","95103","","null","","","null","88","NaN","","","","","","","","","","","","","","",""
