"success","ttype","start_time","trial_type","trial_index","time_elapsed","internal_node_id","warning","missed_checkup","PID","view_history","rt","responses","repeat_instructions","key_press","index","keypress_isi","keypress_S2","block","trial_num","phase","group_type","pair_type","S1_stim","S2_stim","S1_img","S2_img","S1_chosen","S1_higher","accuracy","keypress_iti","total_bonus_tally"
"true","full_screen","d03082023hr1513","fullscreen","0","31151","0.0-0.0","0","0","19035","","","","","","","","","","","","","","","","","","","","","",""
"","instructions","","instructions","1","81782","0.0-1.0-0.0-0.0","0","0","19035","[{""page_index"":0,""viewing_time"":4469},{""page_index"":1,""viewing_time"":31534},{""page_index"":2,""viewing_time"":10991},{""page_index"":3,""viewing_time"":3634}]","50629","","","","","","","","","","","","","","","","","","","",""
"","comprehension_check","","survey-multi-choice","2","116263","0.0-1.0-0.0-1.0","0","0","19035","","34476","{""Q0"":""True"",""Q1"":""D"",""Q2"":""Only when the screen 'MAKE A CHOICE' is shown"",""Q3"":""Green mark"",""Q4"":""either D or K""}","1","","","","","","","","","","","","","","","","","",""
"","missed_instruction_checkup","","html-keyboard-response","3","118089","0.0-1.0-0.0-2.0-0.0","0","1","19035","","1823","","","32","","","","","","","","","","","","","","","","",""
"","instructions","","instructions","4","134184","0.0-1.0-0.1-0.1","0","0","19035","[{""page_index"":0,""viewing_time"":1760},{""page_index"":1,""viewing_time"":5007},{""page_index"":2,""viewing_time"":1901},{""page_index"":1,""viewing_time"":4613},{""page_index"":2,""viewing_time"":1698},{""page_index"":3,""viewing_time"":1114}]","16093","","","","","","","","","","","","","","","","","","","",""
"","comprehension_check","","survey-multi-choice","5","145603","0.0-1.0-0.1-1.1","0","0","19035","","11415","{""Q0"":""True"",""Q1"":""K"",""Q2"":""Once the second image appears and while the screen 'MAKE A CHOICE' is shown"",""Q3"":""Green mark"",""Q4"":""either D or K""}","0","","","","","","","","","","","","","","","","","",""
"","start_exp","","html-keyboard-response","6","148407","0.0-1.0-1.0","0","0","19035","","2802","","","32","","","","","","","","","","","","","","","","",""
"","S1","","html-keyboard-response","7","148664","0.0-1.0-2.0","0","0","19035","","null","","","null","0","","","","","","","","","","","","","","","",""
"","ISI","","html-keyboard-response","8","148826","0.0-1.0-3.0","0","0","19035","","null","","","null","0","NaN","","","","","","","","","","","","","","",""
"","S2","","html-keyboard-response","9","149082","0.0-1.0-4.0","0","0","19035","","null","","","null","0","","NaN","","","","","","","","","","","","","",""
"","response","","html-keyboard-response","10","149937","0.0-1.0-5.0-0.0","0","0","19035","","854","","","75","0","","","1","0","training","adjacent","BC","2","3","L.jpg","Q.jpg","1","1","1","",""
"","feedback","","html-keyboard-response","11","150948","0.0-1.0-6.0-0.0","0","0","19035","","null","","","null","0","","","","","","","","","","","","","","","",""
"","ITI","","html-keyboard-response","12","151955","0.0-1.0-9.0","0","0","19035","","null","","","null","0","","","","","","","","","","","","","","","NaN",""
"","S1","","html-keyboard-response","13","152211","0.0-1.0-11.0","0","0","19035","","null","","","null","1","","","","","","","","","","","","","","","",""
"","ISI","","html-keyboard-response","14","152370","0.0-1.0-12.0","0","0","19035","","null","","","null","1","NaN","","","","","","","","","","","","","","",""
"","S2","","html-keyboard-response","15","152626","0.0-1.0-13.0","0","0","19035","","null","","","null","1","","NaN","","","","","","","","","","","","","",""
"","response","","html-keyboard-response","16","153492","0.0-1.0-14.0-0.0","0","0","19035","","865","","","68","1","","","1","1","training","adjacent","EF","5","6","P.jpg","O.jpg","0","1","0","",""
"","feedback","","html-keyboard-response","17","154498","0.0-1.0-15.0-0.0","0","0","19035","","null","","","null","1","","","","","","","","","","","","","","","",""
"","time_out","","html-keyboard-response","18","156506","0.0-1.0-17.0-0.0","0","0","19035","","null","","","null","1","","","","","","","","","","","","","","","",""
"","ITI","","html-keyboard-response","19","157513","0.0-1.0-18.0","0","0","19035","","null","","","null","1","","","","","","","","","","","","","","","NaN",""
"","S1","","html-keyboard-response","20","157772","0.0-1.0-20.0","0","0","19035","","null","","","null","2","","","","","","","","","","","","","","","",""
"","ISI","","html-keyboard-response","21","157931","0.0-1.0-21.0","0","0","19035","","null","","","null","2","NaN","","","","","","","","","","","","","","",""
"","S2","","html-keyboard-response","22","158187","0.0-1.0-22.0","0","0","19035","","null","","","null","2","","NaN","","","","","","","","","","","","","",""
"","response","","html-keyboard-response","23","158757","0.0-1.0-23.0-0.0","0","0","19035","","569","","","75","2","","","1","2","training","adjacent","CB","3","2","Q.jpg","L.jpg","1","0","0","",""
"","feedback","","html-keyboard-response","24","159763","0.0-1.0-24.0-0.0","0","0","19035","","null","","","null","2","","","","","","","","","","","","","","","",""
"","time_out","","html-keyboard-response","25","161771","0.0-1.0-26.0-0.0","0","0","19035","","null","","","null","2","","","","","","","","","","","","","","","",""
"","ITI","","html-keyboard-response","26","162778","0.0-1.0-27.0","0","0","19035","","null","","","null","2","","","","","","","","","","","","","","","NaN",""
"","S1","","html-keyboard-response","27","163033","0.0-1.0-29.0","0","0","19035","","null","","","null","3","","","","","","","","","","","","","","","",""
"","ISI","","html-keyboard-response","28","163193","0.0-1.0-30.0","0","0","19035","","null","","","null","3","NaN","","","","","","","","","","","","","","",""
"","S2","","html-keyboard-response","29","163452","0.0-1.0-31.0","0","0","19035","","null","","","null","3","","NaN","","","","","","","","","","","","","",""
"","response","","html-keyboard-response","30","164135","0.0-1.0-32.0-0.0","0","0","19035","","682","","","68","3","","","1","3","training","adjacent","GF","7","6","M.jpg","O.jpg","0","0","1","",""
"","feedback","","html-keyboard-response","31","165138","0.0-1.0-33.0-0.0","0","0","19035","","null","","","null","3","","","","","","","","","","","","","","","",""
"","ITI","","html-keyboard-response","32","166145","0.0-1.0-36.0","0","0","19035","","null","","","null","3","","","","","","","","","","","","","","","NaN",""
"","S1","","html-keyboard-response","33","166403","0.0-1.0-38.0","0","0","19035","","null","","","null","4","","","","","","","","","","","","","","","",""
"","ISI","","html-keyboard-response","34","166563","0.0-1.0-39.0","0","0","19035","","null","","","null","4","NaN","","","","","","","","","","","","","","",""
"","S2","","html-keyboard-response","35","166818","0.0-1.0-40.0","0","0","19035","","null","","","null","4","","NaN","","","","","","","","","","","","","",""
"","response","","html-keyboard-response","36","167307","0.0-1.0-41.0-0.0","0","0","19035","","487","","","75","4","","","1","4","training","adjacent","DE","4","5","N.jpg","P.jpg","1","1","1","",""
"","feedback","","html-keyboard-response","37","168313","0.0-1.0-42.0-0.0","0","0","19035","","null","","","null","4","","","","","","","","","","","","","","","",""
"","ITI","","html-keyboard-response","38","169323","0.0-1.0-45.0","0","0","19035","","null","","","null","4","","","","","","","","","","","","","","","NaN",""
"","S1","","html-keyboard-response","39","169587","0.0-1.0-47.0","0","0","19035","","null","","","null","5","","","","","","","","","","","","","","","",""
"","ISI","","html-keyboard-response","40","169747","0.0-1.0-48.0","0","0","19035","","null","","","null","5","NaN","","","","","","","","","","","","","","",""
"","S2","","html-keyboard-response","41","170004","0.0-1.0-49.0","0","0","19035","","null","","","null","5","","NaN","","","","","","","","","","","","","",""
"","response","","html-keyboard-response","42","170581","0.0-1.0-50.0-0.0","0","0","19035","","576","","","75","5","","","1","5","training","adjacent","EF","5","6","P.jpg","O.jpg","1","1","1","",""
"","feedback","","html-keyboard-response","43","171587","0.0-1.0-51.0-0.0","0","0","19035","","null","","","null","5","","","","","","","","","","","","","","","",""
"","ITI","","html-keyboard-response","44","172594","0.0-1.0-54.0","0","0","19035","","null","","","null","5","","","","","","","","","","","","","","","NaN",""
"","S1","","html-keyboard-response","45","172849","0.0-1.0-56.0","0","0","19035","","null","","","null","6","","","","","","","","","","","","","","","",""
"","ISI","","html-keyboard-response","46","173009","0.0-1.0-57.0","0","0","19035","","null","","","null","6","NaN","","","","","","","","","","","","","","",""
"","S2","","html-keyboard-response","47","173268","0.0-1.0-58.0","0","0","19035","","null","","","null","6","","NaN","","","","","","","","","","","","","",""
"","response","","html-keyboard-response","48","173675","0.0-1.0-59.0-0.0","0","0","19035","","406","","","68","6","","","1","6","training","adjacent","FE","6","5","O.jpg","P.jpg","0","0","1","",""
"","feedback","","html-keyboard-response","49","174681","0.0-1.0-60.0-0.0","0","0","19035","","null","","","null","6","","","","","","","","","","","","","","","",""
"","ITI","","html-keyboard-response","50","175691","0.0-1.0-63.0","0","0","19035","","null","","","null","6","","","","","","","","","","","","","","","NaN",""
"","S1","","html-keyboard-response","51","175947","0.0-1.0-65.0","0","0","19035","","null","","","null","7","","","","","","","","","","","","","","","",""
"","ISI","","html-keyboard-response","52","176106","0.0-1.0-66.0","0","0","19035","","null","","","null","7","NaN","","","","","","","","","","","","","","",""
"","S2","","html-keyboard-response","53","176361","0.0-1.0-67.0","0","0","19035","","null","","","null","7","","NaN","","","","","","","","","","","","","",""
"","response","","html-keyboard-response","54","176937","0.0-1.0-68.0-0.0","0","0","19035","","574","","","75","7","","","1","7","training","adjacent","ED","5","4","P.jpg","N.jpg","1","0","0","",""
"","feedback","","html-keyboard-response","55","177946","0.0-1.0-69.0-0.0","0","0","19035","","null","","","null","7","","","","","","","","","","","","","","","",""
"","time_out","","html-keyboard-response","56","179955","0.0-1.0-71.0-0.0","0","0","19035","","null","","","null","7","","","","","","","","","","","","","","","",""
"","ITI","","html-keyboard-response","57","180962","0.0-1.0-72.0","0","0","19035","","null","","","null","7","","","","","","","","","","","","","","","NaN",""
"","S1","","html-keyboard-response","58","181217","0.0-1.0-74.0","0","0","19035","","null","","","null","8","","","","","","","","","","","","","","","",""
"","ISI","","html-keyboard-response","59","181377","0.0-1.0-75.0","0","0","19035","","null","","","null","8","NaN","","","","","","","","","","","","","","",""
"","S2","","html-keyboard-response","60","181635","0.0-1.0-76.0","0","0","19035","","null","","","null","8","","NaN","","","","","","","","","","","","","",""
"","response","","html-keyboard-response","61","181989","0.0-1.0-77.0-0.0","0","0","19035","","351","","","68","8","","","1","8","training","adjacent","FE","6","5","O.jpg","P.jpg","0","0","1","",""
"","feedback","","html-keyboard-response","62","182994","0.0-1.0-78.0-0.0","0","0","19035","","null","","","null","8","","","","","","","","","","","","","","","",""
"","ITI","","html-keyboard-response","63","184000","0.0-1.0-81.0","0","0","19035","","null","","","null","8","","","","","","","","","","","","","","","NaN",""
"","S1","","html-keyboard-response","64","184259","0.0-1.0-83.0","0","0","19035","","null","","","null","9","","","","","","","","","","","","","","","",""
"","ISI","","html-keyboard-response","65","184419","0.0-1.0-84.0","0","0","19035","","null","","","null","9","NaN","","","","","","","","","","","","","","",""
"","S2","","html-keyboard-response","66","184674","0.0-1.0-85.0","0","0","19035","","null","","","null","9","","NaN","","","","","","","","","","","","","",""
"","response","","html-keyboard-response","67","185037","0.0-1.0-86.0-0.0","0","0","19035","","362","","","75","9","","","1","9","training","adjacent","BA","2","1","L.jpg","R.jpg","1","0","0","",""
"","feedback","","html-keyboard-response","68","186050","0.0-1.0-87.0-0.0","0","0","19035","","null","","","null","9","","","","","","","","","","","","","","","",""
"","time_out","","html-keyboard-response","69","188058","0.0-1.0-89.0-0.0","0","0","19035","","null","","","null","9","","","","","","","","","","","","","","","",""
"","ITI","","html-keyboard-response","70","189066","0.0-1.0-90.0","0","0","19035","","null","","","null","9","","","","","","","","","","","","","","","NaN",""
"","S1","","html-keyboard-response","71","189321","0.0-1.0-92.0","0","0","19035","","null","","","null","10","","","","","","","","","","","","","","","",""
"","ISI","","html-keyboard-response","72","189480","0.0-1.0-93.0","0","0","19035","","null","","","null","10","NaN","","","","","","","","","","","","","","",""
"","S2","","html-keyboard-response","73","189739","0.0-1.0-94.0","0","0","19035","","null","","","null","10","","NaN","","","","","","","","","","","","","",""
"","response","","html-keyboard-response","74","189999","0.0-1.0-95.0-0.0","0","0","19035","","259","","","75","10","","","1","10","training","adjacent","EF","5","6","P.jpg","O.jpg","1","1","1","",""
"","feedback","","html-keyboard-response","75","191010","0.0-1.0-96.0-0.0","0","0","19035","","null","","","null","10","","","","","","","","","","","","","","","",""
"","ITI","","html-keyboard-response","76","192017","0.0-1.0-99.0","0","0","19035","","null","","","null","10","","","","","","","","","","","","","","","NaN",""
"","S1","","html-keyboard-response","77","192273","0.0-1.0-101.0","0","0","19035","","null","","","null","11","","","","","","","","","","","","","","","",""
"","ISI","","html-keyboard-response","78","192432","0.0-1.0-102.0","0","0","19035","","null","","","null","11","NaN","","","","","","","","","","","","","","",""
"","S2","","html-keyboard-response","79","192691","0.0-1.0-103.0","0","0","19035","","null","","","null","11","","NaN","","","","","","","","","","","","","",""
"","response","","html-keyboard-response","80","193565","0.0-1.0-104.0-0.0","0","0","19035","","873","","","75","11","","","1","11","training","adjacent","FG","6","7","O.jpg","M.jpg","1","1","1","",""
"","feedback","","html-keyboard-response","81","194577","0.0-1.0-105.0-0.0","0","0","19035","","null","","","null","11","","","","","","","","","","","","","","","",""
"","ITI","","html-keyboard-response","82","195586","0.0-1.0-108.0","0","0","19035","","null","","","null","11","","","","","","","","","","","","","","","NaN",""
"","S1","","html-keyboard-response","83","195843","0.0-1.0-110.0","0","0","19035","","null","","","null","12","","","","","","","","","","","","","","","",""
"","ISI","","html-keyboard-response","84","196002","0.0-1.0-111.0","0","0","19035","","null","","","null","12","NaN","","","","","","","","","","","","","","",""
"","S2","","html-keyboard-response","85","196258","0.0-1.0-112.0","0","0","19035","","null","","","null","12","","NaN","","","","","","","","","","","","","",""
"","response","","html-keyboard-response","86","196647","0.0-1.0-113.0-0.0","0","0","19035","","388","","","68","12","","","1","12","training","adjacent","BC","2","3","L.jpg","Q.jpg","0","1","0","",""
"","feedback","","html-keyboard-response","87","197657","0.0-1.0-114.0-0.0","0","0","19035","","null","","","null","12","","","","","","","","","","","","","","","",""
"","time_out","","html-keyboard-response","88","199665","0.0-1.0-116.0-0.0","0","0","19035","","null","","","null","12","","","","","","","","","","","","","","","",""
"","ITI","","html-keyboard-response","89","200672","0.0-1.0-117.0","0","0","19035","","null","","","null","12","","","","","","","","","","","","","","","NaN",""
"","S1","","html-keyboard-response","90","200931","0.0-1.0-119.0","0","0","19035","","null","","","null","13","","","","","","","","","","","","","","","",""
"","ISI","","html-keyboard-response","91","201090","0.0-1.0-120.0","0","0","19035","","null","","","null","13","NaN","","","","","","","","","","","","","","",""
"","S2","","html-keyboard-response","92","201346","0.0-1.0-121.0","0","0","19035","","null","","","null","13","","NaN","","","","","","","","","","","","","",""
"","response","","html-keyboard-response","93","201665","0.0-1.0-122.0-0.0","0","0","19035","","318","","","75","13","","","1","13","training","adjacent","CD","3","4","Q.jpg","N.jpg","1","1","1","",""
"","feedback","","html-keyboard-response","94","202675","0.0-1.0-123.0-0.0","0","0","19035","","null","","","null","13","","","","","","","","","","","","","","","",""
"","ITI","","html-keyboard-response","95","203682","0.0-1.0-126.0","0","0","19035","","null","","","null","13","","","","","","","","","","","","","","","NaN",""
"","S1","","html-keyboard-response","96","203937","0.0-1.0-128.0","0","0","19035","","null","","","null","14","","","","","","","","","","","","","","","",""
"","ISI","","html-keyboard-response","97","204097","0.0-1.0-129.0","0","0","19035","","null","","","null","14","NaN","","","","","","","","","","","","","","",""
"","S2","","html-keyboard-response","98","204352","0.0-1.0-130.0","0","0","19035","","null","","","null","14","","NaN","","","","","","","","","","","","","",""
"","response","","html-keyboard-response","99","204995","0.0-1.0-131.0-0.0","0","0","19035","","641","","","68","14","","","1","14","training","adjacent","CB","3","2","Q.jpg","L.jpg","0","0","1","",""
"","feedback","","html-keyboard-response","100","206001","0.0-1.0-132.0-0.0","0","0","19035","","null","","","null","14","","","","","","","","","","","","","","","",""
"","ITI","","html-keyboard-response","101","207008","0.0-1.0-135.0","0","0","19035","","null","","","null","14","","","","","","","","","","","","","","","NaN",""
"","S1","","html-keyboard-response","102","207267","0.0-1.0-137.0","0","0","19035","","null","","","null","15","","","","","","","","","","","","","","","",""
"","ISI","","html-keyboard-response","103","207426","0.0-1.0-138.0","0","0","19035","","null","","","null","15","NaN","","","","","","","","","","","","","","",""
"","S2","","html-keyboard-response","104","207682","0.0-1.0-139.0","0","0","19035","","null","","","null","15","","NaN","","","","","","","","","","","","","",""
"","response","","html-keyboard-response","105","208077","0.0-1.0-140.0-0.0","0","0","19035","","394","","","75","15","","","1","15","training","adjacent","AB","1","2","R.jpg","L.jpg","1","1","1","",""
"","feedback","","html-keyboard-response","106","209090","0.0-1.0-141.0-0.0","0","0","19035","","null","","","null","15","","","","","","","","","","","","","","","",""
"","ITI","","html-keyboard-response","107","210097","0.0-1.0-144.0","0","0","19035","","null","","","null","15","","","","","","","","","","","","","","","NaN",""
"","S1","","html-keyboard-response","108","210352","0.0-1.0-146.0","0","0","19035","","null","","","null","16","","","","","","","","","","","","","","","",""
"","ISI","","html-keyboard-response","109","210514","0.0-1.0-147.0","0","0","19035","","null","","","null","16","NaN","","","","","","","","","","","","","","",""
"","S2","","html-keyboard-response","110","210778","0.0-1.0-148.0","0","0","19035","","null","","","null","16","","NaN","","","","","","","","","","","","","",""
"","response","","html-keyboard-response","111","211430","0.0-1.0-149.0-0.0","0","0","19035","","650","","","75","16","","","1","16","training","adjacent","EF","5","6","P.jpg","O.jpg","1","1","1","",""
"","feedback","","html-keyboard-response","112","212441","0.0-1.0-150.0-0.0","0","0","19035","","null","","","null","16","","","","","","","","","","","","","","","",""
"","ITI","","html-keyboard-response","113","213449","0.0-1.0-153.0","0","0","19035","","null","","","null","16","","","","","","","","","","","","","","","NaN",""
"","S1","","html-keyboard-response","114","213704","0.0-1.0-155.0","0","0","19035","","null","","","null","17","","","","","","","","","","","","","","","",""
"","ISI","","html-keyboard-response","115","213864","0.0-1.0-156.0","0","0","19035","","null","","","null","17","NaN","","","","","","","","","","","","","","",""
"","S2","","html-keyboard-response","116","214122","0.0-1.0-157.0","0","0","19035","","null","","","null","17","","NaN","","","","","","","","","","","","","",""
"","response","","html-keyboard-response","117","214479","0.0-1.0-158.0-0.0","0","0","19035","","356","","","68","17","","","1","17","training","adjacent","FE","6","5","O.jpg","P.jpg","0","0","1","",""
"","feedback","","html-keyboard-response","118","215489","0.0-1.0-159.0-0.0","0","0","19035","","null","","","null","17","","","","","","","","","","","","","","","",""
"","ITI","","html-keyboard-response","119","216496","0.0-1.0-162.0","0","0","19035","","null","","","null","17","","","","","","","","","","","","","","","NaN",""
"","S1","","html-keyboard-response","120","216751","0.0-1.0-164.0","0","0","19035","","null","","","null","18","","","","","","","","","","","","","","","",""
"","ISI","","html-keyboard-response","121","216914","0.0-1.0-165.0","0","0","19035","","null","","","null","18","NaN","","","","","","","","","","","","","","",""
"","S2","","html-keyboard-response","122","217178","0.0-1.0-166.0","0","0","19035","","null","","","null","18","","NaN","","","","","","","","","","","","","",""
"","response","","html-keyboard-response","123","217797","0.0-1.0-167.0-0.0","0","0","19035","","617","","","75","18","","","1","18","training","adjacent","GF","7","6","M.jpg","O.jpg","1","0","0","",""
"","feedback","","html-keyboard-response","124","218810","0.0-1.0-168.0-0.0","0","0","19035","","null","","","null","18","","","","","","","","","","","","","","","",""
"","time_out","","html-keyboard-response","125","220818","0.0-1.0-170.0-0.0","0","0","19035","","null","","","null","18","","","","","","","","","","","","","","","",""
"","ITI","","html-keyboard-response","126","221825","0.0-1.0-171.0","0","0","19035","","null","","","null","18","","","","","","","","","","","","","","","NaN",""
"","S1","","html-keyboard-response","127","222080","0.0-1.0-173.0","0","0","19035","","null","","","null","19","","","","","","","","","","","","","","","",""
"","ISI","","html-keyboard-response","128","222240","0.0-1.0-174.0","0","0","19035","","null","","","null","19","NaN","","","","","","","","","","","","","","",""
"","S2","","html-keyboard-response","129","222496","0.0-1.0-175.0","0","0","19035","","null","","","null","19","","NaN","","","","","","","","","","","","","",""
"","response","","html-keyboard-response","130","223051","0.0-1.0-176.0-0.0","0","0","19035","","554","","","75","19","","","1","19","training","adjacent","GF","7","6","M.jpg","O.jpg","1","0","0","",""
"","feedback","","html-keyboard-response","131","224057","0.0-1.0-177.0-0.0","0","0","19035","","null","","","null","19","","","","","","","","","","","","","","","",""
"","time_out","","html-keyboard-response","132","226066","0.0-1.0-179.0-0.0","0","0","19035","","null","","","null","19","","","","","","","","","","","","","","","",""
"","ITI","","html-keyboard-response","133","227073","0.0-1.0-180.0","0","0","19035","","null","","","null","19","","","","","","","","","","","","","","","NaN",""
"","S1","","html-keyboard-response","134","227328","0.0-1.0-182.0","0","0","19035","","null","","","null","20","","","","","","","","","","","","","","","",""
"","ISI","","html-keyboard-response","135","227488","0.0-1.0-183.0","0","0","19035","","null","","","null","20","NaN","","","","","","","","","","","","","","",""
"","S2","","html-keyboard-response","136","227746","0.0-1.0-184.0","0","0","19035","","null","","","null","20","","NaN","","","","","","","","","","","","","",""
"","response","","html-keyboard-response","137","228181","0.0-1.0-185.0-0.0","0","0","19035","","434","","","75","20","","","1","20","training","adjacent","AB","1","2","R.jpg","L.jpg","1","1","1","",""
"","feedback","","html-keyboard-response","138","229192","0.0-1.0-186.0-0.0","0","0","19035","","null","","","null","20","","","","","","","","","","","","","","","",""
"","ITI","","html-keyboard-response","139","230201","0.0-1.0-189.0","0","0","19035","","null","","","null","20","","","","","","","","","","","","","","","NaN",""
"","S1","","html-keyboard-response","140","230457","0.0-1.0-191.0","0","0","19035","","null","","","null","21","","","","","","","","","","","","","","","",""
"","ISI","","html-keyboard-response","141","230617","0.0-1.0-192.0","0","0","19035","","null","","","null","21","NaN","","","","","","","","","","","","","","",""
"","S2","","html-keyboard-response","142","230872","0.0-1.0-193.0","0","0","19035","","null","","","null","21","","NaN","","","","","","","","","","","","","",""
"","response","","html-keyboard-response","143","231432","0.0-1.0-194.0-0.0","0","0","19035","","559","","","75","21","","","1","21","training","adjacent","GF","7","6","M.jpg","O.jpg","1","0","0","",""
"","feedback","","html-keyboard-response","144","232442","0.0-1.0-195.0-0.0","0","0","19035","","null","","","null","21","","","","","","","","","","","","","","","",""
"","time_out","","html-keyboard-response","145","234448","0.0-1.0-197.0-0.0","0","0","19035","","null","","","null","21","","","","","","","","","","","","","","","",""
"","ITI","","html-keyboard-response","146","235458","0.0-1.0-198.0","0","0","19035","","null","","","null","21","","","","","","","","","","","","","","","NaN",""
"","S1","","html-keyboard-response","147","235722","0.0-1.0-200.0","0","0","19035","","null","","","null","22","","","","","","","","","","","","","","","",""
"","ISI","","html-keyboard-response","148","235882","0.0-1.0-201.0","0","0","19035","","null","","","null","22","NaN","","","","","","","","","","","","","","",""
"","S2","","html-keyboard-response","149","236146","0.0-1.0-202.0","0","0","19035","","null","","","null","22","","NaN","","","","","","","","","","","","","",""
"","response","","html-keyboard-response","150","236833","0.0-1.0-203.0-0.0","0","0","19035","","686","","","68","22","","","1","22","training","adjacent","CD","3","4","Q.jpg","N.jpg","0","1","0","",""
"","feedback","","html-keyboard-response","151","237841","0.0-1.0-204.0-0.0","0","0","19035","","null","","","null","22","","","","","","","","","","","","","","","",""
"","time_out","","html-keyboard-response","152","239849","0.0-1.0-206.0-0.0","0","0","19035","","null","","","null","22","","","","","","","","","","","","","","","",""
"","ITI","","html-keyboard-response","153","240857","0.0-1.0-207.0","0","0","19035","","null","","","null","22","","","","","","","","","","","","","","","NaN",""
"","S1","","html-keyboard-response","154","241112","0.0-1.0-209.0","0","0","19035","","null","","","null","23","","","","","","","","","","","","","","","",""
"","ISI","","html-keyboard-response","155","241271","0.0-1.0-210.0","0","0","19035","","null","","","null","23","NaN","","","","","","","","","","","","","","",""
"","S2","","html-keyboard-response","156","241530","0.0-1.0-211.0","0","0","19035","","null","","","null","23","","NaN","","","","","","","","","","","","","",""
"","response","","html-keyboard-response","157","241828","0.0-1.0-212.0-0.0","0","0","19035","","297","","","75","23","","","1","23","training","adjacent","CB","3","2","Q.jpg","L.jpg","1","0","0","",""
"","feedback","","html-keyboard-response","158","242842","0.0-1.0-213.0-0.0","0","0","19035","","null","","","null","23","","","","","","","","","","","","","","","",""
"","time_out","","html-keyboard-response","159","244847","0.0-1.0-215.0-0.0","0","0","19035","","null","","","null","23","","","","","","","","","","","","","","","",""
"","ITI","","html-keyboard-response","160","245857","0.0-1.0-216.0","0","0","19035","","null","","","null","23","","","","","","","","","","","","","","","NaN",""
"","S1","","html-keyboard-response","161","246113","0.0-1.0-218.0","0","0","19035","","null","","","null","24","","","","","","","","","","","","","","","",""
"","ISI","","html-keyboard-response","162","246272","0.0-1.0-219.0","0","0","19035","","null","","","null","24","NaN","","","","","","","","","","","","","","",""
"","S2","","html-keyboard-response","163","246528","0.0-1.0-220.0","0","0","19035","","null","","","null","24","","NaN","","","","","","","","","","","","","",""
"","response","","html-keyboard-response","164","246980","0.0-1.0-221.0-0.0","0","0","19035","","451","","","68","24","","","1","24","training","adjacent","AB","1","2","R.jpg","L.jpg","0","1","0","",""
"","feedback","","html-keyboard-response","165","247993","0.0-1.0-222.0-0.0","0","0","19035","","null","","","null","24","","","","","","","","","","","","","","","",""
"","time_out","","html-keyboard-response","166","249999","0.0-1.0-224.0-0.0","0","0","19035","","null","","","null","24","","","","","","","","","","","","","","","",""
"","ITI","","html-keyboard-response","167","251009","0.0-1.0-225.0","0","0","19035","","null","","","null","24","","","","","","","","","","","","","","","NaN",""
"","S1","","html-keyboard-response","168","251264","0.0-1.0-227.0","0","0","19035","","null","","","null","25","","","","","","","","","","","","","","","",""
"","ISI","","html-keyboard-response","169","251424","0.0-1.0-228.0","0","0","19035","","null","","","null","25","NaN","","","","","","","","","","","","","","",""
"","S2","","html-keyboard-response","170","251679","0.0-1.0-229.0","0","0","19035","","null","","","null","25","","NaN","","","","","","","","","","","","","",""
"","response","","html-keyboard-response","171","252121","0.0-1.0-230.0-0.0","0","0","19035","","440","","","75","25","","","1","25","training","adjacent","DC","4","3","N.jpg","Q.jpg","1","0","0","",""
"","feedback","","html-keyboard-response","172","253128","0.0-1.0-231.0-0.0","0","0","19035","","null","","","null","25","","","","","","","","","","","","","","","",""
"","time_out","","html-keyboard-response","173","255136","0.0-1.0-233.0-0.0","0","0","19035","","null","","","null","25","","","","","","","","","","","","","","","",""
"","ITI","","html-keyboard-response","174","256143","0.0-1.0-234.0","0","0","19035","","null","","","null","25","","","","","","","","","","","","","","","NaN",""
"","S1","","html-keyboard-response","175","256399","0.0-1.0-236.0","0","0","19035","","null","","","null","26","","","","","","","","","","","","","","","",""
"","ISI","","html-keyboard-response","176","256561","0.0-1.0-237.0","0","0","19035","","null","","","null","26","NaN","","","","","","","","","","","","","","",""
"","S2","","html-keyboard-response","177","256826","0.0-1.0-238.0","0","0","19035","","null","","","null","26","","NaN","","","","","","","","","","","","","",""
"","response","","html-keyboard-response","178","257116","0.0-1.0-239.0-0.0","0","0","19035","","289","","","68","26","","","1","26","training","adjacent","ED","5","4","P.jpg","N.jpg","0","0","1","",""
"","feedback","","html-keyboard-response","179","258129","0.0-1.0-240.0-0.0","0","0","19035","","null","","","null","26","","","","","","","","","","","","","","","",""
"","ITI","","html-keyboard-response","180","259136","0.0-1.0-243.0","0","0","19035","","null","","","null","26","","","","","","","","","","","","","","","NaN",""
"","S1","","html-keyboard-response","181","259391","0.0-1.0-245.0","0","0","19035","","null","","","null","27","","","","","","","","","","","","","","","",""
"","ISI","","html-keyboard-response","182","259551","0.0-1.0-246.0","0","0","19035","","null","","","null","27","NaN","","","","","","","","","","","","","","",""
"","S2","","html-keyboard-response","183","259809","0.0-1.0-247.0","0","0","19035","","null","","","null","27","","NaN","","","","","","","","","","","","","",""
"","response","","html-keyboard-response","184","260604","0.0-1.0-248.0-0.0","0","0","19035","","793","","","75","27","","","1","27","training","adjacent","FG","6","7","O.jpg","M.jpg","1","1","1","",""
"","feedback","","html-keyboard-response","185","261617","0.0-1.0-249.0-0.0","0","0","19035","","null","","","null","27","","","","","","","","","","","","","","","",""
"","ITI","","html-keyboard-response","186","262625","0.0-1.0-252.0","0","0","19035","","null","","","null","27","","","","","","","","","","","","","","","NaN",""
"","S1","","html-keyboard-response","187","262877","0.0-1.0-254.0","0","0","19035","","null","","","null","28","","","","","","","","","","","","","","","",""
"","ISI","","html-keyboard-response","188","263031","0.0-1.0-255.0","0","0","19035","","null","","","null","28","NaN","","","","","","","","","","","","","","",""
"","S2","","html-keyboard-response","189","263289","0.0-1.0-256.0","0","0","19035","","null","","","null","28","","NaN","","","","","","","","","","","","","",""
"","response","","html-keyboard-response","190","263968","0.0-1.0-257.0-0.0","0","0","19035","","677","","","75","28","","","1","28","training","adjacent","AB","1","2","R.jpg","L.jpg","1","1","1","",""
"","feedback","","html-keyboard-response","191","264976","0.0-1.0-258.0-0.0","0","0","19035","","null","","","null","28","","","","","","","","","","","","","","","",""
"","ITI","","html-keyboard-response","192","265983","0.0-1.0-261.0","0","0","19035","","null","","","null","28","","","","","","","","","","","","","","","NaN",""
"","S1","","html-keyboard-response","193","266241","0.0-1.0-263.0","0","0","19035","","null","","","null","29","","","","","","","","","","","","","","","",""
"","ISI","","html-keyboard-response","194","266400","0.0-1.0-264.0","0","0","19035","","null","","","null","29","NaN","","","","","","","","","","","","","","",""
"","S2","","html-keyboard-response","195","266656","0.0-1.0-265.0","0","0","19035","","null","","","null","29","","NaN","","","","","","","","","","","","","",""
"","response","","html-keyboard-response","196","267388","0.0-1.0-266.0-0.0","0","0","19035","","731","","","68","29","","","1","29","training","adjacent","FE","6","5","O.jpg","P.jpg","0","0","1","",""
"","feedback","","html-keyboard-response","197","268401","0.0-1.0-267.0-0.0","0","0","19035","","null","","","null","29","","","","","","","","","","","","","","","",""
"","ITI","","html-keyboard-response","198","269408","0.0-1.0-270.0","0","0","19035","","null","","","null","29","","","","","","","","","","","","","","","NaN",""
"","S1","","html-keyboard-response","199","269663","0.0-1.0-272.0","0","0","19035","","null","","","null","30","","","","","","","","","","","","","","","",""
"","ISI","","html-keyboard-response","200","269823","0.0-1.0-273.0","0","0","19035","","null","","","null","30","NaN","","","","","","","","","","","","","","",""
"","S2","","html-keyboard-response","201","270081","0.0-1.0-274.0","0","0","19035","","null","","","null","30","","NaN","","","","","","","","","","","","","",""
"","response","","html-keyboard-response","202","270898","0.0-1.0-275.0-0.0","0","0","19035","","816","","","68","30","","","1","30","training","adjacent","FG","6","7","O.jpg","M.jpg","0","1","0","",""
"","feedback","","html-keyboard-response","203","271904","0.0-1.0-276.0-0.0","0","0","19035","","null","","","null","30","","","","","","","","","","","","","","","",""
"","time_out","","html-keyboard-response","204","273912","0.0-1.0-278.0-0.0","0","0","19035","","null","","","null","30","","","","","","","","","","","","","","","",""
"","ITI","","html-keyboard-response","205","274917","0.0-1.0-279.0","0","0","19035","","null","","","null","30","","","","","","","","","","","","","","","NaN",""
"","S1","","html-keyboard-response","206","275175","0.0-1.0-281.0","0","0","19035","","null","","","null","31","","","","","","","","","","","","","","","",""
"","ISI","","html-keyboard-response","207","275334","0.0-1.0-282.0","0","0","19035","","null","","","null","31","NaN","","","","","","","","","","","","","","",""
"","S2","","html-keyboard-response","208","275593","0.0-1.0-283.0","0","0","19035","","null","","","null","31","","NaN","","","","","","","","","","","","","",""
"","response","","html-keyboard-response","209","276478","0.0-1.0-284.0-0.0","0","0","19035","","884","","","75","31","","","1","31","training","adjacent","BA","2","1","L.jpg","R.jpg","1","0","0","",""
"","feedback","","html-keyboard-response","210","277488","0.0-1.0-285.0-0.0","0","0","19035","","null","","","null","31","","","","","","","","","","","","","","","",""
"","time_out","","html-keyboard-response","211","279496","0.0-1.0-287.0-0.0","0","0","19035","","null","","","null","31","","","","","","","","","","","","","","","",""
"","ITI","","html-keyboard-response","212","280504","0.0-1.0-288.0","0","0","19035","","null","","","null","31","","","","","","","","","","","","","","","NaN",""
"","S1","","html-keyboard-response","213","280759","0.0-1.0-290.0","0","0","19035","","null","","","null","32","","","","","","","","","","","","","","","",""
"","ISI","","html-keyboard-response","214","280918","0.0-1.0-291.0","0","0","19035","","null","","","null","32","NaN","","","","","","","","","","","","","","",""
"","S2","","html-keyboard-response","215","281177","0.0-1.0-292.0","0","0","19035","","null","","","null","32","","NaN","","","","","","","","","","","","","",""
"","response","","html-keyboard-response","216","281495","0.0-1.0-293.0-0.0","0","0","19035","","317","","","68","32","","","1","32","training","adjacent","ED","5","4","P.jpg","N.jpg","0","0","1","",""
"","feedback","","html-keyboard-response","217","282503","0.0-1.0-294.0-0.0","0","0","19035","","null","","","null","32","","","","","","","","","","","","","","","",""
"","ITI","","html-keyboard-response","218","283511","0.0-1.0-297.0","0","0","19035","","null","","","null","32","","","","","","","","","","","","","","","NaN",""
"","S1","","html-keyboard-response","219","283769","0.0-1.0-299.0","0","0","19035","","null","","","null","33","","","","","","","","","","","","","","","",""
"","ISI","","html-keyboard-response","220","283928","0.0-1.0-300.0","0","0","19035","","null","","","null","33","NaN","","","","","","","","","","","","","","",""
"","S2","","html-keyboard-response","221","284192","0.0-1.0-301.0","0","0","19035","","null","","","null","33","","NaN","","","","","","","","","","","","","",""
"","response","","html-keyboard-response","222","284836","0.0-1.0-302.0-0.0","0","0","19035","","642","","","75","33","","","1","33","training","adjacent","ED","5","4","P.jpg","N.jpg","1","0","0","",""
"","feedback","","html-keyboard-response","223","285847","0.0-1.0-303.0-0.0","0","0","19035","","null","","","null","33","","","","","","","","","","","","","","","",""
"","time_out","","html-keyboard-response","224","287855","0.0-1.0-305.0-0.0","0","0","19035","","null","","","null","33","","","","","","","","","","","","","","","",""
"","ITI","","html-keyboard-response","225","288862","0.0-1.0-306.0","0","0","19035","","null","","","null","33","","","","","","","","","","","","","","","NaN",""
"","S1","","html-keyboard-response","226","289121","0.0-1.0-308.0","0","0","19035","","null","","","null","34","","","","","","","","","","","","","","","",""
"","ISI","","html-keyboard-response","227","289280","0.0-1.0-309.0","0","0","19035","","null","","","null","34","NaN","","","","","","","","","","","","","","",""
"","S2","","html-keyboard-response","228","289544","0.0-1.0-310.0","0","0","19035","","null","","","null","34","","NaN","","","","","","","","","","","","","",""
"","response","","html-keyboard-response","229","289956","0.0-1.0-311.0-0.0","0","0","19035","","410","","","75","34","","","1","34","training","adjacent","DE","4","5","N.jpg","P.jpg","1","1","1","",""
"","feedback","","html-keyboard-response","230","290967","0.0-1.0-312.0-0.0","0","0","19035","","null","","","null","34","","","","","","","","","","","","","","","",""
"","ITI","","html-keyboard-response","231","291974","0.0-1.0-315.0","0","0","19035","","null","","","null","34","","","","","","","","","","","","","","","NaN",""
"","S1","","html-keyboard-response","232","292232","0.0-1.0-317.0","0","0","19035","","null","","","null","35","","","","","","","","","","","","","","","",""
"","ISI","","html-keyboard-response","233","292392","0.0-1.0-318.0","0","0","19035","","null","","","null","35","NaN","","","","","","","","","","","","","","",""
"","S2","","html-keyboard-response","234","292647","0.0-1.0-319.0","0","0","19035","","null","","","null","35","","NaN","","","","","","","","","","","","","",""
"","response","","html-keyboard-response","235","293139","0.0-1.0-320.0-0.0","0","0","19035","","490","","","75","35","","","1","35","training","adjacent","DE","4","5","N.jpg","P.jpg","1","1","1","",""
"","feedback","","html-keyboard-response","236","294150","0.0-1.0-321.0-0.0","0","0","19035","","null","","","null","35","","","","","","","","","","","","","","","",""
"","ITI","","html-keyboard-response","237","295158","0.0-1.0-324.0","0","0","19035","","null","","","null","35","","","","","","","","","","","","","","","NaN",""
"","S1","","html-keyboard-response","238","295416","0.0-1.0-326.0","0","0","19035","","null","","","null","36","","","","","","","","","","","","","","","",""
"","ISI","","html-keyboard-response","239","295576","0.0-1.0-327.0","0","0","19035","","null","","","null","36","NaN","","","","","","","","","","","","","","",""
"","S2","","html-keyboard-response","240","295831","0.0-1.0-328.0","0","0","19035","","null","","","null","36","","NaN","","","","","","","","","","","","","",""
"","response","","html-keyboard-response","241","296278","0.0-1.0-329.0-0.0","0","0","19035","","446","","","75","36","","","1","36","training","adjacent","FG","6","7","O.jpg","M.jpg","1","1","1","",""
"","feedback","","html-keyboard-response","242","297288","0.0-1.0-330.0-0.0","0","0","19035","","null","","","null","36","","","","","","","","","","","","","","","",""
"","ITI","","html-keyboard-response","243","298295","0.0-1.0-333.0","0","0","19035","","null","","","null","36","","","","","","","","","","","","","","","NaN",""
"","S1","","html-keyboard-response","244","298551","0.0-1.0-335.0","0","0","19035","","null","","","null","37","","","","","","","","","","","","","","","",""
"","ISI","","html-keyboard-response","245","298710","0.0-1.0-336.0","0","0","19035","","null","","","null","37","NaN","","","","","","","","","","","","","","",""
"","S2","","html-keyboard-response","246","298966","0.0-1.0-337.0","0","0","19035","","null","","","null","37","","NaN","","","","","","","","","","","","","",""
"","response","","html-keyboard-response","247","299248","0.0-1.0-338.0-0.0","0","0","19035","","281","","","68","37","","","1","37","training","adjacent","DC","4","3","N.jpg","Q.jpg","0","0","1","",""
"","feedback","","html-keyboard-response","248","300254","0.0-1.0-339.0-0.0","0","0","19035","","null","","","null","37","","","","","","","","","","","","","","","",""
"","ITI","","html-keyboard-response","249","301265","0.0-1.0-342.0","0","0","19035","","null","","","null","37","","","","","","","","","","","","","","","NaN",""
"","S1","","html-keyboard-response","250","301526","0.0-1.0-344.0","0","0","19035","","null","","","null","38","","","","","","","","","","","","","","","",""
"","ISI","","html-keyboard-response","251","301688","0.0-1.0-345.0","0","0","19035","","null","","","null","38","NaN","","","","","","","","","","","","","","",""
"","S2","","html-keyboard-response","252","301952","0.0-1.0-346.0","0","0","19035","","null","","","null","38","","NaN","","","","","","","","","","","","","",""
"","response","","html-keyboard-response","253","302319","0.0-1.0-347.0-0.0","0","0","19035","","365","","","75","38","","","1","38","training","adjacent","DE","4","5","N.jpg","P.jpg","1","1","1","",""
"","feedback","","html-keyboard-response","254","303328","0.0-1.0-348.0-0.0","0","0","19035","","null","","","null","38","","","","","","","","","","","","","","","",""
"","ITI","","html-keyboard-response","255","304335","0.0-1.0-351.0","0","0","19035","","null","","","null","38","","","","","","","","","","","","","","","NaN",""
"","S1","","html-keyboard-response","256","304591","0.0-1.0-353.0","0","0","19035","","null","","","null","39","","","","","","","","","","","","","","","",""
"","ISI","","html-keyboard-response","257","304750","0.0-1.0-354.0","0","0","19035","","null","","","null","39","NaN","","","","","","","","","","","","","","",""
"","S2","","html-keyboard-response","258","305005","0.0-1.0-355.0","0","0","19035","","null","","","null","39","","NaN","","","","","","","","","","","","","",""
"","response","","html-keyboard-response","259","305570","0.0-1.0-356.0-0.0","0","0","19035","","563","","","68","39","","","1","39","training","adjacent","CD","3","4","Q.jpg","N.jpg","0","1","0","",""
"","feedback","","html-keyboard-response","260","306582","0.0-1.0-357.0-0.0","0","0","19035","","null","","","null","39","","","","","","","","","","","","","","","",""
"","time_out","","html-keyboard-response","261","308590","0.0-1.0-359.0-0.0","0","0","19035","","null","","","null","39","","","","","","","","","","","","","","","",""
"","ITI","","html-keyboard-response","262","309600","0.0-1.0-360.0","0","0","19035","","null","","","null","39","","","","","","","","","","","","","","","NaN",""
"","S1","","html-keyboard-response","263","309862","0.0-1.0-362.0","0","0","19035","","null","","","null","40","","","","","","","","","","","","","","","",""
"","ISI","","html-keyboard-response","264","310024","0.0-1.0-363.0","0","0","19035","","null","","","null","40","NaN","","","","","","","","","","","","","","",""
"","S2","","html-keyboard-response","265","310288","0.0-1.0-364.0","0","0","19035","","null","","","null","40","","NaN","","","","","","","","","","","","","",""
"","response","","html-keyboard-response","266","310565","0.0-1.0-365.0-0.0","0","0","19035","","275","","","75","40","","","1","40","training","adjacent","CD","3","4","Q.jpg","N.jpg","1","1","1","",""
"","feedback","","html-keyboard-response","267","311574","0.0-1.0-366.0-0.0","0","0","19035","","null","","","null","40","","","","","","","","","","","","","","","",""
"","ITI","","html-keyboard-response","268","312584","0.0-1.0-369.0","0","0","19035","","null","","","null","40","","","","","","","","","","","","","","","NaN",""
"","S1","","html-keyboard-response","269","312848","0.0-1.0-371.0","0","0","19035","","null","","","null","41","","","","","","","","","","","","","","","",""
"","ISI","","html-keyboard-response","270","313008","0.0-1.0-372.0","0","0","19035","","null","","","null","41","NaN","","","","","","","","","","","","","","",""
"","S2","","html-keyboard-response","271","313263","0.0-1.0-373.0","0","0","19035","","null","","","null","41","","NaN","","","","","","","","","","","","","",""
"","response","","html-keyboard-response","272","313772","0.0-1.0-374.0-0.0","0","0","19035","","507","","","75","41","","","1","41","training","adjacent","DC","4","3","N.jpg","Q.jpg","1","0","0","",""
"","feedback","","html-keyboard-response","273","314784","0.0-1.0-375.0-0.0","0","0","19035","","null","","","null","41","","","","","","","","","","","","","","","",""
"","time_out","","html-keyboard-response","274","316790","0.0-1.0-377.0-0.0","0","0","19035","","null","","","null","41","","","","","","","","","","","","","","","",""
"","ITI","","html-keyboard-response","275","317800","0.0-1.0-378.0","0","0","19035","","null","","","null","41","","","","","","","","","","","","","","","NaN",""
"","S1","","html-keyboard-response","276","318064","0.0-1.0-380.0","0","0","19035","","null","","","null","42","","","","","","","","","","","","","","","",""
"","ISI","","html-keyboard-response","277","318223","0.0-1.0-381.0","0","0","19035","","null","","","null","42","NaN","","","","","","","","","","","","","","",""
"","S2","","html-keyboard-response","278","318479","0.0-1.0-382.0","0","0","19035","","null","","","null","42","","NaN","","","","","","","","","","","","","",""
"","response","","html-keyboard-response","279","318913","0.0-1.0-383.0-0.0","0","0","19035","","433","","","75","42","","","1","42","training","adjacent","DC","4","3","N.jpg","Q.jpg","1","0","0","",""
"","feedback","","html-keyboard-response","280","319919","0.0-1.0-384.0-0.0","0","0","19035","","null","","","null","42","","","","","","","","","","","","","","","",""
"","time_out","","html-keyboard-response","281","321927","0.0-1.0-386.0-0.0","0","0","19035","","null","","","null","42","","","","","","","","","","","","","","","",""
"","ITI","","html-keyboard-response","282","322934","0.0-1.0-387.0","0","0","19035","","null","","","null","42","","","","","","","","","","","","","","","NaN",""
"","S1","","html-keyboard-response","283","323189","0.0-1.0-389.0","0","0","19035","","null","","","null","43","","","","","","","","","","","","","","","",""
"","ISI","","html-keyboard-response","284","323352","0.0-1.0-390.0","0","0","19035","","null","","","null","43","NaN","","","","","","","","","","","","","","",""
"","S2","","html-keyboard-response","285","323613","0.0-1.0-391.0","0","0","19035","","null","","","null","43","","NaN","","","","","","","","","","","","","",""
"","response","","html-keyboard-response","286","324099","0.0-1.0-392.0-0.0","0","0","19035","","484","","","68","43","","","1","43","training","adjacent","BC","2","3","L.jpg","Q.jpg","0","1","0","",""
"","feedback","","html-keyboard-response","287","325102","0.0-1.0-393.0-0.0","0","0","19035","","null","","","null","43","","","","","","","","","","","","","","","",""
"","time_out","","html-keyboard-response","288","327111","0.0-1.0-395.0-0.0","0","0","19035","","null","","","null","43","","","","","","","","","","","","","","","",""
"","ITI","","html-keyboard-response","289","328118","0.0-1.0-396.0","0","0","19035","","null","","","null","43","","","","","","","","","","","","","","","NaN",""
"","S1","","html-keyboard-response","290","328373","0.0-1.0-398.0","0","0","19035","","null","","","null","44","","","","","","","","","","","","","","","",""
"","ISI","","html-keyboard-response","291","328535","0.0-1.0-399.0","0","0","19035","","null","","","null","44","NaN","","","","","","","","","","","","","","",""
"","S2","","html-keyboard-response","292","328797","0.0-1.0-400.0","0","0","19035","","null","","","null","44","","NaN","","","","","","","","","","","","","",""
"","response","","html-keyboard-response","293","329072","0.0-1.0-401.0-0.0","0","0","19035","","274","","","75","44","","","1","44","training","adjacent","CB","3","2","Q.jpg","L.jpg","1","0","0","",""
"","feedback","","html-keyboard-response","294","330080","0.0-1.0-402.0-0.0","0","0","19035","","null","","","null","44","","","","","","","","","","","","","","","",""
"","time_out","","html-keyboard-response","295","332086","0.0-1.0-404.0-0.0","0","0","19035","","null","","","null","44","","","","","","","","","","","","","","","",""
"","ITI","","html-keyboard-response","296","333096","0.0-1.0-405.0","0","0","19035","","null","","","null","44","","","","","","","","","","","","","","","NaN",""
"","S1","","html-keyboard-response","297","333359","0.0-1.0-407.0","0","0","19035","","null","","","null","45","","","","","","","","","","","","","","","",""
"","ISI","","html-keyboard-response","298","333519","0.0-1.0-408.0","0","0","19035","","null","","","null","45","NaN","","","","","","","","","","","","","","",""
"","S2","","html-keyboard-response","299","333783","0.0-1.0-409.0","0","0","19035","","null","","","null","45","","NaN","","","","","","","","","","","","","",""
"","response","","html-keyboard-response","300","334258","0.0-1.0-410.0-0.0","0","0","19035","","474","","","68","45","","","1","45","training","adjacent","BA","2","1","L.jpg","R.jpg","0","0","1","",""
"","feedback","","html-keyboard-response","301","335269","0.0-1.0-411.0-0.0","0","0","19035","","null","","","null","45","","","","","","","","","","","","","","","",""
"","ITI","","html-keyboard-response","302","336279","0.0-1.0-414.0","0","0","19035","","null","","","null","45","","","","","","","","","","","","","","","NaN",""
"","S1","","html-keyboard-response","303","336544","0.0-1.0-416.0","0","0","19035","","null","","","null","46","","","","","","","","","","","","","","","",""
"","ISI","","html-keyboard-response","304","336703","0.0-1.0-417.0","0","0","19035","","null","","","null","46","NaN","","","","","","","","","","","","","","",""
"","S2","","html-keyboard-response","305","336958","0.0-1.0-418.0","0","0","19035","","null","","","null","46","","NaN","","","","","","","","","","","","","",""
"","response","","html-keyboard-response","306","337340","0.0-1.0-419.0-0.0","0","0","19035","","380","","","68","46","","","1","46","training","adjacent","BC","2","3","L.jpg","Q.jpg","0","1","0","",""
"","feedback","","html-keyboard-response","307","338349","0.0-1.0-420.0-0.0","0","0","19035","","null","","","null","46","","","","","","","","","","","","","","","",""
"","time_out","","html-keyboard-response","308","340357","0.0-1.0-422.0-0.0","0","0","19035","","null","","","null","46","","","","","","","","","","","","","","","",""
"","ITI","","html-keyboard-response","309","341367","0.0-1.0-423.0","0","0","19035","","null","","","null","46","","","","","","","","","","","","","","","NaN",""
"","S1","","html-keyboard-response","310","341631","0.0-1.0-425.0","0","0","19035","","null","","","null","47","","","","","","","","","","","","","","","",""
"","ISI","","html-keyboard-response","311","341791","0.0-1.0-426.0","0","0","19035","","null","","","null","47","NaN","","","","","","","","","","","","","","",""
"","S2","","html-keyboard-response","312","342055","0.0-1.0-427.0","0","0","19035","","null","","","null","47","","NaN","","","","","","","","","","","","","",""
"","response","","html-keyboard-response","313","342313","0.0-1.0-428.0-0.0","0","0","19035","","256","","","68","47","","","1","47","training","adjacent","BA","2","1","L.jpg","R.jpg","0","0","1","",""
"","feedback","","html-keyboard-response","314","343326","0.0-1.0-429.0-0.0","0","0","19035","","null","","","null","47","","","","","","","","","","","","","","","",""
"","ITI","","html-keyboard-response","315","344334","0.0-1.0-432.0","0","0","19035","","null","","","null","47","","","","","","","","","","","","","","","NaN",""
"","block_over","","html-keyboard-response","316","389080","0.0-1.0-433.0-0.0","0","0","19035","","44744","","","32","47","","","","","","","","","","","","","","","",""
"","S1","","html-keyboard-response","317","389341","0.0-1.0-434.0","0","0","19035","","null","","","null","48","","","","","","","","","","","","","","","",""
"","ISI","","html-keyboard-response","318","389501","0.0-1.0-435.0","0","0","19035","","null","","","null","48","NaN","","","","","","","","","","","","","","",""
"","S2","","html-keyboard-response","319","389757","0.0-1.0-436.0","0","0","19035","","null","","","null","48","","NaN","","","","","","","","","","","","","",""
"","response","","html-keyboard-response","320","390126","0.0-1.0-437.0-0.0","0","0","19035","","368","","","75","48","","","2","48","training","adjacent","DC","4","3","N.jpg","Q.jpg","1","0","0","",""
"","feedback","","html-keyboard-response","321","391132","0.0-1.0-438.0-0.0","0","0","19035","","null","","","null","48","","","","","","","","","","","","","","","",""
"","time_out","","html-keyboard-response","322","393141","0.0-1.0-440.0-0.0","0","0","19035","","null","","","null","48","","","","","","","","","","","","","","","",""
"","ITI","","html-keyboard-response","323","394148","0.0-1.0-441.0","0","0","19035","","null","","","null","48","","","","","","","","","","","","","","","NaN",""
"","S1","","html-keyboard-response","324","394403","0.0-1.0-443.0","0","0","19035","","null","","","null","49","","","","","","","","","","","","","","","",""
"","ISI","","html-keyboard-response","325","394566","0.0-1.0-444.0","0","0","19035","","null","","","null","49","NaN","","","","","","","","","","","","","","",""
"","S2","","html-keyboard-response","326","394821","0.0-1.0-445.0","0","0","19035","","null","","","null","49","","NaN","","","","","","","","","","","","","",""
"","response","","html-keyboard-response","327","395020","0.0-1.0-446.0-0.0","0","0","19035","","197","","","68","49","","","2","49","training","adjacent","ED","5","4","P.jpg","N.jpg","0","0","1","",""
"","feedback","","html-keyboard-response","328","396029","0.0-1.0-447.0-0.0","0","0","19035","","null","","","null","49","","","","","","","","","","","","","","","",""
"","ITI","","html-keyboard-response","329","397036","0.0-1.0-450.0","0","0","19035","","null","","","null","49","","","","","","","","","","","","","","","NaN",""
"","S1","","html-keyboard-response","330","397294","0.0-1.0-452.0","0","0","19035","","null","","","null","50","","","","","","","","","","","","","","","",""
"","ISI","","html-keyboard-response","331","397454","0.0-1.0-453.0","0","0","19035","","null","","","null","50","NaN","","","","","","","","","","","","","","",""
"","S2","","html-keyboard-response","332","397718","0.0-1.0-454.0","0","0","19035","","null","","","null","50","","NaN","","","","","","","","","","","","","",""
"","response","","html-keyboard-response","333","398147","0.0-1.0-455.0-0.0","0","0","19035","","428","","","75","50","","","2","50","training","adjacent","AB","1","2","R.jpg","L.jpg","1","1","1","",""
"","feedback","","html-keyboard-response","334","399158","0.0-1.0-456.0-0.0","0","0","19035","","null","","","null","50","","","","","","","","","","","","","","","",""
"","ITI","","html-keyboard-response","335","400165","0.0-1.0-459.0","0","0","19035","","null","","","null","50","","","","","","","","","","","","","","","NaN",""
"","S1","","html-keyboard-response","336","400420","0.0-1.0-461.0","0","0","19035","","null","","","null","51","","","","","","","","","","","","","","","",""
"","ISI","","html-keyboard-response","337","400579","0.0-1.0-462.0","0","0","19035","","null","","","null","51","NaN","","","","","","","","","","","","","","",""
"","S2","","html-keyboard-response","338","400838","0.0-1.0-463.0","0","0","19035","","null","","","null","51","","NaN","","","","","","","","","","","","","",""
"","response","","html-keyboard-response","339","401219","0.0-1.0-464.0-0.0","0","0","19035","","379","","","68","51","","","2","51","training","adjacent","DE","4","5","N.jpg","P.jpg","0","1","0","",""
"","feedback","","html-keyboard-response","340","402228","0.0-1.0-465.0-0.0","0","0","19035","","null","","","null","51","","","","","","","","","","","","","","","",""
"","time_out","","html-keyboard-response","341","404236","0.0-1.0-467.0-0.0","0","0","19035","","null","","","null","51","","","","","","","","","","","","","","","",""
"","ITI","","html-keyboard-response","342","405244","0.0-1.0-468.0","0","0","19035","","null","","","null","51","","","","","","","","","","","","","","","NaN",""
"","S1","","html-keyboard-response","343","405499","0.0-1.0-470.0","0","0","19035","","null","","","null","52","","","","","","","","","","","","","","","",""
"","ISI","","html-keyboard-response","344","405662","0.0-1.0-471.0","0","0","19035","","null","","","null","52","NaN","","","","","","","","","","","","","","",""
"","S2","","html-keyboard-response","345","405926","0.0-1.0-472.0","0","0","19035","","null","","","null","52","","NaN","","","","","","","","","","","","","",""
"","response","","html-keyboard-response","346","405999","0.0-1.0-473.0-0.0","0","0","19035","","73","","","75","52","","","2","52","training","adjacent","FE","6","5","O.jpg","P.jpg","1","0","0","",""
"","feedback","","html-keyboard-response","347","407011","0.0-1.0-474.0-0.0","0","0","19035","","null","","","null","52","","","","","","","","","","","","","","","",""
"","time_out","","html-keyboard-response","348","409020","0.0-1.0-476.0-0.0","0","0","19035","","null","","","null","52","","","","","","","","","","","","","","","",""
"","ITI","","html-keyboard-response","349","410027","0.0-1.0-477.0","0","0","19035","","null","","","null","52","","","","","","","","","","","","","","","NaN",""
"","S1","","html-keyboard-response","350","410285","0.0-1.0-479.0","0","0","19035","","null","","","null","53","","","","","","","","","","","","","","","",""
"","ISI","","html-keyboard-response","351","410445","0.0-1.0-480.0","0","0","19035","","null","","","null","53","NaN","","","","","","","","","","","","","","",""
"","S2","","html-keyboard-response","352","410701","0.0-1.0-481.0","0","0","19035","","null","","","null","53","","NaN","","","","","","","","","","","","","",""
"","response","","html-keyboard-response","353","410837","0.0-1.0-482.0-0.0","0","0","19035","","135","","","68","53","","","2","53","training","adjacent","GF","7","6","M.jpg","O.jpg","0","0","1","",""
"","feedback","","html-keyboard-response","354","411844","0.0-1.0-483.0-0.0","0","0","19035","","null","","","null","53","","","","","","","","","","","","","","","",""
"","ITI","","html-keyboard-response","355","412851","0.0-1.0-486.0","0","0","19035","","null","","","null","53","","","","","","","","","","","","","","","NaN",""
"","S1","","html-keyboard-response","356","413110","0.0-1.0-488.0","0","0","19035","","null","","","null","54","","","","","","","","","","","","","","","",""
"","ISI","","html-keyboard-response","357","413269","0.0-1.0-489.0","0","0","19035","","null","","","null","54","NaN","","","","","","","","","","","","","","",""
"","S2","","html-keyboard-response","358","413524","0.0-1.0-490.0","0","0","19035","","null","","","null","54","","NaN","","","","","","","","","","","","","",""
"","response","","html-keyboard-response","359","413729","0.0-1.0-491.0-0.0","0","0","19035","","203","","","75","54","","","2","54","training","adjacent","DC","4","3","N.jpg","Q.jpg","1","0","0","",""
"","feedback","","html-keyboard-response","360","414741","0.0-1.0-492.0-0.0","0","0","19035","","null","","","null","54","","","","","","","","","","","","","","","",""
"","time_out","","html-keyboard-response","361","416749","0.0-1.0-494.0-0.0","0","0","19035","","null","","","null","54","","","","","","","","","","","","","","","",""
"","ITI","","html-keyboard-response","362","417756","0.0-1.0-495.0","0","0","19035","","null","","","null","54","","","","","","","","","","","","","","","NaN",""
"","S1","","html-keyboard-response","363","418011","0.0-1.0-497.0","0","0","19035","","null","","","null","55","","","","","","","","","","","","","","","",""
"","ISI","","html-keyboard-response","364","418171","0.0-1.0-498.0","0","0","19035","","null","","","null","55","NaN","","","","","","","","","","","","","","",""
"","S2","","html-keyboard-response","365","418409","0.0-1.0-499.0","0","0","19035","","235","","","68","55","","d","2","55","training","adjacent","ED","5","4","P.jpg","N.jpg","0","0","1","",""
"","feedback","","html-keyboard-response","366","419419","0.0-1.0-501.0-0.0","0","0","19035","","null","","","null","55","","","","","","","","","","","","","","","",""
"","ITI","","html-keyboard-response","367","420430","0.0-1.0-504.0","0","0","19035","","null","","","null","55","","","","","","","","","","","","","","","NaN",""
"","S1","","html-keyboard-response","368","420694","0.0-1.0-506.0","0","0","19035","","null","","","null","56","","","","","","","","","","","","","","","",""
"","ISI","","html-keyboard-response","369","420853","0.0-1.0-507.0","0","0","19035","","null","","","null","56","NaN","","","","","","","","","","","","","","",""
"","S2","","html-keyboard-response","370","421117","0.0-1.0-508.0","0","0","19035","","null","","","null","56","","NaN","","","","","","","","","","","","","",""
"","response","","html-keyboard-response","371","421198","0.0-1.0-509.0-0.0","0","0","19035","","79","","","75","56","","","2","56","training","adjacent","EF","5","6","P.jpg","O.jpg","1","1","1","",""
"","feedback","","html-keyboard-response","372","422203","0.0-1.0-510.0-0.0","0","0","19035","","null","","","null","56","","","","","","","","","","","","","","","",""
"","ITI","","html-keyboard-response","373","423212","0.0-1.0-513.0","0","0","19035","","null","","","null","56","","","","","","","","","","","","","","","NaN",""
"","S1","","html-keyboard-response","374","423468","0.0-1.0-515.0","0","0","19035","","null","","","null","57","","","","","","","","","","","","","","","",""
"","ISI","","html-keyboard-response","375","423628","0.0-1.0-516.0","0","0","19035","","null","","","null","57","NaN","","","","","","","","","","","","","","",""
"","S2","","html-keyboard-response","376","423883","0.0-1.0-517.0","0","0","19035","","null","","","null","57","","NaN","","","","","","","","","","","","","",""
"","response","","html-keyboard-response","377","424180","0.0-1.0-518.0-0.0","0","0","19035","","295","","","75","57","","","2","57","training","adjacent","CD","3","4","Q.jpg","N.jpg","1","1","1","",""
"","feedback","","html-keyboard-response","378","425189","0.0-1.0-519.0-0.0","0","0","19035","","null","","","null","57","","","","","","","","","","","","","","","",""
"","ITI","","html-keyboard-response","379","426196","0.0-1.0-522.0","0","0","19035","","null","","","null","57","","","","","","","","","","","","","","","NaN",""
"","S1","","html-keyboard-response","380","426452","0.0-1.0-524.0","0","0","19035","","null","","","null","58","","","","","","","","","","","","","","","",""
"","ISI","","html-keyboard-response","381","426612","0.0-1.0-525.0","0","0","19035","","null","","","null","58","NaN","","","","","","","","","","","","","","",""
"","S2","","html-keyboard-response","382","426867","0.0-1.0-526.0","0","0","19035","","null","","","null","58","","NaN","","","","","","","","","","","","","",""
"","response","","html-keyboard-response","383","427060","0.0-1.0-527.0-0.0","0","0","19035","","192","","","68","58","","","2","58","training","adjacent","AB","1","2","R.jpg","L.jpg","0","1","0","",""
"","feedback","","html-keyboard-response","384","428069","0.0-1.0-528.0-0.0","0","0","19035","","null","","","null","58","","","","","","","","","","","","","","","",""
"","time_out","","html-keyboard-response","385","430077","0.0-1.0-530.0-0.0","0","0","19035","","null","","","null","58","","","","","","","","","","","","","","","",""
"","ITI","","html-keyboard-response","386","431084","0.0-1.0-531.0","0","0","19035","","null","","","null","58","","","","","","","","","","","","","","","NaN",""
"","S1","","html-keyboard-response","387","431340","0.0-1.0-533.0","0","0","19035","","null","","","null","59","","","","","","","","","","","","","","","",""
"","ISI","","html-keyboard-response","388","431499","0.0-1.0-534.0","0","0","19035","","null","","","null","59","NaN","","","","","","","","","","","","","","",""
"","S2","","html-keyboard-response","389","431755","0.0-1.0-535.0","0","0","19035","","null","","","null","59","","NaN","","","","","","","","","","","","","",""
"","response","","html-keyboard-response","390","431886","0.0-1.0-536.0-0.0","0","0","19035","","130","","","75","59","","","2","59","training","adjacent","GF","7","6","M.jpg","O.jpg","1","0","0","",""
"","feedback","","html-keyboard-response","391","432893","0.0-1.0-537.0-0.0","0","0","19035","","null","","","null","59","","","","","","","","","","","","","","","",""
"","time_out","","html-keyboard-response","392","434901","0.0-1.0-539.0-0.0","0","0","19035","","null","","","null","59","","","","","","","","","","","","","","","",""
"","ITI","","html-keyboard-response","393","435908","0.0-1.0-540.0","0","0","19035","","null","","","null","59","","","","","","","","","","","","","","","NaN",""
"","S1","","html-keyboard-response","394","436163","0.0-1.0-542.0","0","0","19035","","null","","","null","60","","","","","","","","","","","","","","","",""
"","ISI","","html-keyboard-response","395","436323","0.0-1.0-543.0","0","0","19035","","null","","","null","60","NaN","","","","","","","","","","","","","","",""
"","S2","","html-keyboard-response","396","436578","0.0-1.0-544.0","0","0","19035","","null","","","null","60","","NaN","","","","","","","","","","","","","",""
"","response","","html-keyboard-response","397","436667","0.0-1.0-545.0-0.0","0","0","19035","","87","","","75","60","","","2","60","training","adjacent","BC","2","3","L.jpg","Q.jpg","1","1","1","",""
"","feedback","","html-keyboard-response","398","437676","0.0-1.0-546.0-0.0","0","0","19035","","null","","","null","60","","","","","","","","","","","","","","","",""
"","ITI","","html-keyboard-response","399","438683","0.0-1.0-549.0","0","0","19035","","null","","","null","60","","","","","","","","","","","","","","","NaN",""
"","S1","","html-keyboard-response","400","438941","0.0-1.0-551.0","0","0","19035","","null","","","null","61","","","","","","","","","","","","","","","",""
"","ISI","","html-keyboard-response","401","439100","0.0-1.0-552.0","0","0","19035","","null","","","null","61","NaN","","","","","","","","","","","","","","",""
"","S2","","html-keyboard-response","402","439356","0.0-1.0-553.0","0","0","19035","","null","","","null","61","","NaN","","","","","","","","","","","","","",""
"","response","","html-keyboard-response","403","439694","0.0-1.0-554.0-0.0","0","0","19035","","337","","","75","61","","","2","61","training","adjacent","FG","6","7","O.jpg","M.jpg","1","1","1","",""
"","feedback","","html-keyboard-response","404","440700","0.0-1.0-555.0-0.0","0","0","19035","","null","","","null","61","","","","","","","","","","","","","","","",""
"","ITI","","html-keyboard-response","405","441707","0.0-1.0-558.0","0","0","19035","","null","","","null","61","","","","","","","","","","","","","","","NaN",""
"","S1","","html-keyboard-response","406","441962","0.0-1.0-560.0","0","0","19035","","null","","","null","62","","","","","","","","","","","","","","","",""
"","ISI","","html-keyboard-response","407","442125","0.0-1.0-561.0","0","0","19035","","null","","","null","62","NaN","","","","","","","","","","","","","","",""
"","S2","","html-keyboard-response","408","442386","0.0-1.0-562.0","0","0","19035","","null","","","null","62","","NaN","","","","","","","","","","","","","",""
"","response","","html-keyboard-response","409","442551","0.0-1.0-563.0-0.0","0","0","19035","","163","","","75","62","","","2","62","training","adjacent","EF","5","6","P.jpg","O.jpg","1","1","1","",""
"","feedback","","html-keyboard-response","410","443565","0.0-1.0-564.0-0.0","0","0","19035","","null","","","null","62","","","","","","","","","","","","","","","",""
"","ITI","","html-keyboard-response","411","444572","0.0-1.0-567.0","0","0","19035","","null","","","null","62","","","","","","","","","","","","","","","NaN",""
"","S1","","html-keyboard-response","412","444827","0.0-1.0-569.0","0","0","19035","","null","","","null","63","","","","","","","","","","","","","","","",""
"","ISI","","html-keyboard-response","413","444987","0.0-1.0-570.0","0","0","19035","","null","","","null","63","NaN","","","","","","","","","","","","","","",""
"","S2","","html-keyboard-response","414","445242","0.0-1.0-571.0","0","0","19035","","null","","","null","63","","NaN","","","","","","","","","","","","","",""
"","response","","html-keyboard-response","415","445386","0.0-1.0-572.0-0.0","0","0","19035","","142","","","75","63","","","2","63","training","adjacent","GF","7","6","M.jpg","O.jpg","1","0","0","",""
"","feedback","","html-keyboard-response","416","446397","0.0-1.0-573.0-0.0","0","0","19035","","null","","","null","63","","","","","","","","","","","","","","","",""
"","time_out","","html-keyboard-response","417","448403","0.0-1.0-575.0-0.0","0","0","19035","","null","","","null","63","","","","","","","","","","","","","","","",""
"","ITI","","html-keyboard-response","418","449410","0.0-1.0-576.0","0","0","19035","","null","","","null","63","","","","","","","","","","","","","","","NaN",""
"","S1","","html-keyboard-response","419","449669","0.0-1.0-578.0","0","0","19035","","null","","","null","64","","","","","","","","","","","","","","","",""
"","ISI","","html-keyboard-response","420","449828","0.0-1.0-579.0","0","0","19035","","null","","","null","64","NaN","","","","","","","","","","","","","","",""
"","S2","","html-keyboard-response","421","450083","0.0-1.0-580.0","0","0","19035","","null","","","null","64","","NaN","","","","","","","","","","","","","",""
"","response","","html-keyboard-response","422","450224","0.0-1.0-581.0-0.0","0","0","19035","","139","","","68","64","","","2","64","training","adjacent","AB","1","2","R.jpg","L.jpg","0","1","0","",""
"","feedback","","html-keyboard-response","423","451235","0.0-1.0-582.0-0.0","0","0","19035","","null","","","null","64","","","","","","","","","","","","","","","",""
"","time_out","","html-keyboard-response","424","453244","0.0-1.0-584.0-0.0","0","0","19035","","null","","","null","64","","","","","","","","","","","","","","","",""
"","ITI","","html-keyboard-response","425","454251","0.0-1.0-585.0","0","0","19035","","null","","","null","64","","","","","","","","","","","","","","","NaN",""
"","S1","","html-keyboard-response","426","454507","0.0-1.0-587.0","0","0","19035","","null","","","null","65","","","","","","","","","","","","","","","",""
"","ISI","","html-keyboard-response","427","454666","0.0-1.0-588.0","0","0","19035","","null","","","null","65","NaN","","","","","","","","","","","","","","",""
"","S2","","html-keyboard-response","428","454925","0.0-1.0-589.0","0","0","19035","","null","","","null","65","","NaN","","","","","","","","","","","","","",""
"","response","","html-keyboard-response","429","454993","0.0-1.0-590.0-0.0","0","0","19035","","67","","","75","65","","","2","65","training","adjacent","BC","2","3","L.jpg","Q.jpg","1","1","1","",""
"","feedback","","html-keyboard-response","430","456004","0.0-1.0-591.0-0.0","0","0","19035","","null","","","null","65","","","","","","","","","","","","","","","",""
"","ITI","","html-keyboard-response","431","457012","0.0-1.0-594.0","0","0","19035","","null","","","null","65","","","","","","","","","","","","","","","NaN",""
"","S1","","html-keyboard-response","432","457267","0.0-1.0-596.0","0","0","19035","","null","","","null","66","","","","","","","","","","","","","","","",""
"","ISI","","html-keyboard-response","433","457426","0.0-1.0-597.0","0","0","19035","","null","","","null","66","NaN","","","","","","","","","","","","","","",""
"","S2","","html-keyboard-response","434","457682","0.0-1.0-598.0","0","0","19035","","null","","","null","66","","NaN","","","","","","","","","","","","","",""
"","response","","html-keyboard-response","435","457941","0.0-1.0-599.0-0.0","0","0","19035","","258","","","75","66","","","2","66","training","adjacent","AB","1","2","R.jpg","L.jpg","1","1","1","",""
"","feedback","","html-keyboard-response","436","458947","0.0-1.0-600.0-0.0","0","0","19035","","null","","","null","66","","","","","","","","","","","","","","","",""
"","ITI","","html-keyboard-response","437","459955","0.0-1.0-603.0","0","0","19035","","null","","","null","66","","","","","","","","","","","","","","","NaN",""
"","S1","","html-keyboard-response","438","460210","0.0-1.0-605.0","0","0","19035","","null","","","null","67","","","","","","","","","","","","","","","",""
"","ISI","","html-keyboard-response","439","460373","0.0-1.0-606.0","0","0","19035","","null","","","null","67","NaN","","","","","","","","","","","","","","",""
"","S2","","html-keyboard-response","440","460637","0.0-1.0-607.0","0","0","19035","","null","","","null","67","","NaN","","","","","","","","","","","","","",""
"","response","","html-keyboard-response","441","461024","0.0-1.0-608.0-0.0","0","0","19035","","386","","","68","67","","","2","67","training","adjacent","ED","5","4","P.jpg","N.jpg","0","0","1","",""
"","feedback","","html-keyboard-response","442","462035","0.0-1.0-609.0-0.0","0","0","19035","","null","","","null","67","","","","","","","","","","","","","","","",""
"","ITI","","html-keyboard-response","443","463043","0.0-1.0-612.0","0","0","19035","","null","","","null","67","","","","","","","","","","","","","","","NaN",""
"","S1","","html-keyboard-response","444","463298","0.0-1.0-614.0","0","0","19035","","null","","","null","68","","","","","","","","","","","","","","","",""
"","ISI","","html-keyboard-response","445","463458","0.0-1.0-615.0","0","0","19035","","null","","","null","68","NaN","","","","","","","","","","","","","","",""
"","S2","","html-keyboard-response","446","463716","0.0-1.0-616.0","0","0","19035","","null","","","null","68","","NaN","","","","","","","","","","","","","",""
"","response","","html-keyboard-response","447","463948","0.0-1.0-617.0-0.0","0","0","19035","","232","","","75","68","","","2","68","training","adjacent","BC","2","3","L.jpg","Q.jpg","1","1","1","",""
"","feedback","","html-keyboard-response","448","464955","0.0-1.0-618.0-0.0","0","0","19035","","null","","","null","68","","","","","","","","","","","","","","","",""
"","ITI","","html-keyboard-response","449","465963","0.0-1.0-621.0","0","0","19035","","null","","","null","68","","","","","","","","","","","","","","","NaN",""
"","S1","","html-keyboard-response","450","466218","0.0-1.0-623.0","0","0","19035","","null","","","null","69","","","","","","","","","","","","","","","",""
"","ISI","","html-keyboard-response","451","466378","0.0-1.0-624.0","0","0","19035","","null","","","null","69","NaN","","","","","","","","","","","","","","",""
"","S2","","html-keyboard-response","452","466636","0.0-1.0-625.0","0","0","19035","","null","","","null","69","","NaN","","","","","","","","","","","","","",""
"","response","","html-keyboard-response","453","466682","0.0-1.0-626.0-0.0","0","0","19035","","45","","","68","69","","","2","69","training","adjacent","DE","4","5","N.jpg","P.jpg","0","1","0","",""
"","feedback","","html-keyboard-response","454","467689","0.0-1.0-627.0-0.0","0","0","19035","","null","","","null","69","","","","","","","","","","","","","","","",""
"","time_out","","html-keyboard-response","455","469698","0.0-1.0-629.0-0.0","0","0","19035","","null","","","null","69","","","","","","","","","","","","","","","",""
"","ITI","","html-keyboard-response","456","470708","0.0-1.0-630.0","0","0","19035","","null","","","null","69","","","","","","","","","","","","","","","NaN",""
"","S1","","html-keyboard-response","457","470972","0.0-1.0-632.0","0","0","19035","","null","","","null","70","","","","","","","","","","","","","","","",""
"","ISI","","html-keyboard-response","458","471132","0.0-1.0-633.0","0","0","19035","","null","","","null","70","NaN","","","","","","","","","","","","","","",""
"","S2","","html-keyboard-response","459","471387","0.0-1.0-634.0","0","0","19035","","null","","","null","70","","NaN","","","","","","","","","","","","","",""
"","response","","html-keyboard-response","460","471407","0.0-1.0-635.0-0.0","0","0","19035","","19","","","75","70","","","2","70","training","adjacent","ED","5","4","P.jpg","N.jpg","1","0","0","",""
"","feedback","","html-keyboard-response","461","472418","0.0-1.0-636.0-0.0","0","0","19035","","null","","","null","70","","","","","","","","","","","","","","","",""
"","time_out","","html-keyboard-response","462","474426","0.0-1.0-638.0-0.0","0","0","19035","","null","","","null","70","","","","","","","","","","","","","","","",""
"","ITI","","html-keyboard-response","463","475433","0.0-1.0-639.0","0","0","19035","","null","","","null","70","","","","","","","","","","","","","","","NaN",""
"","S1","","html-keyboard-response","464","475692","0.0-1.0-641.0","0","0","19035","","null","","","null","71","","","","","","","","","","","","","","","",""
"","ISI","","html-keyboard-response","465","475851","0.0-1.0-642.0","0","0","19035","","23","","","68","71","d","","","","","","","","","","","","","","",""
"","S2","","html-keyboard-response","466","476104","0.0-1.0-643.0","0","0","19035","","null","","","null","71","","NaN","","","","","","","","","","","","","",""
"","response","","html-keyboard-response","467","476459","0.0-1.0-644.0-0.0","0","0","19035","","354","","","68","71","","","2","71","training","adjacent","FE","6","5","O.jpg","P.jpg","0","0","1","",""
"","feedback","","html-keyboard-response","468","477468","0.0-1.0-645.0-0.0","0","0","19035","","null","","","null","71","","","","","","","","","","","","","","","",""
"","ITI","","html-keyboard-response","469","478475","0.0-1.0-648.0","0","0","19035","","null","","","null","71","","","","","","","","","","","","","","","NaN",""
"","S1","","html-keyboard-response","470","478730","0.0-1.0-650.0","0","0","19035","","null","","","null","72","","","","","","","","","","","","","","","",""
"","ISI","","html-keyboard-response","471","478890","0.0-1.0-651.0","0","0","19035","","null","","","null","72","NaN","","","","","","","","","","","","","","",""
"","S2","","html-keyboard-response","472","479148","0.0-1.0-652.0","0","0","19035","","null","","","null","72","","NaN","","","","","","","","","","","","","",""
"","response","","html-keyboard-response","473","479519","0.0-1.0-653.0-0.0","0","0","19035","","369","","","75","72","","","2","72","training","adjacent","CB","3","2","Q.jpg","L.jpg","1","0","0","",""
"","feedback","","html-keyboard-response","474","480530","0.0-1.0-654.0-0.0","0","0","19035","","null","","","null","72","","","","","","","","","","","","","","","",""
"","time_out","","html-keyboard-response","475","482538","0.0-1.0-656.0-0.0","0","0","19035","","null","","","null","72","","","","","","","","","","","","","","","",""
"","ITI","","html-keyboard-response","476","483546","0.0-1.0-657.0","0","0","19035","","null","","","null","72","","","","","","","","","","","","","","","NaN",""
"","S1","","html-keyboard-response","477","483804","0.0-1.0-659.0","0","0","19035","","null","","","null","73","","","","","","","","","","","","","","","",""
"","ISI","","html-keyboard-response","478","483964","0.0-1.0-660.0","0","0","19035","","null","","","null","73","NaN","","","","","","","","","","","","","","",""
"","S2","","html-keyboard-response","479","484210","0.0-1.0-661.0","0","0","19035","","245","","","68","73","","d","2","73","training","adjacent","EF","5","6","P.jpg","O.jpg","0","1","0","",""
"","feedback","","html-keyboard-response","480","485217","0.0-1.0-663.0-0.0","0","0","19035","","null","","","null","73","","","","","","","","","","","","","","","",""
"","time_out","","html-keyboard-response","481","487226","0.0-1.0-665.0-0.0","0","0","19035","","null","","","null","73","","","","","","","","","","","","","","","",""
"","ITI","","html-keyboard-response","482","488236","0.0-1.0-666.0","0","0","19035","","null","","","null","73","","","","","","","","","","","","","","","NaN",""
"","S1","","html-keyboard-response","483","488500","0.0-1.0-668.0","0","0","19035","","null","","","null","74","","","","","","","","","","","","","","","",""
"","ISI","","html-keyboard-response","484","488660","0.0-1.0-669.0","0","0","19035","","null","","","null","74","NaN","","","","","","","","","","","","","","",""
"","S2","","html-keyboard-response","485","488924","0.0-1.0-670.0","0","0","19035","","null","","","null","74","","NaN","","","","","","","","","","","","","",""
"","response","","html-keyboard-response","486","488946","0.0-1.0-671.0-0.0","0","0","19035","","21","","","75","74","","","2","74","training","adjacent","CB","3","2","Q.jpg","L.jpg","1","0","0","",""
"","feedback","","html-keyboard-response","487","489954","0.0-1.0-672.0-0.0","0","0","19035","","null","","","null","74","","","","","","","","","","","","","","","",""
"","time_out","","html-keyboard-response","488","491963","0.0-1.0-674.0-0.0","0","0","19035","","null","","","null","74","","","","","","","","","","","","","","","",""
"","ITI","","html-keyboard-response","489","492970","0.0-1.0-675.0","0","0","19035","","null","","","null","74","","","","","","","","","","","","","","","NaN",""
"","S1","","html-keyboard-response","490","493225","0.0-1.0-677.0","0","0","19035","","null","","","null","75","","","","","","","","","","","","","","","",""
"","ISI","","html-keyboard-response","491","493387","0.0-1.0-678.0","0","0","19035","","null","","","null","75","NaN","","","","","","","","","","","","","","",""
"","S2","","html-keyboard-response","492","493643","0.0-1.0-679.0","0","0","19035","","null","","","null","75","","NaN","","","","","","","","","","","","","",""
"","response","","html-keyboard-response","493","493705","0.0-1.0-680.0-0.0","0","0","19035","","61","","","68","75","","","2","75","training","adjacent","DC","4","3","N.jpg","Q.jpg","0","0","1","",""
"","feedback","","html-keyboard-response","494","494714","0.0-1.0-681.0-0.0","0","0","19035","","null","","","null","75","","","","","","","","","","","","","","","",""
"","ITI","","html-keyboard-response","495","495721","0.0-1.0-684.0","0","0","19035","","null","","","null","75","","","","","","","","","","","","","","","NaN",""
"","S1","","html-keyboard-response","496","495980","0.0-1.0-686.0","0","0","19035","","null","","","null","76","","","","","","","","","","","","","","","",""
"","ISI","","html-keyboard-response","497","496139","0.0-1.0-687.0","0","0","19035","","null","","","null","76","NaN","","","","","","","","","","","","","","",""
"","S2","","html-keyboard-response","498","496394","0.0-1.0-688.0","0","0","19035","","null","","","null","76","","NaN","","","","","","","","","","","","","",""
"","response","","html-keyboard-response","499","496799","0.0-1.0-689.0-0.0","0","0","19035","","403","","","75","76","","","2","76","training","adjacent","DC","4","3","N.jpg","Q.jpg","1","0","0","",""
"","feedback","","html-keyboard-response","500","497811","0.0-1.0-690.0-0.0","0","0","19035","","null","","","null","76","","","","","","","","","","","","","","","",""
"","time_out","","html-keyboard-response","501","499819","0.0-1.0-692.0-0.0","0","0","19035","","null","","","null","76","","","","","","","","","","","","","","","",""
"","ITI","","html-keyboard-response","502","500827","0.0-1.0-693.0","0","0","19035","","null","","","null","76","","","","","","","","","","","","","","","NaN",""
"","S1","","html-keyboard-response","503","501082","0.0-1.0-695.0","0","0","19035","","null","","","null","77","","","","","","","","","","","","","","","",""
"","ISI","","html-keyboard-response","504","501241","0.0-1.0-696.0","0","0","19035","","null","","","null","77","NaN","","","","","","","","","","","","","","",""
"","S2","","html-keyboard-response","505","501497","0.0-1.0-697.0","0","0","19035","","null","","","null","77","","NaN","","","","","","","","","","","","","",""
"","response","","html-keyboard-response","506","501771","0.0-1.0-698.0-0.0","0","0","19035","","273","","","68","77","","","2","77","training","adjacent","DE","4","5","N.jpg","P.jpg","0","1","0","",""
"","feedback","","html-keyboard-response","507","502777","0.0-1.0-699.0-0.0","0","0","19035","","null","","","null","77","","","","","","","","","","","","","","","",""
"","time_out","","html-keyboard-response","508","504785","0.0-1.0-701.0-0.0","0","0","19035","","null","","","null","77","","","","","","","","","","","","","","","",""
"","ITI","","html-keyboard-response","509","505796","0.0-1.0-702.0","0","0","19035","","674","","","75","77","","","","","","","","","","","","","","","k",""
"","S1","","html-keyboard-response","510","506060","0.0-1.0-704.0","0","0","19035","","null","","","null","78","","","","","","","","","","","","","","","",""
"","ISI","","html-keyboard-response","511","506219","0.0-1.0-705.0","0","0","19035","","null","","","null","78","NaN","","","","","","","","","","","","","","",""
"","S2","","html-keyboard-response","512","506483","0.0-1.0-706.0","0","0","19035","","null","","","null","78","","NaN","","","","","","","","","","","","","",""
"","response","","html-keyboard-response","513","506721","0.0-1.0-707.0-0.0","0","0","19035","","236","","","75","78","","","2","78","training","adjacent","FE","6","5","O.jpg","P.jpg","1","0","0","",""
"","feedback","","html-keyboard-response","514","507731","0.0-1.0-708.0-0.0","0","0","19035","","null","","","null","78","","","","","","","","","","","","","","","",""
"","time_out","","html-keyboard-response","515","509737","0.0-1.0-710.0-0.0","0","0","19035","","null","","","null","78","","","","","","","","","","","","","","","",""
"","ITI","","html-keyboard-response","516","510747","0.0-1.0-711.0","0","0","19035","","null","","","null","78","","","","","","","","","","","","","","","NaN",""
"","S1","","html-keyboard-response","517","511011","0.0-1.0-713.0","0","0","19035","","null","","","null","79","","","","","","","","","","","","","","","",""
"","ISI","","html-keyboard-response","518","511171","0.0-1.0-714.0","0","0","19035","","null","","","null","79","NaN","","","","","","","","","","","","","","",""
"","S2","","html-keyboard-response","519","511426","0.0-1.0-715.0","0","0","19035","","null","","","null","79","","NaN","","","","","","","","","","","","","",""
"","response","","html-keyboard-response","520","511649","0.0-1.0-716.0-0.0","0","0","19035","","221","","","68","79","","","2","79","training","adjacent","CD","3","4","Q.jpg","N.jpg","0","1","0","",""
"","feedback","","html-keyboard-response","521","512657","0.0-1.0-717.0-0.0","0","0","19035","","null","","","null","79","","","","","","","","","","","","","","","",""
"","time_out","","html-keyboard-response","522","514666","0.0-1.0-719.0-0.0","0","0","19035","","null","","","null","79","","","","","","","","","","","","","","","",""
"","ITI","","html-keyboard-response","523","515672","0.0-1.0-720.0","0","0","19035","","null","","","null","79","","","","","","","","","","","","","","","NaN",""
"","S1","","html-keyboard-response","524","515931","0.0-1.0-722.0","0","0","19035","","null","","","null","80","","","","","","","","","","","","","","","",""
"","ISI","","html-keyboard-response","525","516090","0.0-1.0-723.0","0","0","19035","","null","","","null","80","NaN","","","","","","","","","","","","","","",""
"","S2","","html-keyboard-response","526","516346","0.0-1.0-724.0","0","0","19035","","null","","","null","80","","NaN","","","","","","","","","","","","","",""
"","response","","html-keyboard-response","527","516576","0.0-1.0-725.0-0.0","0","0","19035","","229","","","68","80","","","2","80","training","adjacent","FE","6","5","O.jpg","P.jpg","0","0","1","",""
"","feedback","","html-keyboard-response","528","517584","0.0-1.0-726.0-0.0","0","0","19035","","null","","","null","80","","","","","","","","","","","","","","","",""
"","ITI","","html-keyboard-response","529","518595","0.0-1.0-729.0","0","0","19035","","null","","","null","80","","","","","","","","","","","","","","","NaN",""
"","S1","","html-keyboard-response","530","518859","0.0-1.0-731.0","0","0","19035","","null","","","null","81","","","","","","","","","","","","","","","",""
"","ISI","","html-keyboard-response","531","519019","0.0-1.0-732.0","0","0","19035","","null","","","null","81","NaN","","","","","","","","","","","","","","",""
"","S2","","html-keyboard-response","532","519283","0.0-1.0-733.0","0","0","19035","","null","","","null","81","","NaN","","","","","","","","","","","","","",""
"","response","","html-keyboard-response","533","519603","0.0-1.0-734.0-0.0","0","0","19035","","318","","","75","81","","","2","81","training","adjacent","FG","6","7","O.jpg","M.jpg","1","1","1","",""
"","feedback","","html-keyboard-response","534","520610","0.0-1.0-735.0-0.0","0","0","19035","","null","","","null","81","","","","","","","","","","","","","","","",""
"","ITI","","html-keyboard-response","535","521617","0.0-1.0-738.0","0","0","19035","","null","","","null","81","","","","","","","","","","","","","","","NaN",""
"","S1","","html-keyboard-response","536","521875","0.0-1.0-740.0","0","0","19035","","null","","","null","82","","","","","","","","","","","","","","","",""
"","ISI","","html-keyboard-response","537","522035","0.0-1.0-741.0","0","0","19035","","null","","","null","82","NaN","","","","","","","","","","","","","","",""
"","S2","","html-keyboard-response","538","522290","0.0-1.0-742.0","0","0","19035","","null","","","null","82","","NaN","","","","","","","","","","","","","",""
"","response","","html-keyboard-response","539","522607","0.0-1.0-743.0-0.0","0","0","19035","","316","","","75","82","","","2","82","training","adjacent","CD","3","4","Q.jpg","N.jpg","1","1","1","",""
"","feedback","","html-keyboard-response","540","523617","0.0-1.0-744.0-0.0","0","0","19035","","null","","","null","82","","","","","","","","","","","","","","","",""
"","ITI","","html-keyboard-response","541","524627","0.0-1.0-747.0","0","0","19035","","null","","","null","82","","","","","","","","","","","","","","","NaN",""
"","S1","","html-keyboard-response","542","524882","0.0-1.0-749.0","0","0","19035","","null","","","null","83","","","","","","","","","","","","","","","",""
"","ISI","","html-keyboard-response","543","525041","0.0-1.0-750.0","0","0","19035","","null","","","null","83","NaN","","","","","","","","","","","","","","",""
"","S2","","html-keyboard-response","544","525297","0.0-1.0-751.0","0","0","19035","","null","","","null","83","","NaN","","","","","","","","","","","","","",""
"","response","","html-keyboard-response","545","525700","0.0-1.0-752.0-0.0","0","0","19035","","402","","","68","83","","","2","83","training","adjacent","FG","6","7","O.jpg","M.jpg","0","1","0","",""
"","feedback","","html-keyboard-response","546","526705","0.0-1.0-753.0-0.0","0","0","19035","","null","","","null","83","","","","","","","","","","","","","","","",""
"","time_out","","html-keyboard-response","547","528713","0.0-1.0-755.0-0.0","0","0","19035","","null","","","null","83","","","","","","","","","","","","","","","",""
"","ITI","","html-keyboard-response","548","529720","0.0-1.0-756.0","0","0","19035","","null","","","null","83","","","","","","","","","","","","","","","NaN",""
"","S1","","html-keyboard-response","549","529978","0.0-1.0-758.0","0","0","19035","","null","","","null","84","","","","","","","","","","","","","","","",""
"","ISI","","html-keyboard-response","550","530138","0.0-1.0-759.0","0","0","19035","","null","","","null","84","NaN","","","","","","","","","","","","","","",""
"","S2","","html-keyboard-response","551","530393","0.0-1.0-760.0","0","0","19035","","null","","","null","84","","NaN","","","","","","","","","","","","","",""
"","response","","html-keyboard-response","552","530414","0.0-1.0-761.0-0.0","0","0","19035","","19","","","75","84","","","2","84","training","adjacent","GF","7","6","M.jpg","O.jpg","1","0","0","",""
"","feedback","","html-keyboard-response","553","531427","0.0-1.0-762.0-0.0","0","0","19035","","null","","","null","84","","","","","","","","","","","","","","","",""
"","time_out","","html-keyboard-response","554","533433","0.0-1.0-764.0-0.0","0","0","19035","","null","","","null","84","","","","","","","","","","","","","","","",""
"","ITI","","html-keyboard-response","555","534443","0.0-1.0-765.0","0","0","19035","","null","","","null","84","","","","","","","","","","","","","","","NaN",""
"","S1","","html-keyboard-response","556","534707","0.0-1.0-767.0","0","0","19035","","null","","","null","85","","","","","","","","","","","","","","","",""
"","ISI","","html-keyboard-response","557","534866","0.0-1.0-768.0","0","0","19035","","null","","","null","85","NaN","","","","","","","","","","","","","","",""
"","S2","","html-keyboard-response","558","535122","0.0-1.0-769.0","0","0","19035","","null","","","null","85","","NaN","","","","","","","","","","","","","",""
"","response","","html-keyboard-response","559","535330","0.0-1.0-770.0-0.0","0","0","19035","","207","","","68","85","","","2","85","training","adjacent","CB","3","2","Q.jpg","L.jpg","0","0","1","",""
"","feedback","","html-keyboard-response","560","536338","0.0-1.0-771.0-0.0","0","0","19035","","null","","","null","85","","","","","","","","","","","","","","","",""
"","ITI","","html-keyboard-response","561","537345","0.0-1.0-774.0","0","0","19035","","null","","","null","85","","","","","","","","","","","","","","","NaN",""
"","S1","","html-keyboard-response","562","537600","0.0-1.0-776.0","0","0","19035","","null","","","null","86","","","","","","","","","","","","","","","",""
"","ISI","","html-keyboard-response","563","537760","0.0-1.0-777.0","0","0","19035","","null","","","null","86","NaN","","","","","","","","","","","","","","",""
"","S2","","html-keyboard-response","564","538018","0.0-1.0-778.0","0","0","19035","","null","","","null","86","","NaN","","","","","","","","","","","","","",""
"","response","","html-keyboard-response","565","538548","0.0-1.0-779.0-0.0","0","0","19035","","528","","","68","86","","","2","86","training","adjacent","BC","2","3","L.jpg","Q.jpg","0","1","0","",""
"","feedback","","html-keyboard-response","566","539553","0.0-1.0-780.0-0.0","0","0","19035","","null","","","null","86","","","","","","","","","","","","","","","",""
"","time_out","","html-keyboard-response","567","541562","0.0-1.0-782.0-0.0","0","0","19035","","null","","","null","86","","","","","","","","","","","","","","","",""
"","ITI","","html-keyboard-response","568","542569","0.0-1.0-783.0","0","0","19035","","null","","","null","86","","","","","","","","","","","","","","","NaN",""
"","S1","","html-keyboard-response","569","542825","0.0-1.0-785.0","0","0","19035","","null","","","null","87","","","","","","","","","","","","","","","",""
"","ISI","","html-keyboard-response","570","542984","0.0-1.0-786.0","0","0","19035","","null","","","null","87","NaN","","","","","","","","","","","","","","",""
"","S2","","html-keyboard-response","571","543243","0.0-1.0-787.0","0","0","19035","","null","","","null","87","","NaN","","","","","","","","","","","","","",""
"","response","","html-keyboard-response","572","543329","0.0-1.0-788.0-0.0","0","0","19035","","85","","","75","87","","","2","87","training","adjacent","BA","2","1","L.jpg","R.jpg","1","0","0","",""
"","feedback","","html-keyboard-response","573","544337","0.0-1.0-789.0-0.0","0","0","19035","","null","","","null","87","","","","","","","","","","","","","","","",""
"","time_out","","html-keyboard-response","574","546345","0.0-1.0-791.0-0.0","0","0","19035","","null","","","null","87","","","","","","","","","","","","","","","",""
"","ITI","","html-keyboard-response","575","547353","0.0-1.0-792.0","0","0","19035","","null","","","null","87","","","","","","","","","","","","","","","NaN",""
"","S1","","html-keyboard-response","576","547608","0.0-1.0-794.0","0","0","19035","","null","","","null","88","","","","","","","","","","","","","","","",""
"","ISI","","html-keyboard-response","577","547770","0.0-1.0-795.0","0","0","19035","","63","","","68","88","d","","","","","","","","","","","","","","",""
"","S2","","html-keyboard-response","578","548034","0.0-1.0-796.0","0","0","19035","","null","","","null","88","","NaN","","","","","","","","","","","","","",""
"","response","","html-keyboard-response","579","548560","0.0-1.0-797.0-0.0","0","0","19035","","524","","","68","88","","","2","88","training","adjacent","BA","2","1","L.jpg","R.jpg","0","0","1","",""
"","feedback","","html-keyboard-response","580","549570","0.0-1.0-798.0-0.0","0","0","19035","","null","","","null","88","","","","","","","","","","","","","","","",""
