"success","ttype","start_time","trial_type","trial_index","time_elapsed","internal_node_id","warning","missed_checkup","PID","view_history","rt","responses","repeat_instructions","key_press","index","keypress_isi","keypress_S2","block","trial_num","phase","group_type","pair_type","S1_stim","S2_stim","S1_img","S2_img","S1_chosen","S1_higher","accuracy","keypress_iti","total_bonus_tally"
"true","full_screen","d03072023hr2037","fullscreen","0","28979","0.0-0.0","0","0","41313","","","","","","","","","","","","","","","","","","","","","",""
"","instructions","","instructions","1","62825","0.0-1.0-0.0-0.0","0","0","41313","[{""page_index"":0,""viewing_time"":5067},{""page_index"":1,""viewing_time"":13202},{""page_index"":2,""viewing_time"":13536},{""page_index"":3,""viewing_time"":2040}]","33845","","","","","","","","","","","","","","","","","","","",""
"","comprehension_check","","survey-multi-choice","2","100202","0.0-1.0-0.0-1.0","0","0","41313","","37374","{""Q0"":""True"",""Q1"":""D"",""Q2"":""Once the second image appears and while the screen 'MAKE A CHOICE' is shown"",""Q3"":""Green mark"",""Q4"":""either D or K""}","1","","","","","","","","","","","","","","","","","",""
"","missed_instruction_checkup","","html-keyboard-response","3","103022","0.0-1.0-0.0-2.0-0.0","0","1","41313","","2816","","","32","","","","","","","","","","","","","","","","",""
"","instructions","","instructions","4","123639","0.0-1.0-0.1-0.1","0","0","41313","[{""page_index"":0,""viewing_time"":3857},{""page_index"":1,""viewing_time"":11588},{""page_index"":2,""viewing_time"":3333},{""page_index"":3,""viewing_time"":1838}]","20616","","","","","","","","","","","","","","","","","","","",""
"","comprehension_check","","survey-multi-choice","5","135620","0.0-1.0-0.1-1.1","0","0","41313","","11979","{""Q0"":""True"",""Q1"":""K"",""Q2"":""Once the second image appears and while the screen 'MAKE A CHOICE' is shown"",""Q3"":""Green mark"",""Q4"":""either D or K""}","0","","","","","","","","","","","","","","","","","",""
"","start_exp","","html-keyboard-response","6","138413","0.0-1.0-1.0","0","0","41313","","2790","","","32","","","","","","","","","","","","","","","","",""
"","S1","","html-keyboard-response","7","138665","0.0-1.0-2.0","0","0","41313","","null","","","null","0","","","","","","","","","","","","","","","",""
"","ISI","","html-keyboard-response","8","139667","0.0-1.0-3.0","0","0","41313","","null","","","null","0","NaN","","","","","","","","","","","","","","",""
"","S2","","html-keyboard-response","9","139918","0.0-1.0-4.0","0","0","41313","","null","","","null","0","","NaN","","","","","","","","","","","","","",""
"","response","","html-keyboard-response","10","140787","0.0-1.0-5.0-0.0","0","0","41313","","868","","","68","0","","","1","0","training","adjacent","BA","2","1","M.jpg","P.jpg","0","0","1","",""
"","feedback","","html-keyboard-response","11","141789","0.0-1.0-6.0-0.0","0","0","41313","","null","","","null","0","","","","","","","","","","","","","","","",""
"","ITI","","html-keyboard-response","12","142791","0.0-1.0-9.0","0","0","41313","","null","","","null","0","","","","","","","","","","","","","","","NaN",""
"","S1","","html-keyboard-response","13","143043","0.0-1.0-11.0","0","0","41313","","null","","","null","1","","","","","","","","","","","","","","","",""
"","ISI","","html-keyboard-response","14","144045","0.0-1.0-12.0","0","0","41313","","null","","","null","1","NaN","","","","","","","","","","","","","","",""
"","S2","","html-keyboard-response","15","144296","0.0-1.0-13.0","0","0","41313","","null","","","null","1","","NaN","","","","","","","","","","","","","",""
"","response","","html-keyboard-response","16","144820","0.0-1.0-14.0-0.0","0","0","41313","","523","","","75","1","","","1","1","training","adjacent","AB","1","2","P.jpg","M.jpg","1","1","1","",""
"","feedback","","html-keyboard-response","17","145823","0.0-1.0-15.0-0.0","0","0","41313","","null","","","null","1","","","","","","","","","","","","","","","",""
"","ITI","","html-keyboard-response","18","146824","0.0-1.0-18.0","0","0","41313","","null","","","null","1","","","","","","","","","","","","","","","NaN",""
"","S1","","html-keyboard-response","19","147075","0.0-1.0-20.0","0","0","41313","","null","","","null","2","","","","","","","","","","","","","","","",""
"","ISI","","html-keyboard-response","20","148077","0.0-1.0-21.0","0","0","41313","","null","","","null","2","NaN","","","","","","","","","","","","","","",""
"","S2","","html-keyboard-response","21","148328","0.0-1.0-22.0","0","0","41313","","null","","","null","2","","NaN","","","","","","","","","","","","","",""
"","response","","html-keyboard-response","22","148595","0.0-1.0-23.0-0.0","0","0","41313","","265","","","75","2","","","1","2","training","adjacent","BA","2","1","M.jpg","P.jpg","1","0","0","",""
"","feedback","","html-keyboard-response","23","149597","0.0-1.0-24.0-0.0","0","0","41313","","null","","","null","2","","","","","","","","","","","","","","","",""
"","time_out","","html-keyboard-response","24","151598","0.0-1.0-26.0-0.0","0","0","41313","","null","","","null","2","","","","","","","","","","","","","","","",""
"","ITI","","html-keyboard-response","25","152600","0.0-1.0-27.0","0","0","41313","","null","","","null","2","","","","","","","","","","","","","","","NaN",""
"","S1","","html-keyboard-response","26","152852","0.0-1.0-29.0","0","0","41313","","null","","","null","3","","","","","","","","","","","","","","","",""
"","ISI","","html-keyboard-response","27","153854","0.0-1.0-30.0","0","0","41313","","null","","","null","3","NaN","","","","","","","","","","","","","","",""
"","S2","","html-keyboard-response","28","154106","0.0-1.0-31.0","0","0","41313","","null","","","null","3","","NaN","","","","","","","","","","","","","",""
"","response","","html-keyboard-response","29","155133","0.0-1.0-32.0-0.0","0","0","41313","","1026","","","68","3","","","1","3","training","adjacent","DC","4","3","L.jpg","O.jpg","0","0","1","",""
"","feedback","","html-keyboard-response","30","156135","0.0-1.0-33.0-0.0","0","0","41313","","null","","","null","3","","","","","","","","","","","","","","","",""
"","ITI","","html-keyboard-response","31","157136","0.0-1.0-36.0","0","0","41313","","null","","","null","3","","","","","","","","","","","","","","","NaN",""
"","S1","","html-keyboard-response","32","157388","0.0-1.0-38.0","0","0","41313","","null","","","null","4","","","","","","","","","","","","","","","",""
"","ISI","","html-keyboard-response","33","158390","0.0-1.0-39.0","0","0","41313","","null","","","null","4","NaN","","","","","","","","","","","","","","",""
"","S2","","html-keyboard-response","34","158642","0.0-1.0-40.0","0","0","41313","","null","","","null","4","","NaN","","","","","","","","","","","","","",""
"","response","","html-keyboard-response","35","158909","0.0-1.0-41.0-0.0","0","0","41313","","266","","","75","4","","","1","4","training","adjacent","CB","3","2","O.jpg","M.jpg","1","0","0","",""
"","feedback","","html-keyboard-response","36","159917","0.0-1.0-42.0-0.0","0","0","41313","","null","","","null","4","","","","","","","","","","","","","","","",""
"","time_out","","html-keyboard-response","37","161919","0.0-1.0-44.0-0.0","0","0","41313","","null","","","null","4","","","","","","","","","","","","","","","",""
"","ITI","","html-keyboard-response","38","162921","0.0-1.0-45.0","0","0","41313","","null","","","null","4","","","","","","","","","","","","","","","NaN",""
"","S1","","html-keyboard-response","39","163172","0.0-1.0-47.0","0","0","41313","","null","","","null","5","","","","","","","","","","","","","","","",""
"","ISI","","html-keyboard-response","40","164173","0.0-1.0-48.0","0","0","41313","","null","","","null","5","NaN","","","","","","","","","","","","","","",""
"","S2","","html-keyboard-response","41","164424","0.0-1.0-49.0","0","0","41313","","null","","","null","5","","NaN","","","","","","","","","","","","","",""
"","response","","html-keyboard-response","42","165361","0.0-1.0-50.0-0.0","0","0","41313","","936","","","68","5","","","1","5","training","adjacent","GF","7","6","Q.jpg","N.jpg","0","0","1","",""
"","feedback","","html-keyboard-response","43","166363","0.0-1.0-51.0-0.0","0","0","41313","","null","","","null","5","","","","","","","","","","","","","","","",""
"","ITI","","html-keyboard-response","44","167364","0.0-1.0-54.0","0","0","41313","","null","","","null","5","","","","","","","","","","","","","","","NaN",""
"","S1","","html-keyboard-response","45","167616","0.0-1.0-56.0","0","0","41313","","null","","","null","6","","","","","","","","","","","","","","","",""
"","ISI","","html-keyboard-response","46","168618","0.0-1.0-57.0","0","0","41313","","null","","","null","6","NaN","","","","","","","","","","","","","","",""
"","S2","","html-keyboard-response","47","168870","0.0-1.0-58.0","0","0","41313","","null","","","null","6","","NaN","","","","","","","","","","","","","",""
"","response","","html-keyboard-response","48","169985","0.0-1.0-59.0-0.0","0","0","41313","","1114","","","75","6","","","1","6","training","adjacent","ED","5","4","R.jpg","L.jpg","1","0","0","",""
"","feedback","","html-keyboard-response","49","170986","0.0-1.0-60.0-0.0","0","0","41313","","null","","","null","6","","","","","","","","","","","","","","","",""
"","time_out","","html-keyboard-response","50","172988","0.0-1.0-62.0-0.0","0","0","41313","","null","","","null","6","","","","","","","","","","","","","","","",""
"","ITI","","html-keyboard-response","51","173989","0.0-1.0-63.0","0","0","41313","","null","","","null","6","","","","","","","","","","","","","","","NaN",""
"","S1","","html-keyboard-response","52","174241","0.0-1.0-65.0","0","0","41313","","null","","","null","7","","","","","","","","","","","","","","","",""
"","ISI","","html-keyboard-response","53","175243","0.0-1.0-66.0","0","0","41313","","null","","","null","7","NaN","","","","","","","","","","","","","","",""
"","S2","","html-keyboard-response","54","175494","0.0-1.0-67.0","0","0","41313","","null","","","null","7","","NaN","","","","","","","","","","","","","",""
"","response","","html-keyboard-response","55","176358","0.0-1.0-68.0-0.0","0","0","41313","","862","","","68","7","","","1","7","training","adjacent","DC","4","3","L.jpg","O.jpg","0","0","1","",""
"","feedback","","html-keyboard-response","56","177360","0.0-1.0-69.0-0.0","0","0","41313","","null","","","null","7","","","","","","","","","","","","","","","",""
"","ITI","","html-keyboard-response","57","178361","0.0-1.0-72.0","0","0","41313","","null","","","null","7","","","","","","","","","","","","","","","NaN",""
"","S1","","html-keyboard-response","58","178613","0.0-1.0-74.0","0","0","41313","","null","","","null","8","","","","","","","","","","","","","","","",""
"","ISI","","html-keyboard-response","59","179614","0.0-1.0-75.0","0","0","41313","","null","","","null","8","NaN","","","","","","","","","","","","","","",""
"","S2","","html-keyboard-response","60","179866","0.0-1.0-76.0","0","0","41313","","null","","","null","8","","NaN","","","","","","","","","","","","","",""
"","response","","html-keyboard-response","61","180743","0.0-1.0-77.0-0.0","0","0","41313","","877","","","68","8","","","1","8","training","adjacent","DE","4","5","L.jpg","R.jpg","0","1","0","",""
"","feedback","","html-keyboard-response","62","181745","0.0-1.0-78.0-0.0","0","0","41313","","null","","","null","8","","","","","","","","","","","","","","","",""
"","time_out","","html-keyboard-response","63","183748","0.0-1.0-80.0-0.0","0","0","41313","","null","","","null","8","","","","","","","","","","","","","","","",""
"","ITI","","html-keyboard-response","64","184750","0.0-1.0-81.0","0","0","41313","","null","","","null","8","","","","","","","","","","","","","","","NaN",""
"","S1","","html-keyboard-response","65","185001","0.0-1.0-83.0","0","0","41313","","null","","","null","9","","","","","","","","","","","","","","","",""
"","ISI","","html-keyboard-response","66","186003","0.0-1.0-84.0","0","0","41313","","null","","","null","9","NaN","","","","","","","","","","","","","","",""
"","S2","","html-keyboard-response","67","186254","0.0-1.0-85.0","0","0","41313","","null","","","null","9","","NaN","","","","","","","","","","","","","",""
"","response","","html-keyboard-response","68","187108","0.0-1.0-86.0-0.0","0","0","41313","","853","","","68","9","","","1","9","training","adjacent","BC","2","3","M.jpg","O.jpg","0","1","0","",""
"","feedback","","html-keyboard-response","69","188109","0.0-1.0-87.0-0.0","0","0","41313","","null","","","null","9","","","","","","","","","","","","","","","",""
"","time_out","","html-keyboard-response","70","190111","0.0-1.0-89.0-0.0","0","0","41313","","null","","","null","9","","","","","","","","","","","","","","","",""
"","ITI","","html-keyboard-response","71","191113","0.0-1.0-90.0","0","0","41313","","null","","","null","9","","","","","","","","","","","","","","","NaN",""
"","S1","","html-keyboard-response","72","191364","0.0-1.0-92.0","0","0","41313","","null","","","null","10","","","","","","","","","","","","","","","",""
"","ISI","","html-keyboard-response","73","192365","0.0-1.0-93.0","0","0","41313","","null","","","null","10","NaN","","","","","","","","","","","","","","",""
"","S2","","html-keyboard-response","74","192616","0.0-1.0-94.0","0","0","41313","","null","","","null","10","","NaN","","","","","","","","","","","","","",""
"","response","","html-keyboard-response","75","193319","0.0-1.0-95.0-0.0","0","0","41313","","703","","","68","10","","","1","10","training","adjacent","DC","4","3","L.jpg","O.jpg","0","0","1","",""
"","feedback","","html-keyboard-response","76","194321","0.0-1.0-96.0-0.0","0","0","41313","","null","","","null","10","","","","","","","","","","","","","","","",""
"","ITI","","html-keyboard-response","77","195322","0.0-1.0-99.0","0","0","41313","","null","","","null","10","","","","","","","","","","","","","","","NaN",""
"","S1","","html-keyboard-response","78","195573","0.0-1.0-101.0","0","0","41313","","null","","","null","11","","","","","","","","","","","","","","","",""
"","ISI","","html-keyboard-response","79","196585","0.0-1.0-102.0","0","0","41313","","null","","","null","11","NaN","","","","","","","","","","","","","","",""
"","S2","","html-keyboard-response","80","196836","0.0-1.0-103.0","0","0","41313","","null","","","null","11","","NaN","","","","","","","","","","","","","",""
"","response","","html-keyboard-response","81","197915","0.0-1.0-104.0-0.0","0","0","41313","","1078","","","75","11","","","1","11","training","adjacent","FG","6","7","N.jpg","Q.jpg","1","1","1","",""
"","feedback","","html-keyboard-response","82","198916","0.0-1.0-105.0-0.0","0","0","41313","","null","","","null","11","","","","","","","","","","","","","","","",""
"","ITI","","html-keyboard-response","83","199917","0.0-1.0-108.0","0","0","41313","","null","","","null","11","","","","","","","","","","","","","","","NaN",""
"","S1","","html-keyboard-response","84","200169","0.0-1.0-110.0","0","0","41313","","null","","","null","12","","","","","","","","","","","","","","","",""
"","ISI","","html-keyboard-response","85","201170","0.0-1.0-111.0","0","0","41313","","null","","","null","12","NaN","","","","","","","","","","","","","","",""
"","S2","","html-keyboard-response","86","201422","0.0-1.0-112.0","0","0","41313","","null","","","null","12","","NaN","","","","","","","","","","","","","",""
"","response","","html-keyboard-response","87","202309","0.0-1.0-113.0-0.0","0","0","41313","","885","","","75","12","","","1","12","training","adjacent","EF","5","6","R.jpg","N.jpg","1","1","1","",""
"","feedback","","html-keyboard-response","88","203311","0.0-1.0-114.0-0.0","0","0","41313","","null","","","null","12","","","","","","","","","","","","","","","",""
"","ITI","","html-keyboard-response","89","204312","0.0-1.0-117.0","0","0","41313","","null","","","null","12","","","","","","","","","","","","","","","NaN",""
"","S1","","html-keyboard-response","90","204565","0.0-1.0-119.0","0","0","41313","","null","","","null","13","","","","","","","","","","","","","","","",""
"","ISI","","html-keyboard-response","91","205566","0.0-1.0-120.0","0","0","41313","","null","","","null","13","NaN","","","","","","","","","","","","","","",""
"","S2","","html-keyboard-response","92","205817","0.0-1.0-121.0","0","0","41313","","null","","","null","13","","NaN","","","","","","","","","","","","","",""
"","response","","html-keyboard-response","93","207186","0.0-1.0-122.0-0.0","0","0","41313","","1367","","","68","13","","","1","13","training","adjacent","EF","5","6","R.jpg","N.jpg","0","1","0","",""
"","feedback","","html-keyboard-response","94","208188","0.0-1.0-123.0-0.0","0","0","41313","","null","","","null","13","","","","","","","","","","","","","","","",""
"","time_out","","html-keyboard-response","95","210190","0.0-1.0-125.0-0.0","0","0","41313","","null","","","null","13","","","","","","","","","","","","","","","",""
"","ITI","","html-keyboard-response","96","211192","0.0-1.0-126.0","0","0","41313","","null","","","null","13","","","","","","","","","","","","","","","NaN",""
"","S1","","html-keyboard-response","97","211443","0.0-1.0-128.0","0","0","41313","","null","","","null","14","","","","","","","","","","","","","","","",""
"","ISI","","html-keyboard-response","98","212444","0.0-1.0-129.0","0","0","41313","","null","","","null","14","NaN","","","","","","","","","","","","","","",""
"","S2","","html-keyboard-response","99","212696","0.0-1.0-130.0","0","0","41313","","null","","","null","14","","NaN","","","","","","","","","","","","","",""
"","response","","html-keyboard-response","100","213811","0.0-1.0-131.0-0.0","0","0","41313","","1114","","","68","14","","","1","14","training","adjacent","FE","6","5","N.jpg","R.jpg","0","0","1","",""
"","feedback","","html-keyboard-response","101","214813","0.0-1.0-132.0-0.0","0","0","41313","","null","","","null","14","","","","","","","","","","","","","","","",""
"","ITI","","html-keyboard-response","102","215815","0.0-1.0-135.0","0","0","41313","","null","","","null","14","","","","","","","","","","","","","","","NaN",""
"","S1","","html-keyboard-response","103","216066","0.0-1.0-137.0","0","0","41313","","null","","","null","15","","","","","","","","","","","","","","","",""
"","ISI","","html-keyboard-response","104","217067","0.0-1.0-138.0","0","0","41313","","null","","","null","15","NaN","","","","","","","","","","","","","","",""
"","S2","","html-keyboard-response","105","217326","0.0-1.0-139.0","0","0","41313","","null","","","null","15","","NaN","","","","","","","","","","","","","",""
"","response","","html-keyboard-response","106","218431","0.0-1.0-140.0-0.0","0","0","41313","","1103","","","68","15","","","1","15","training","adjacent","DC","4","3","L.jpg","O.jpg","0","0","1","",""
"","feedback","","html-keyboard-response","107","219433","0.0-1.0-141.0-0.0","0","0","41313","","null","","","null","15","","","","","","","","","","","","","","","",""
"","ITI","","html-keyboard-response","108","220435","0.0-1.0-144.0","0","0","41313","","null","","","null","15","","","","","","","","","","","","","","","NaN",""
"","S1","","html-keyboard-response","109","220687","0.0-1.0-146.0","0","0","41313","","null","","","null","16","","","","","","","","","","","","","","","",""
"","ISI","","html-keyboard-response","110","221689","0.0-1.0-147.0","0","0","41313","","null","","","null","16","NaN","","","","","","","","","","","","","","",""
"","S2","","html-keyboard-response","111","221941","0.0-1.0-148.0","0","0","41313","","null","","","null","16","","NaN","","","","","","","","","","","","","",""
"","response","","html-keyboard-response","112","222618","0.0-1.0-149.0-0.0","0","0","41313","","675","","","75","16","","","1","16","training","adjacent","CB","3","2","O.jpg","M.jpg","1","0","0","",""
"","feedback","","html-keyboard-response","113","223619","0.0-1.0-150.0-0.0","0","0","41313","","null","","","null","16","","","","","","","","","","","","","","","",""
"","time_out","","html-keyboard-response","114","225621","0.0-1.0-152.0-0.0","0","0","41313","","null","","","null","16","","","","","","","","","","","","","","","",""
"","ITI","","html-keyboard-response","115","226622","0.0-1.0-153.0","0","0","41313","","null","","","null","16","","","","","","","","","","","","","","","NaN",""
"","S1","","html-keyboard-response","116","226874","0.0-1.0-155.0","0","0","41313","","null","","","null","17","","","","","","","","","","","","","","","",""
"","ISI","","html-keyboard-response","117","227875","0.0-1.0-156.0","0","0","41313","","null","","","null","17","NaN","","","","","","","","","","","","","","",""
"","S2","","html-keyboard-response","118","228127","0.0-1.0-157.0","0","0","41313","","null","","","null","17","","NaN","","","","","","","","","","","","","",""
"","response","","html-keyboard-response","119","229361","0.0-1.0-158.0-0.0","0","0","41313","","1232","","","68","17","","","1","17","training","adjacent","ED","5","4","R.jpg","L.jpg","0","0","1","",""
"","feedback","","html-keyboard-response","120","230363","0.0-1.0-159.0-0.0","0","0","41313","","null","","","null","17","","","","","","","","","","","","","","","",""
"","ITI","","html-keyboard-response","121","231364","0.0-1.0-162.0","0","0","41313","","null","","","null","17","","","","","","","","","","","","","","","NaN",""
"","S1","","html-keyboard-response","122","231615","0.0-1.0-164.0","0","0","41313","","null","","","null","18","","","","","","","","","","","","","","","",""
"","ISI","","html-keyboard-response","123","232618","0.0-1.0-165.0","0","0","41313","","null","","","null","18","NaN","","","","","","","","","","","","","","",""
"","S2","","html-keyboard-response","124","232869","0.0-1.0-166.0","0","0","41313","","null","","","null","18","","NaN","","","","","","","","","","","","","",""
"","response","","html-keyboard-response","125","233957","0.0-1.0-167.0-0.0","0","0","41313","","1086","","","75","18","","","1","18","training","adjacent","BC","2","3","M.jpg","O.jpg","1","1","1","",""
"","feedback","","html-keyboard-response","126","234958","0.0-1.0-168.0-0.0","0","0","41313","","null","","","null","18","","","","","","","","","","","","","","","",""
"","ITI","","html-keyboard-response","127","235960","0.0-1.0-171.0","0","0","41313","","null","","","null","18","","","","","","","","","","","","","","","NaN",""
"","S1","","html-keyboard-response","128","236211","0.0-1.0-173.0","0","0","41313","","null","","","null","19","","","","","","","","","","","","","","","",""
"","ISI","","html-keyboard-response","129","237213","0.0-1.0-174.0","0","0","41313","","null","","","null","19","NaN","","","","","","","","","","","","","","",""
"","S2","","html-keyboard-response","130","237465","0.0-1.0-175.0","0","0","41313","","null","","","null","19","","NaN","","","","","","","","","","","","","",""
"","response","","html-keyboard-response","131","238877","0.0-1.0-176.0-0.0","0","0","41313","","1411","","","75","19","","","1","19","training","adjacent","EF","5","6","R.jpg","N.jpg","1","1","1","",""
"","feedback","","html-keyboard-response","132","239879","0.0-1.0-177.0-0.0","0","0","41313","","null","","","null","19","","","","","","","","","","","","","","","",""
"","ITI","","html-keyboard-response","133","240881","0.0-1.0-180.0","0","0","41313","","null","","","null","19","","","","","","","","","","","","","","","NaN",""
"","S1","","html-keyboard-response","134","241133","0.0-1.0-182.0","0","0","41313","","null","","","null","20","","","","","","","","","","","","","","","",""
"","ISI","","html-keyboard-response","135","242135","0.0-1.0-183.0","0","0","41313","","null","","","null","20","NaN","","","","","","","","","","","","","","",""
"","S2","","html-keyboard-response","136","242386","0.0-1.0-184.0","0","0","41313","","null","","","null","20","","NaN","","","","","","","","","","","","","",""
"","response","","html-keyboard-response","137","244138","0.0-1.0-185.0-0.0","0","0","41313","","null","","","null","20","","","1","20","training","adjacent","ED","5","4","R.jpg","L.jpg","NaN","0","0","",""
"","too_slow_prompt","","html-keyboard-response","138","245140","0.0-1.0-187.0-0.0","1","0","41313","","null","","","null","","","","","","","","","","","","","","","","",""
"","time_out","","html-keyboard-response","139","247141","0.0-1.0-188.0-0.0","0","0","41313","","null","","","null","20","","","","","","","","","","","","","","","",""
"","ITI","","html-keyboard-response","140","248143","0.0-1.0-189.0","0","0","41313","","null","","","null","20","","","","","","","","","","","","","","","NaN",""
"","S1","","html-keyboard-response","141","248395","0.0-1.0-191.0","0","0","41313","","null","","","null","21","","","","","","","","","","","","","","","",""
"","ISI","","html-keyboard-response","142","249396","0.0-1.0-192.0","0","0","41313","","null","","","null","21","NaN","","","","","","","","","","","","","","",""
"","S2","","html-keyboard-response","143","249648","0.0-1.0-193.0","0","0","41313","","null","","","null","21","","NaN","","","","","","","","","","","","","",""
"","response","","html-keyboard-response","144","250446","0.0-1.0-194.0-0.0","0","0","41313","","798","","","75","21","","","1","21","training","adjacent","AB","1","2","P.jpg","M.jpg","1","1","1","",""
"","feedback","","html-keyboard-response","145","251448","0.0-1.0-195.0-0.0","0","0","41313","","null","","","null","21","","","","","","","","","","","","","","","",""
"","ITI","","html-keyboard-response","146","252450","0.0-1.0-198.0","0","0","41313","","null","","","null","21","","","","","","","","","","","","","","","NaN",""
"","S1","","html-keyboard-response","147","252701","0.0-1.0-200.0","0","0","41313","","null","","","null","22","","","","","","","","","","","","","","","",""
"","ISI","","html-keyboard-response","148","253703","0.0-1.0-201.0","0","0","41313","","null","","","null","22","NaN","","","","","","","","","","","","","","",""
"","S2","","html-keyboard-response","149","253954","0.0-1.0-202.0","0","0","41313","","null","","","null","22","","NaN","","","","","","","","","","","","","",""
"","response","","html-keyboard-response","150","254216","0.0-1.0-203.0-0.0","0","0","41313","","261","","","75","22","","","1","22","training","adjacent","CD","3","4","O.jpg","L.jpg","1","1","1","",""
"","feedback","","html-keyboard-response","151","255217","0.0-1.0-204.0-0.0","0","0","41313","","null","","","null","22","","","","","","","","","","","","","","","",""
"","ITI","","html-keyboard-response","152","256219","0.0-1.0-207.0","0","0","41313","","null","","","null","22","","","","","","","","","","","","","","","NaN",""
"","S1","","html-keyboard-response","153","256470","0.0-1.0-209.0","0","0","41313","","null","","","null","23","","","","","","","","","","","","","","","",""
"","ISI","","html-keyboard-response","154","257472","0.0-1.0-210.0","0","0","41313","","null","","","null","23","NaN","","","","","","","","","","","","","","",""
"","S2","","html-keyboard-response","155","257723","0.0-1.0-211.0","0","0","41313","","null","","","null","23","","NaN","","","","","","","","","","","","","",""
"","response","","html-keyboard-response","156","258423","0.0-1.0-212.0-0.0","0","0","41313","","700","","","75","23","","","1","23","training","adjacent","DE","4","5","L.jpg","R.jpg","1","1","1","",""
"","feedback","","html-keyboard-response","157","259426","0.0-1.0-213.0-0.0","0","0","41313","","null","","","null","23","","","","","","","","","","","","","","","",""
"","ITI","","html-keyboard-response","158","260428","0.0-1.0-216.0","0","0","41313","","null","","","null","23","","","","","","","","","","","","","","","NaN",""
"","S1","","html-keyboard-response","159","260679","0.0-1.0-218.0","0","0","41313","","null","","","null","24","","","","","","","","","","","","","","","",""
"","ISI","","html-keyboard-response","160","261681","0.0-1.0-219.0","0","0","41313","","null","","","null","24","NaN","","","","","","","","","","","","","","",""
"","S2","","html-keyboard-response","161","261932","0.0-1.0-220.0","0","0","41313","","null","","","null","24","","NaN","","","","","","","","","","","","","",""
"","response","","html-keyboard-response","162","262509","0.0-1.0-221.0-0.0","0","0","41313","","576","","","75","24","","","1","24","training","adjacent","DE","4","5","L.jpg","R.jpg","1","1","1","",""
"","feedback","","html-keyboard-response","163","263511","0.0-1.0-222.0-0.0","0","0","41313","","null","","","null","24","","","","","","","","","","","","","","","",""
"","ITI","","html-keyboard-response","164","264513","0.0-1.0-225.0","0","0","41313","","null","","","null","24","","","","","","","","","","","","","","","NaN",""
"","S1","","html-keyboard-response","165","264764","0.0-1.0-227.0","0","0","41313","","null","","","null","25","","","","","","","","","","","","","","","",""
"","ISI","","html-keyboard-response","166","265766","0.0-1.0-228.0","0","0","41313","","null","","","null","25","NaN","","","","","","","","","","","","","","",""
"","S2","","html-keyboard-response","167","266018","0.0-1.0-229.0","0","0","41313","","null","","","null","25","","NaN","","","","","","","","","","","","","",""
"","response","","html-keyboard-response","168","266684","0.0-1.0-230.0-0.0","0","0","41313","","666","","","68","25","","","1","25","training","adjacent","FG","6","7","N.jpg","Q.jpg","0","1","0","",""
"","feedback","","html-keyboard-response","169","267687","0.0-1.0-231.0-0.0","0","0","41313","","null","","","null","25","","","","","","","","","","","","","","","",""
"","time_out","","html-keyboard-response","170","269688","0.0-1.0-233.0-0.0","0","0","41313","","null","","","null","25","","","","","","","","","","","","","","","",""
"","ITI","","html-keyboard-response","171","270689","0.0-1.0-234.0","0","0","41313","","null","","","null","25","","","","","","","","","","","","","","","NaN",""
"","S1","","html-keyboard-response","172","270941","0.0-1.0-236.0","0","0","41313","","null","","","null","26","","","","","","","","","","","","","","","",""
"","ISI","","html-keyboard-response","173","271942","0.0-1.0-237.0","0","0","41313","","null","","","null","26","NaN","","","","","","","","","","","","","","",""
"","S2","","html-keyboard-response","174","272195","0.0-1.0-238.0","0","0","41313","","null","","","null","26","","NaN","","","","","","","","","","","","","",""
"","response","","html-keyboard-response","175","272874","0.0-1.0-239.0-0.0","0","0","41313","","679","","","75","26","","","1","26","training","adjacent","FE","6","5","N.jpg","R.jpg","1","0","0","",""
"","feedback","","html-keyboard-response","176","273877","0.0-1.0-240.0-0.0","0","0","41313","","null","","","null","26","","","","","","","","","","","","","","","",""
"","time_out","","html-keyboard-response","177","275878","0.0-1.0-242.0-0.0","0","0","41313","","null","","","null","26","","","","","","","","","","","","","","","",""
"","ITI","","html-keyboard-response","178","276879","0.0-1.0-243.0","0","0","41313","","null","","","null","26","","","","","","","","","","","","","","","NaN",""
"","S1","","html-keyboard-response","179","277131","0.0-1.0-245.0","0","0","41313","","null","","","null","27","","","","","","","","","","","","","","","",""
"","ISI","","html-keyboard-response","180","278132","0.0-1.0-246.0","0","0","41313","","null","","","null","27","NaN","","","","","","","","","","","","","","",""
"","S2","","html-keyboard-response","181","278384","0.0-1.0-247.0","0","0","41313","","null","","","null","27","","NaN","","","","","","","","","","","","","",""
"","response","","html-keyboard-response","182","278891","0.0-1.0-248.0-0.0","0","0","41313","","506","","","75","27","","","1","27","training","adjacent","BC","2","3","M.jpg","O.jpg","1","1","1","",""
"","feedback","","html-keyboard-response","183","279894","0.0-1.0-249.0-0.0","0","0","41313","","null","","","null","27","","","","","","","","","","","","","","","",""
"","ITI","","html-keyboard-response","184","280895","0.0-1.0-252.0","0","0","41313","","null","","","null","27","","","","","","","","","","","","","","","NaN",""
"","S1","","html-keyboard-response","185","281146","0.0-1.0-254.0","0","0","41313","","null","","","null","28","","","","","","","","","","","","","","","",""
"","ISI","","html-keyboard-response","186","282148","0.0-1.0-255.0","0","0","41313","","null","","","null","28","NaN","","","","","","","","","","","","","","",""
"","S2","","html-keyboard-response","187","282400","0.0-1.0-256.0","0","0","41313","","null","","","null","28","","NaN","","","","","","","","","","","","","",""
"","response","","html-keyboard-response","188","283626","0.0-1.0-257.0-0.0","0","0","41313","","1225","","","68","28","","","1","28","training","adjacent","GF","7","6","Q.jpg","N.jpg","0","0","1","",""
"","feedback","","html-keyboard-response","189","284642","0.0-1.0-258.0-0.0","0","0","41313","","null","","","null","28","","","","","","","","","","","","","","","",""
"","ITI","","html-keyboard-response","190","285644","0.0-1.0-261.0","0","0","41313","","null","","","null","28","","","","","","","","","","","","","","","NaN",""
"","S1","","html-keyboard-response","191","285908","0.0-1.0-263.0","0","0","41313","","null","","","null","29","","","","","","","","","","","","","","","",""
"","ISI","","html-keyboard-response","192","286910","0.0-1.0-264.0","0","0","41313","","null","","","null","29","NaN","","","","","","","","","","","","","","",""
"","S2","","html-keyboard-response","193","287162","0.0-1.0-265.0","0","0","41313","","null","","","null","29","","NaN","","","","","","","","","","","","","",""
"","response","","html-keyboard-response","194","288291","0.0-1.0-266.0-0.0","0","0","41313","","1128","","","68","29","","","1","29","training","adjacent","AB","1","2","P.jpg","M.jpg","0","1","0","",""
"","feedback","","html-keyboard-response","195","289292","0.0-1.0-267.0-0.0","0","0","41313","","null","","","null","29","","","","","","","","","","","","","","","",""
"","time_out","","html-keyboard-response","196","291294","0.0-1.0-269.0-0.0","0","0","41313","","null","","","null","29","","","","","","","","","","","","","","","",""
"","ITI","","html-keyboard-response","197","292296","0.0-1.0-270.0","0","0","41313","","null","","","null","29","","","","","","","","","","","","","","","NaN",""
"","S1","","html-keyboard-response","198","292548","0.0-1.0-272.0","0","0","41313","","null","","","null","30","","","","","","","","","","","","","","","",""
"","ISI","","html-keyboard-response","199","293550","0.0-1.0-273.0","0","0","41313","","null","","","null","30","NaN","","","","","","","","","","","","","","",""
"","S2","","html-keyboard-response","200","293802","0.0-1.0-274.0","0","0","41313","","null","","","null","30","","NaN","","","","","","","","","","","","","",""
"","response","","html-keyboard-response","201","294678","0.0-1.0-275.0-0.0","0","0","41313","","875","","","75","30","","","1","30","training","adjacent","AB","1","2","P.jpg","M.jpg","1","1","1","",""
"","feedback","","html-keyboard-response","202","295680","0.0-1.0-276.0-0.0","0","0","41313","","null","","","null","30","","","","","","","","","","","","","","","",""
"","ITI","","html-keyboard-response","203","296682","0.0-1.0-279.0","0","0","41313","","null","","","null","30","","","","","","","","","","","","","","","NaN",""
"","S1","","html-keyboard-response","204","296933","0.0-1.0-281.0","0","0","41313","","null","","","null","31","","","","","","","","","","","","","","","",""
"","ISI","","html-keyboard-response","205","297934","0.0-1.0-282.0","0","0","41313","","null","","","null","31","NaN","","","","","","","","","","","","","","",""
"","S2","","html-keyboard-response","206","298186","0.0-1.0-283.0","0","0","41313","","null","","","null","31","","NaN","","","","","","","","","","","","","",""
"","response","","html-keyboard-response","207","298996","0.0-1.0-284.0-0.0","0","0","41313","","809","","","68","31","","","1","31","training","adjacent","BA","2","1","M.jpg","P.jpg","0","0","1","",""
"","feedback","","html-keyboard-response","208","299997","0.0-1.0-285.0-0.0","0","0","41313","","null","","","null","31","","","","","","","","","","","","","","","",""
"","ITI","","html-keyboard-response","209","300999","0.0-1.0-288.0","0","0","41313","","null","","","null","31","","","","","","","","","","","","","","","NaN",""
"","S1","","html-keyboard-response","210","301251","0.0-1.0-290.0","0","0","41313","","null","","","null","32","","","","","","","","","","","","","","","",""
"","ISI","","html-keyboard-response","211","302252","0.0-1.0-291.0","0","0","41313","","null","","","null","32","NaN","","","","","","","","","","","","","","",""
"","S2","","html-keyboard-response","212","302504","0.0-1.0-292.0","0","0","41313","","null","","","null","32","","NaN","","","","","","","","","","","","","",""
"","response","","html-keyboard-response","213","303125","0.0-1.0-293.0-0.0","0","0","41313","","620","","","75","32","","","1","32","training","adjacent","CD","3","4","O.jpg","L.jpg","1","1","1","",""
"","feedback","","html-keyboard-response","214","304126","0.0-1.0-294.0-0.0","0","0","41313","","null","","","null","32","","","","","","","","","","","","","","","",""
"","ITI","","html-keyboard-response","215","305128","0.0-1.0-297.0","0","0","41313","","null","","","null","32","","","","","","","","","","","","","","","NaN",""
"","S1","","html-keyboard-response","216","305379","0.0-1.0-299.0","0","0","41313","","null","","","null","33","","","","","","","","","","","","","","","",""
"","ISI","","html-keyboard-response","217","306387","0.0-1.0-300.0","0","0","41313","","null","","","null","33","NaN","","","","","","","","","","","","","","",""
"","S2","","html-keyboard-response","218","306639","0.0-1.0-301.0","0","0","41313","","null","","","null","33","","NaN","","","","","","","","","","","","","",""
"","response","","html-keyboard-response","219","307182","0.0-1.0-302.0-0.0","0","0","41313","","542","","","68","33","","","1","33","training","adjacent","CB","3","2","O.jpg","M.jpg","0","0","1","",""
"","feedback","","html-keyboard-response","220","308184","0.0-1.0-303.0-0.0","0","0","41313","","null","","","null","33","","","","","","","","","","","","","","","",""
"","ITI","","html-keyboard-response","221","309186","0.0-1.0-306.0","0","0","41313","","null","","","null","33","","","","","","","","","","","","","","","NaN",""
"","S1","","html-keyboard-response","222","309438","0.0-1.0-308.0","0","0","41313","","null","","","null","34","","","","","","","","","","","","","","","",""
"","ISI","","html-keyboard-response","223","310439","0.0-1.0-309.0","0","0","41313","","null","","","null","34","NaN","","","","","","","","","","","","","","",""
"","S2","","html-keyboard-response","224","310691","0.0-1.0-310.0","0","0","41313","","null","","","null","34","","NaN","","","","","","","","","","","","","",""
"","response","","html-keyboard-response","225","311223","0.0-1.0-311.0-0.0","0","0","41313","","531","","","75","34","","","1","34","training","adjacent","CD","3","4","O.jpg","L.jpg","1","1","1","",""
"","feedback","","html-keyboard-response","226","312224","0.0-1.0-312.0-0.0","0","0","41313","","null","","","null","34","","","","","","","","","","","","","","","",""
"","ITI","","html-keyboard-response","227","313227","0.0-1.0-315.0","0","0","41313","","null","","","null","34","","","","","","","","","","","","","","","NaN",""
"","S1","","html-keyboard-response","228","313479","0.0-1.0-317.0","0","0","41313","","null","","","null","35","","","","","","","","","","","","","","","",""
"","ISI","","html-keyboard-response","229","314480","0.0-1.0-318.0","0","0","41313","","null","","","null","35","NaN","","","","","","","","","","","","","","",""
"","S2","","html-keyboard-response","230","314732","0.0-1.0-319.0","0","0","41313","","null","","","null","35","","NaN","","","","","","","","","","","","","",""
"","response","","html-keyboard-response","231","315329","0.0-1.0-320.0-0.0","0","0","41313","","596","","","68","35","","","1","35","training","adjacent","GF","7","6","Q.jpg","N.jpg","0","0","1","",""
"","feedback","","html-keyboard-response","232","316330","0.0-1.0-321.0-0.0","0","0","41313","","null","","","null","35","","","","","","","","","","","","","","","",""
"","ITI","","html-keyboard-response","233","317332","0.0-1.0-324.0","0","0","41313","","null","","","null","35","","","","","","","","","","","","","","","NaN",""
"","S1","","html-keyboard-response","234","317583","0.0-1.0-326.0","0","0","41313","","null","","","null","36","","","","","","","","","","","","","","","",""
"","ISI","","html-keyboard-response","235","318586","0.0-1.0-327.0","0","0","41313","","null","","","null","36","NaN","","","","","","","","","","","","","","",""
"","S2","","html-keyboard-response","236","318837","0.0-1.0-328.0","0","0","41313","","null","","","null","36","","NaN","","","","","","","","","","","","","",""
"","response","","html-keyboard-response","237","319260","0.0-1.0-329.0-0.0","0","0","41313","","422","","","75","36","","","1","36","training","adjacent","FG","6","7","N.jpg","Q.jpg","1","1","1","",""
"","feedback","","html-keyboard-response","238","320263","0.0-1.0-330.0-0.0","0","0","41313","","null","","","null","36","","","","","","","","","","","","","","","",""
"","ITI","","html-keyboard-response","239","321265","0.0-1.0-333.0","0","0","41313","","null","","","null","36","","","","","","","","","","","","","","","NaN",""
"","S1","","html-keyboard-response","240","321517","0.0-1.0-335.0","0","0","41313","","null","","","null","37","","","","","","","","","","","","","","","",""
"","ISI","","html-keyboard-response","241","322531","0.0-1.0-336.0","0","0","41313","","null","","","null","37","NaN","","","","","","","","","","","","","","",""
"","S2","","html-keyboard-response","242","322783","0.0-1.0-337.0","0","0","41313","","null","","","null","37","","NaN","","","","","","","","","","","","","",""
"","response","","html-keyboard-response","243","323993","0.0-1.0-338.0-0.0","0","0","41313","","1209","","","68","37","","","1","37","training","adjacent","FE","6","5","N.jpg","R.jpg","0","0","1","",""
"","feedback","","html-keyboard-response","244","324995","0.0-1.0-339.0-0.0","0","0","41313","","null","","","null","37","","","","","","","","","","","","","","","",""
"","ITI","","html-keyboard-response","245","325996","0.0-1.0-342.0","0","0","41313","","null","","","null","37","","","","","","","","","","","","","","","NaN",""
"","S1","","html-keyboard-response","246","326248","0.0-1.0-344.0","0","0","41313","","null","","","null","38","","","","","","","","","","","","","","","",""
"","ISI","","html-keyboard-response","247","327249","0.0-1.0-345.0","0","0","41313","","null","","","null","38","NaN","","","","","","","","","","","","","","",""
"","S2","","html-keyboard-response","248","327502","0.0-1.0-346.0","0","0","41313","","null","","","null","38","","NaN","","","","","","","","","","","","","",""
"","response","","html-keyboard-response","249","328775","0.0-1.0-347.0-0.0","0","0","41313","","1272","","","68","38","","","1","38","training","adjacent","CB","3","2","O.jpg","M.jpg","0","0","1","",""
"","feedback","","html-keyboard-response","250","329776","0.0-1.0-348.0-0.0","0","0","41313","","null","","","null","38","","","","","","","","","","","","","","","",""
"","ITI","","html-keyboard-response","251","330778","0.0-1.0-351.0","0","0","41313","","null","","","null","38","","","","","","","","","","","","","","","NaN",""
"","S1","","html-keyboard-response","252","331030","0.0-1.0-353.0","0","0","41313","","null","","","null","39","","","","","","","","","","","","","","","",""
"","ISI","","html-keyboard-response","253","332039","0.0-1.0-354.0","0","0","41313","","null","","","null","39","NaN","","","","","","","","","","","","","","",""
"","S2","","html-keyboard-response","254","332290","0.0-1.0-355.0","0","0","41313","","null","","","null","39","","NaN","","","","","","","","","","","","","",""
"","response","","html-keyboard-response","255","332504","0.0-1.0-356.0-0.0","0","0","41313","","213","","","75","39","","","1","39","training","adjacent","BC","2","3","M.jpg","O.jpg","1","1","1","",""
"","feedback","","html-keyboard-response","256","333507","0.0-1.0-357.0-0.0","0","0","41313","","null","","","null","39","","","","","","","","","","","","","","","",""
"","ITI","","html-keyboard-response","257","334509","0.0-1.0-360.0","0","0","41313","","null","","","null","39","","","","","","","","","","","","","","","NaN",""
"","S1","","html-keyboard-response","258","334761","0.0-1.0-362.0","0","0","41313","","null","","","null","40","","","","","","","","","","","","","","","",""
"","ISI","","html-keyboard-response","259","335762","0.0-1.0-363.0","0","0","41313","","null","","","null","40","NaN","","","","","","","","","","","","","","",""
"","S2","","html-keyboard-response","260","336014","0.0-1.0-364.0","0","0","41313","","null","","","null","40","","NaN","","","","","","","","","","","","","",""
"","response","","html-keyboard-response","261","336474","0.0-1.0-365.0-0.0","0","0","41313","","460","","","68","40","","","1","40","training","adjacent","GF","7","6","Q.jpg","N.jpg","0","0","1","",""
"","feedback","","html-keyboard-response","262","337476","0.0-1.0-366.0-0.0","0","0","41313","","null","","","null","40","","","","","","","","","","","","","","","",""
"","ITI","","html-keyboard-response","263","338479","0.0-1.0-369.0","0","0","41313","","null","","","null","40","","","","","","","","","","","","","","","NaN",""
"","S1","","html-keyboard-response","264","338730","0.0-1.0-371.0","0","0","41313","","null","","","null","41","","","","","","","","","","","","","","","",""
"","ISI","","html-keyboard-response","265","339731","0.0-1.0-372.0","0","0","41313","","null","","","null","41","NaN","","","","","","","","","","","","","","",""
"","S2","","html-keyboard-response","266","339982","0.0-1.0-373.0","0","0","41313","","null","","","null","41","","NaN","","","","","","","","","","","","","",""
"","response","","html-keyboard-response","267","340794","0.0-1.0-374.0-0.0","0","0","41313","","811","","","75","41","","","1","41","training","adjacent","ED","5","4","R.jpg","L.jpg","1","0","0","",""
"","feedback","","html-keyboard-response","268","341796","0.0-1.0-375.0-0.0","0","0","41313","","null","","","null","41","","","","","","","","","","","","","","","",""
"","time_out","","html-keyboard-response","269","343798","0.0-1.0-377.0-0.0","0","0","41313","","null","","","null","41","","","","","","","","","","","","","","","",""
"","ITI","","html-keyboard-response","270","344799","0.0-1.0-378.0","0","0","41313","","null","","","null","41","","","","","","","","","","","","","","","NaN",""
"","S1","","html-keyboard-response","271","345051","0.0-1.0-380.0","0","0","41313","","null","","","null","42","","","","","","","","","","","","","","","",""
"","ISI","","html-keyboard-response","272","346052","0.0-1.0-381.0","0","0","41313","","null","","","null","42","NaN","","","","","","","","","","","","","","",""
"","S2","","html-keyboard-response","273","346304","0.0-1.0-382.0","0","0","41313","","null","","","null","42","","NaN","","","","","","","","","","","","","",""
"","response","","html-keyboard-response","274","347252","0.0-1.0-383.0-0.0","0","0","41313","","946","","","68","42","","","1","42","training","adjacent","EF","5","6","R.jpg","N.jpg","0","1","0","",""
"","feedback","","html-keyboard-response","275","348253","0.0-1.0-384.0-0.0","0","0","41313","","null","","","null","42","","","","","","","","","","","","","","","",""
"","time_out","","html-keyboard-response","276","350255","0.0-1.0-386.0-0.0","0","0","41313","","null","","","null","42","","","","","","","","","","","","","","","",""
"","ITI","","html-keyboard-response","277","351257","0.0-1.0-387.0","0","0","41313","","null","","","null","42","","","","","","","","","","","","","","","NaN",""
"","S1","","html-keyboard-response","278","351509","0.0-1.0-389.0","0","0","41313","","null","","","null","43","","","","","","","","","","","","","","","",""
"","ISI","","html-keyboard-response","279","352511","0.0-1.0-390.0","0","0","41313","","null","","","null","43","NaN","","","","","","","","","","","","","","",""
"","S2","","html-keyboard-response","280","352762","0.0-1.0-391.0","0","0","41313","","null","","","null","43","","NaN","","","","","","","","","","","","","",""
"","response","","html-keyboard-response","281","353785","0.0-1.0-392.0-0.0","0","0","41313","","1021","","","75","43","","","1","43","training","adjacent","FE","6","5","N.jpg","R.jpg","1","0","0","",""
"","feedback","","html-keyboard-response","282","354787","0.0-1.0-393.0-0.0","0","0","41313","","null","","","null","43","","","","","","","","","","","","","","","",""
"","time_out","","html-keyboard-response","283","356789","0.0-1.0-395.0-0.0","0","0","41313","","null","","","null","43","","","","","","","","","","","","","","","",""
"","ITI","","html-keyboard-response","284","357791","0.0-1.0-396.0","0","0","41313","","null","","","null","43","","","","","","","","","","","","","","","NaN",""
"","S1","","html-keyboard-response","285","358043","0.0-1.0-398.0","0","0","41313","","null","","","null","44","","","","","","","","","","","","","","","",""
"","ISI","","html-keyboard-response","286","359044","0.0-1.0-399.0","0","0","41313","","null","","","null","44","NaN","","","","","","","","","","","","","","",""
"","S2","","html-keyboard-response","287","359296","0.0-1.0-400.0","0","0","41313","","null","","","null","44","","NaN","","","","","","","","","","","","","",""
"","response","","html-keyboard-response","288","360341","0.0-1.0-401.0-0.0","0","0","41313","","1043","","","75","44","","","1","44","training","adjacent","FG","6","7","N.jpg","Q.jpg","1","1","1","",""
"","feedback","","html-keyboard-response","289","361343","0.0-1.0-402.0-0.0","0","0","41313","","null","","","null","44","","","","","","","","","","","","","","","",""
"","ITI","","html-keyboard-response","290","362345","0.0-1.0-405.0","0","0","41313","","null","","","null","44","","","","","","","","","","","","","","","NaN",""
"","S1","","html-keyboard-response","291","362596","0.0-1.0-407.0","0","0","41313","","null","","","null","45","","","","","","","","","","","","","","","",""
"","ISI","","html-keyboard-response","292","363598","0.0-1.0-408.0","0","0","41313","","null","","","null","45","NaN","","","","","","","","","","","","","","",""
"","S2","","html-keyboard-response","293","363851","0.0-1.0-409.0","0","0","41313","","null","","","null","45","","NaN","","","","","","","","","","","","","",""
"","response","","html-keyboard-response","294","364850","0.0-1.0-410.0-0.0","0","0","41313","","997","","","68","45","","","1","45","training","adjacent","BA","2","1","M.jpg","P.jpg","0","0","1","",""
"","feedback","","html-keyboard-response","295","365852","0.0-1.0-411.0-0.0","0","0","41313","","null","","","null","45","","","","","","","","","","","","","","","",""
"","ITI","","html-keyboard-response","296","366854","0.0-1.0-414.0","0","0","41313","","null","","","null","45","","","","","","","","","","","","","","","NaN",""
"","S1","","html-keyboard-response","297","367106","0.0-1.0-416.0","0","0","41313","","null","","","null","46","","","","","","","","","","","","","","","",""
"","ISI","","html-keyboard-response","298","368107","0.0-1.0-417.0","0","0","41313","","null","","","null","46","NaN","","","","","","","","","","","","","","",""
"","S2","","html-keyboard-response","299","368360","0.0-1.0-418.0","0","0","41313","","null","","","null","46","","NaN","","","","","","","","","","","","","",""
"","response","","html-keyboard-response","300","369848","0.0-1.0-419.0-0.0","0","0","41313","","1487","","","75","46","","","1","46","training","adjacent","DE","4","5","L.jpg","R.jpg","1","1","1","",""
"","feedback","","html-keyboard-response","301","370850","0.0-1.0-420.0-0.0","0","0","41313","","null","","","null","46","","","","","","","","","","","","","","","",""
"","ITI","","html-keyboard-response","302","371852","0.0-1.0-423.0","0","0","41313","","null","","","null","46","","","","","","","","","","","","","","","NaN",""
"","S1","","html-keyboard-response","303","372105","0.0-1.0-425.0","0","0","41313","","null","","","null","47","","","","","","","","","","","","","","","",""
"","ISI","","html-keyboard-response","304","373106","0.0-1.0-426.0","0","0","41313","","null","","","null","47","NaN","","","","","","","","","","","","","","",""
"","S2","","html-keyboard-response","305","373357","0.0-1.0-427.0","0","0","41313","","null","","","null","47","","NaN","","","","","","","","","","","","","",""
"","response","","html-keyboard-response","306","374226","0.0-1.0-428.0-0.0","0","0","41313","","868","","","75","47","","","1","47","training","adjacent","CD","3","4","O.jpg","L.jpg","1","1","1","",""
"","feedback","","html-keyboard-response","307","375228","0.0-1.0-429.0-0.0","0","0","41313","","null","","","null","47","","","","","","","","","","","","","","","",""
"","ITI","","html-keyboard-response","308","376230","0.0-1.0-432.0","0","0","41313","","null","","","null","47","","","","","","","","","","","","","","","NaN",""
"","block_over","","html-keyboard-response","309","383541","0.0-1.0-433.0-0.0","0","0","41313","","7309","","","32","47","","","","","","","","","","","","","","","",""
"","S1","","html-keyboard-response","310","383805","0.0-1.0-434.0","0","0","41313","","null","","","null","48","","","","","","","","","","","","","","","",""
"","ISI","","html-keyboard-response","311","384806","0.0-1.0-435.0","0","0","41313","","null","","","null","48","NaN","","","","","","","","","","","","","","",""
"","S2","","html-keyboard-response","312","385058","0.0-1.0-436.0","0","0","41313","","null","","","null","48","","NaN","","","","","","","","","","","","","",""
"","response","","html-keyboard-response","313","385959","0.0-1.0-437.0-0.0","0","0","41313","","900","","","68","48","","","2","48","training","adjacent","EF","5","6","R.jpg","N.jpg","0","1","0","",""
"","feedback","","html-keyboard-response","314","386961","0.0-1.0-438.0-0.0","0","0","41313","","null","","","null","48","","","","","","","","","","","","","","","",""
"","time_out","","html-keyboard-response","315","388962","0.0-1.0-440.0-0.0","0","0","41313","","null","","","null","48","","","","","","","","","","","","","","","",""
"","ITI","","html-keyboard-response","316","389964","0.0-1.0-441.0","0","0","41313","","null","","","null","48","","","","","","","","","","","","","","","NaN",""
"","S1","","html-keyboard-response","317","390215","0.0-1.0-443.0","0","0","41313","","null","","","null","49","","","","","","","","","","","","","","","",""
"","ISI","","html-keyboard-response","318","391216","0.0-1.0-444.0","0","0","41313","","null","","","null","49","NaN","","","","","","","","","","","","","","",""
"","S2","","html-keyboard-response","319","391468","0.0-1.0-445.0","0","0","41313","","null","","","null","49","","NaN","","","","","","","","","","","","","",""
"","response","","html-keyboard-response","320","392686","0.0-1.0-446.0-0.0","0","0","41313","","1218","","","75","49","","","2","49","training","adjacent","DE","4","5","L.jpg","R.jpg","1","1","1","",""
"","feedback","","html-keyboard-response","321","393688","0.0-1.0-447.0-0.0","0","0","41313","","null","","","null","49","","","","","","","","","","","","","","","",""
"","ITI","","html-keyboard-response","322","394690","0.0-1.0-450.0","0","0","41313","","null","","","null","49","","","","","","","","","","","","","","","NaN",""
"","S1","","html-keyboard-response","323","394942","0.0-1.0-452.0","0","0","41313","","null","","","null","50","","","","","","","","","","","","","","","",""
"","ISI","","html-keyboard-response","324","395944","0.0-1.0-453.0","0","0","41313","","null","","","null","50","NaN","","","","","","","","","","","","","","",""
"","S2","","html-keyboard-response","325","396196","0.0-1.0-454.0","0","0","41313","","null","","","null","50","","NaN","","","","","","","","","","","","","",""
"","response","","html-keyboard-response","326","396661","0.0-1.0-455.0-0.0","0","0","41313","","465","","","68","50","","","2","50","training","adjacent","BA","2","1","M.jpg","P.jpg","0","0","1","",""
"","feedback","","html-keyboard-response","327","397664","0.0-1.0-456.0-0.0","0","0","41313","","null","","","null","50","","","","","","","","","","","","","","","",""
"","ITI","","html-keyboard-response","328","398665","0.0-1.0-459.0","0","0","41313","","null","","","null","50","","","","","","","","","","","","","","","NaN",""
"","S1","","html-keyboard-response","329","398917","0.0-1.0-461.0","0","0","41313","","null","","","null","51","","","","","","","","","","","","","","","",""
"","ISI","","html-keyboard-response","330","399917","0.0-1.0-462.0","0","0","41313","","null","","","null","51","NaN","","","","","","","","","","","","","","",""
"","S2","","html-keyboard-response","331","400169","0.0-1.0-463.0","0","0","41313","","null","","","null","51","","NaN","","","","","","","","","","","","","",""
"","response","","html-keyboard-response","332","400837","0.0-1.0-464.0-0.0","0","0","41313","","668","","","75","51","","","2","51","training","adjacent","CD","3","4","O.jpg","L.jpg","1","1","1","",""
"","feedback","","html-keyboard-response","333","401839","0.0-1.0-465.0-0.0","0","0","41313","","null","","","null","51","","","","","","","","","","","","","","","",""
"","ITI","","html-keyboard-response","334","402853","0.0-1.0-468.0","0","0","41313","","null","","","null","51","","","","","","","","","","","","","","","NaN",""
"","S1","","html-keyboard-response","335","403106","0.0-1.0-470.0","0","0","41313","","null","","","null","52","","","","","","","","","","","","","","","",""
"","ISI","","html-keyboard-response","336","404107","0.0-1.0-471.0","0","0","41313","","null","","","null","52","NaN","","","","","","","","","","","","","","",""
"","S2","","html-keyboard-response","337","404359","0.0-1.0-472.0","0","0","41313","","null","","","null","52","","NaN","","","","","","","","","","","","","",""
"","response","","html-keyboard-response","338","404849","0.0-1.0-473.0-0.0","0","0","41313","","490","","","75","52","","","2","52","training","adjacent","EF","5","6","R.jpg","N.jpg","1","1","1","",""
"","feedback","","html-keyboard-response","339","405851","0.0-1.0-474.0-0.0","0","0","41313","","null","","","null","52","","","","","","","","","","","","","","","",""
"","ITI","","html-keyboard-response","340","406853","0.0-1.0-477.0","0","0","41313","","null","","","null","52","","","","","","","","","","","","","","","NaN",""
"","S1","","html-keyboard-response","341","407104","0.0-1.0-479.0","0","0","41313","","null","","","null","53","","","","","","","","","","","","","","","",""
"","ISI","","html-keyboard-response","342","408106","0.0-1.0-480.0","0","0","41313","","null","","","null","53","NaN","","","","","","","","","","","","","","",""
"","S2","","html-keyboard-response","343","408357","0.0-1.0-481.0","0","0","41313","","null","","","null","53","","NaN","","","","","","","","","","","","","",""
"","response","","html-keyboard-response","344","409346","0.0-1.0-482.0-0.0","0","0","41313","","988","","","75","53","","","2","53","training","adjacent","DE","4","5","L.jpg","R.jpg","1","1","1","",""
"","feedback","","html-keyboard-response","345","410348","0.0-1.0-483.0-0.0","0","0","41313","","null","","","null","53","","","","","","","","","","","","","","","",""
"","ITI","","html-keyboard-response","346","411350","0.0-1.0-486.0","0","0","41313","","null","","","null","53","","","","","","","","","","","","","","","NaN",""
"","S1","","html-keyboard-response","347","411601","0.0-1.0-488.0","0","0","41313","","null","","","null","54","","","","","","","","","","","","","","","",""
"","ISI","","html-keyboard-response","348","412603","0.0-1.0-489.0","0","0","41313","","null","","","null","54","NaN","","","","","","","","","","","","","","",""
"","S2","","html-keyboard-response","349","412854","0.0-1.0-490.0","0","0","41313","","null","","","null","54","","NaN","","","","","","","","","","","","","",""
"","response","","html-keyboard-response","350","413676","0.0-1.0-491.0-0.0","0","0","41313","","822","","","75","54","","","2","54","training","adjacent","CD","3","4","O.jpg","L.jpg","1","1","1","",""
"","feedback","","html-keyboard-response","351","414679","0.0-1.0-492.0-0.0","0","0","41313","","null","","","null","54","","","","","","","","","","","","","","","",""
"","ITI","","html-keyboard-response","352","415681","0.0-1.0-495.0","0","0","41313","","null","","","null","54","","","","","","","","","","","","","","","NaN",""
"","S1","","html-keyboard-response","353","415933","0.0-1.0-497.0","0","0","41313","","null","","","null","55","","","","","","","","","","","","","","","",""
"","ISI","","html-keyboard-response","354","416934","0.0-1.0-498.0","0","0","41313","","null","","","null","55","NaN","","","","","","","","","","","","","","",""
"","S2","","html-keyboard-response","355","417186","0.0-1.0-499.0","0","0","41313","","null","","","null","55","","NaN","","","","","","","","","","","","","",""
"","response","","html-keyboard-response","356","417680","0.0-1.0-500.0-0.0","0","0","41313","","492","","","68","55","","","2","55","training","adjacent","FE","6","5","N.jpg","R.jpg","0","0","1","",""
"","feedback","","html-keyboard-response","357","418682","0.0-1.0-501.0-0.0","0","0","41313","","null","","","null","55","","","","","","","","","","","","","","","",""
"","ITI","","html-keyboard-response","358","419683","0.0-1.0-504.0","0","0","41313","","null","","","null","55","","","","","","","","","","","","","","","NaN",""
"","S1","","html-keyboard-response","359","419934","0.0-1.0-506.0","0","0","41313","","null","","","null","56","","","","","","","","","","","","","","","",""
"","ISI","","html-keyboard-response","360","420935","0.0-1.0-507.0","0","0","41313","","null","","","null","56","NaN","","","","","","","","","","","","","","",""
"","S2","","html-keyboard-response","361","421187","0.0-1.0-508.0","0","0","41313","","null","","","null","56","","NaN","","","","","","","","","","","","","",""
"","response","","html-keyboard-response","362","422244","0.0-1.0-509.0-0.0","0","0","41313","","1056","","","75","56","","","2","56","training","adjacent","DE","4","5","L.jpg","R.jpg","1","1","1","",""
"","feedback","","html-keyboard-response","363","423246","0.0-1.0-510.0-0.0","0","0","41313","","null","","","null","56","","","","","","","","","","","","","","","",""
"","ITI","","html-keyboard-response","364","424248","0.0-1.0-513.0","0","0","41313","","null","","","null","56","","","","","","","","","","","","","","","NaN",""
"","S1","","html-keyboard-response","365","424500","0.0-1.0-515.0","0","0","41313","","null","","","null","57","","","","","","","","","","","","","","","",""
"","ISI","","html-keyboard-response","366","425502","0.0-1.0-516.0","0","0","41313","","null","","","null","57","NaN","","","","","","","","","","","","","","",""
"","S2","","html-keyboard-response","367","425754","0.0-1.0-517.0","0","0","41313","","null","","","null","57","","NaN","","","","","","","","","","","","","",""
"","response","","html-keyboard-response","368","426846","0.0-1.0-518.0-0.0","0","0","41313","","1091","","","75","57","","","2","57","training","adjacent","DE","4","5","L.jpg","R.jpg","1","1","1","",""
"","feedback","","html-keyboard-response","369","427848","0.0-1.0-519.0-0.0","0","0","41313","","null","","","null","57","","","","","","","","","","","","","","","",""
"","ITI","","html-keyboard-response","370","428850","0.0-1.0-522.0","0","0","41313","","null","","","null","57","","","","","","","","","","","","","","","NaN",""
"","S1","","html-keyboard-response","371","429102","0.0-1.0-524.0","0","0","41313","","null","","","null","58","","","","","","","","","","","","","","","",""
"","ISI","","html-keyboard-response","372","430104","0.0-1.0-525.0","0","0","41313","","null","","","null","58","NaN","","","","","","","","","","","","","","",""
"","S2","","html-keyboard-response","373","430356","0.0-1.0-526.0","0","0","41313","","null","","","null","58","","NaN","","","","","","","","","","","","","",""
"","response","","html-keyboard-response","374","430903","0.0-1.0-527.0-0.0","0","0","41313","","545","","","75","58","","","2","58","training","adjacent","FG","6","7","N.jpg","Q.jpg","1","1","1","",""
"","feedback","","html-keyboard-response","375","431905","0.0-1.0-528.0-0.0","0","0","41313","","null","","","null","58","","","","","","","","","","","","","","","",""
"","ITI","","html-keyboard-response","376","432907","0.0-1.0-531.0","0","0","41313","","null","","","null","58","","","","","","","","","","","","","","","NaN",""
"","S1","","html-keyboard-response","377","433159","0.0-1.0-533.0","0","0","41313","","null","","","null","59","","","","","","","","","","","","","","","",""
"","ISI","","html-keyboard-response","378","434160","0.0-1.0-534.0","0","0","41313","","null","","","null","59","NaN","","","","","","","","","","","","","","",""
"","S2","","html-keyboard-response","379","434412","0.0-1.0-535.0","0","0","41313","","null","","","null","59","","NaN","","","","","","","","","","","","","",""
"","response","","html-keyboard-response","380","434884","0.0-1.0-536.0-0.0","0","0","41313","","471","","","75","59","","","2","59","training","adjacent","FG","6","7","N.jpg","Q.jpg","1","1","1","",""
"","feedback","","html-keyboard-response","381","435886","0.0-1.0-537.0-0.0","0","0","41313","","null","","","null","59","","","","","","","","","","","","","","","",""
"","ITI","","html-keyboard-response","382","436888","0.0-1.0-540.0","0","0","41313","","null","","","null","59","","","","","","","","","","","","","","","NaN",""
"","S1","","html-keyboard-response","383","437140","0.0-1.0-542.0","0","0","41313","","null","","","null","60","","","","","","","","","","","","","","","",""
"","ISI","","html-keyboard-response","384","438141","0.0-1.0-543.0","0","0","41313","","null","","","null","60","NaN","","","","","","","","","","","","","","",""
"","S2","","html-keyboard-response","385","438393","0.0-1.0-544.0","0","0","41313","","null","","","null","60","","NaN","","","","","","","","","","","","","",""
"","response","","html-keyboard-response","386","438956","0.0-1.0-545.0-0.0","0","0","41313","","561","","","75","60","","","2","60","training","adjacent","BC","2","3","M.jpg","O.jpg","1","1","1","",""
"","feedback","","html-keyboard-response","387","439959","0.0-1.0-546.0-0.0","0","0","41313","","null","","","null","60","","","","","","","","","","","","","","","",""
"","ITI","","html-keyboard-response","388","440961","0.0-1.0-549.0","0","0","41313","","null","","","null","60","","","","","","","","","","","","","","","NaN",""
"","S1","","html-keyboard-response","389","441213","0.0-1.0-551.0","0","0","41313","","null","","","null","61","","","","","","","","","","","","","","","",""
"","ISI","","html-keyboard-response","390","442215","0.0-1.0-552.0","0","0","41313","","null","","","null","61","NaN","","","","","","","","","","","","","","",""
"","S2","","html-keyboard-response","391","442466","0.0-1.0-553.0","0","0","41313","","null","","","null","61","","NaN","","","","","","","","","","","","","",""
"","response","","html-keyboard-response","392","443021","0.0-1.0-554.0-0.0","0","0","41313","","554","","","75","61","","","2","61","training","adjacent","FG","6","7","N.jpg","Q.jpg","1","1","1","",""
"","feedback","","html-keyboard-response","393","444022","0.0-1.0-555.0-0.0","0","0","41313","","null","","","null","61","","","","","","","","","","","","","","","",""
"","ITI","","html-keyboard-response","394","445023","0.0-1.0-558.0","0","0","41313","","null","","","null","61","","","","","","","","","","","","","","","NaN",""
"","S1","","html-keyboard-response","395","445275","0.0-1.0-560.0","0","0","41313","","null","","","null","62","","","","","","","","","","","","","","","",""
"","ISI","","html-keyboard-response","396","446276","0.0-1.0-561.0","0","0","41313","","null","","","null","62","NaN","","","","","","","","","","","","","","",""
"","S2","","html-keyboard-response","397","446527","0.0-1.0-562.0","0","0","41313","","null","","","null","62","","NaN","","","","","","","","","","","","","",""
"","response","","html-keyboard-response","398","447139","0.0-1.0-563.0-0.0","0","0","41313","","611","","","75","62","","","2","62","training","adjacent","ED","5","4","R.jpg","L.jpg","1","0","0","",""
"","feedback","","html-keyboard-response","399","448142","0.0-1.0-564.0-0.0","0","0","41313","","null","","","null","62","","","","","","","","","","","","","","","",""
"","time_out","","html-keyboard-response","400","450144","0.0-1.0-566.0-0.0","0","0","41313","","null","","","null","62","","","","","","","","","","","","","","","",""
"","ITI","","html-keyboard-response","401","451146","0.0-1.0-567.0","0","0","41313","","null","","","null","62","","","","","","","","","","","","","","","NaN",""
"","S1","","html-keyboard-response","402","451399","0.0-1.0-569.0","0","0","41313","","null","","","null","63","","","","","","","","","","","","","","","",""
"","ISI","","html-keyboard-response","403","452401","0.0-1.0-570.0","0","0","41313","","null","","","null","63","NaN","","","","","","","","","","","","","","",""
"","S2","","html-keyboard-response","404","452652","0.0-1.0-571.0","0","0","41313","","null","","","null","63","","NaN","","","","","","","","","","","","","",""
"","response","","html-keyboard-response","405","453357","0.0-1.0-572.0-0.0","0","0","41313","","705","","","68","63","","","2","63","training","adjacent","GF","7","6","Q.jpg","N.jpg","0","0","1","",""
"","feedback","","html-keyboard-response","406","454359","0.0-1.0-573.0-0.0","0","0","41313","","null","","","null","63","","","","","","","","","","","","","","","",""
"","ITI","","html-keyboard-response","407","455362","0.0-1.0-576.0","0","0","41313","","null","","","null","63","","","","","","","","","","","","","","","NaN",""
"","S1","","html-keyboard-response","408","455614","0.0-1.0-578.0","0","0","41313","","null","","","null","64","","","","","","","","","","","","","","","",""
"","ISI","","html-keyboard-response","409","456627","0.0-1.0-579.0","0","0","41313","","null","","","null","64","NaN","","","","","","","","","","","","","","",""
"","S2","","html-keyboard-response","410","456878","0.0-1.0-580.0","0","0","41313","","null","","","null","64","","NaN","","","","","","","","","","","","","",""
"","response","","html-keyboard-response","411","457667","0.0-1.0-581.0-0.0","0","0","41313","","789","","","68","64","","","2","64","training","adjacent","CB","3","2","O.jpg","M.jpg","0","0","1","",""
"","feedback","","html-keyboard-response","412","458670","0.0-1.0-582.0-0.0","0","0","41313","","null","","","null","64","","","","","","","","","","","","","","","",""
"","ITI","","html-keyboard-response","413","459672","0.0-1.0-585.0","0","0","41313","","null","","","null","64","","","","","","","","","","","","","","","NaN",""
"","S1","","html-keyboard-response","414","459923","0.0-1.0-587.0","0","0","41313","","null","","","null","65","","","","","","","","","","","","","","","",""
"","ISI","","html-keyboard-response","415","460925","0.0-1.0-588.0","0","0","41313","","null","","","null","65","NaN","","","","","","","","","","","","","","",""
"","S2","","html-keyboard-response","416","461176","0.0-1.0-589.0","0","0","41313","","null","","","null","65","","NaN","","","","","","","","","","","","","",""
"","response","","html-keyboard-response","417","462192","0.0-1.0-590.0-0.0","0","0","41313","","1016","","","68","65","","","2","65","training","adjacent","DC","4","3","L.jpg","O.jpg","0","0","1","",""
"","feedback","","html-keyboard-response","418","463194","0.0-1.0-591.0-0.0","0","0","41313","","null","","","null","65","","","","","","","","","","","","","","","",""
"","ITI","","html-keyboard-response","419","464196","0.0-1.0-594.0","0","0","41313","","null","","","null","65","","","","","","","","","","","","","","","NaN",""
"","S1","","html-keyboard-response","420","464448","0.0-1.0-596.0","0","0","41313","","null","","","null","66","","","","","","","","","","","","","","","",""
"","ISI","","html-keyboard-response","421","465448","0.0-1.0-597.0","0","0","41313","","null","","","null","66","NaN","","","","","","","","","","","","","","",""
"","S2","","html-keyboard-response","422","465701","0.0-1.0-598.0","0","0","41313","","null","","","null","66","","NaN","","","","","","","","","","","","","",""
"","response","","html-keyboard-response","423","466139","0.0-1.0-599.0-0.0","0","0","41313","","437","","","68","66","","","2","66","training","adjacent","AB","1","2","P.jpg","M.jpg","0","1","0","",""
"","feedback","","html-keyboard-response","424","467141","0.0-1.0-600.0-0.0","0","0","41313","","null","","","null","66","","","","","","","","","","","","","","","",""
"","time_out","","html-keyboard-response","425","469142","0.0-1.0-602.0-0.0","0","0","41313","","null","","","null","66","","","","","","","","","","","","","","","",""
"","ITI","","html-keyboard-response","426","470144","0.0-1.0-603.0","0","0","41313","","null","","","null","66","","","","","","","","","","","","","","","NaN",""
"","S1","","html-keyboard-response","427","470396","0.0-1.0-605.0","0","0","41313","","null","","","null","67","","","","","","","","","","","","","","","",""
"","ISI","","html-keyboard-response","428","471397","0.0-1.0-606.0","0","0","41313","","null","","","null","67","NaN","","","","","","","","","","","","","","",""
"","S2","","html-keyboard-response","429","471649","0.0-1.0-607.0","0","0","41313","","null","","","null","67","","NaN","","","","","","","","","","","","","",""
"","response","","html-keyboard-response","430","472489","0.0-1.0-608.0-0.0","0","0","41313","","839","","","68","67","","","2","67","training","adjacent","DC","4","3","L.jpg","O.jpg","0","0","1","",""
"","feedback","","html-keyboard-response","431","473491","0.0-1.0-609.0-0.0","0","0","41313","","null","","","null","67","","","","","","","","","","","","","","","",""
"","ITI","","html-keyboard-response","432","474494","0.0-1.0-612.0","0","0","41313","","null","","","null","67","","","","","","","","","","","","","","","NaN",""
"","S1","","html-keyboard-response","433","474757","0.0-1.0-614.0","0","0","41313","","null","","","null","68","","","","","","","","","","","","","","","",""
"","ISI","","html-keyboard-response","434","475758","0.0-1.0-615.0","0","0","41313","","null","","","null","68","NaN","","","","","","","","","","","","","","",""
"","S2","","html-keyboard-response","435","476010","0.0-1.0-616.0","0","0","41313","","null","","","null","68","","NaN","","","","","","","","","","","","","",""
"","response","","html-keyboard-response","436","476883","0.0-1.0-617.0-0.0","0","0","41313","","871","","","68","68","","","2","68","training","adjacent","BA","2","1","M.jpg","P.jpg","0","0","1","",""
"","feedback","","html-keyboard-response","437","477884","0.0-1.0-618.0-0.0","0","0","41313","","null","","","null","68","","","","","","","","","","","","","","","",""
"","ITI","","html-keyboard-response","438","478885","0.0-1.0-621.0","0","0","41313","","null","","","null","68","","","","","","","","","","","","","","","NaN",""
"","S1","","html-keyboard-response","439","479137","0.0-1.0-623.0","0","0","41313","","null","","","null","69","","","","","","","","","","","","","","","",""
"","ISI","","html-keyboard-response","440","480139","0.0-1.0-624.0","0","0","41313","","null","","","null","69","NaN","","","","","","","","","","","","","","",""
"","S2","","html-keyboard-response","441","480392","0.0-1.0-625.0","0","0","41313","","null","","","null","69","","NaN","","","","","","","","","","","","","",""
"","response","","html-keyboard-response","442","480714","0.0-1.0-626.0-0.0","0","0","41313","","321","","","68","69","","","2","69","training","adjacent","BA","2","1","M.jpg","P.jpg","0","0","1","",""
"","feedback","","html-keyboard-response","443","481716","0.0-1.0-627.0-0.0","0","0","41313","","null","","","null","69","","","","","","","","","","","","","","","",""
"","ITI","","html-keyboard-response","444","482718","0.0-1.0-630.0","0","0","41313","","null","","","null","69","","","","","","","","","","","","","","","NaN",""
"","S1","","html-keyboard-response","445","482970","0.0-1.0-632.0","0","0","41313","","null","","","null","70","","","","","","","","","","","","","","","",""
"","ISI","","html-keyboard-response","446","483971","0.0-1.0-633.0","0","0","41313","","null","","","null","70","NaN","","","","","","","","","","","","","","",""
"","S2","","html-keyboard-response","447","484223","0.0-1.0-634.0","0","0","41313","","null","","","null","70","","NaN","","","","","","","","","","","","","",""
"","response","","html-keyboard-response","448","484599","0.0-1.0-635.0-0.0","0","0","41313","","374","","","68","70","","","2","70","training","adjacent","GF","7","6","Q.jpg","N.jpg","0","0","1","",""
"","feedback","","html-keyboard-response","449","485600","0.0-1.0-636.0-0.0","0","0","41313","","null","","","null","70","","","","","","","","","","","","","","","",""
"","ITI","","html-keyboard-response","450","486602","0.0-1.0-639.0","0","0","41313","","null","","","null","70","","","","","","","","","","","","","","","NaN",""
"","S1","","html-keyboard-response","451","486854","0.0-1.0-641.0","0","0","41313","","null","","","null","71","","","","","","","","","","","","","","","",""
"","ISI","","html-keyboard-response","452","487855","0.0-1.0-642.0","0","0","41313","","null","","","null","71","NaN","","","","","","","","","","","","","","",""
"","S2","","html-keyboard-response","453","488107","0.0-1.0-643.0","0","0","41313","","null","","","null","71","","NaN","","","","","","","","","","","","","",""
"","response","","html-keyboard-response","454","488468","0.0-1.0-644.0-0.0","0","0","41313","","359","","","75","71","","","2","71","training","adjacent","AB","1","2","P.jpg","M.jpg","1","1","1","",""
"","feedback","","html-keyboard-response","455","489470","0.0-1.0-645.0-0.0","0","0","41313","","null","","","null","71","","","","","","","","","","","","","","","",""
"","ITI","","html-keyboard-response","456","490471","0.0-1.0-648.0","0","0","41313","","null","","","null","71","","","","","","","","","","","","","","","NaN",""
"","S1","","html-keyboard-response","457","490722","0.0-1.0-650.0","0","0","41313","","null","","","null","72","","","","","","","","","","","","","","","",""
"","ISI","","html-keyboard-response","458","491724","0.0-1.0-651.0","0","0","41313","","null","","","null","72","NaN","","","","","","","","","","","","","","",""
"","S2","","html-keyboard-response","459","491976","0.0-1.0-652.0","0","0","41313","","null","","","null","72","","NaN","","","","","","","","","","","","","",""
"","response","","html-keyboard-response","460","492410","0.0-1.0-653.0-0.0","0","0","41313","","432","","","68","72","","","2","72","training","adjacent","FE","6","5","N.jpg","R.jpg","0","0","1","",""
"","feedback","","html-keyboard-response","461","493412","0.0-1.0-654.0-0.0","0","0","41313","","null","","","null","72","","","","","","","","","","","","","","","",""
"","ITI","","html-keyboard-response","462","494415","0.0-1.0-657.0","0","0","41313","","null","","","null","72","","","","","","","","","","","","","","","NaN",""
"","S1","","html-keyboard-response","463","494668","0.0-1.0-659.0","0","0","41313","","null","","","null","73","","","","","","","","","","","","","","","",""
"","ISI","","html-keyboard-response","464","495669","0.0-1.0-660.0","0","0","41313","","null","","","null","73","NaN","","","","","","","","","","","","","","",""
"","S2","","html-keyboard-response","465","495921","0.0-1.0-661.0","0","0","41313","","null","","","null","73","","NaN","","","","","","","","","","","","","",""
"","response","","html-keyboard-response","466","496604","0.0-1.0-662.0-0.0","0","0","41313","","682","","","75","73","","","2","73","training","adjacent","BC","2","3","M.jpg","O.jpg","1","1","1","",""
"","feedback","","html-keyboard-response","467","497614","0.0-1.0-663.0-0.0","0","0","41313","","null","","","null","73","","","","","","","","","","","","","","","",""
"","ITI","","html-keyboard-response","468","498616","0.0-1.0-666.0","0","0","41313","","null","","","null","73","","","","","","","","","","","","","","","NaN",""
"","S1","","html-keyboard-response","469","498868","0.0-1.0-668.0","0","0","41313","","null","","","null","74","","","","","","","","","","","","","","","",""
"","ISI","","html-keyboard-response","470","499870","0.0-1.0-669.0","0","0","41313","","null","","","null","74","NaN","","","","","","","","","","","","","","",""
"","S2","","html-keyboard-response","471","500122","0.0-1.0-670.0","0","0","41313","","null","","","null","74","","NaN","","","","","","","","","","","","","",""
"","response","","html-keyboard-response","472","500722","0.0-1.0-671.0-0.0","0","0","41313","","599","","","68","74","","","2","74","training","adjacent","ED","5","4","R.jpg","L.jpg","0","0","1","",""
"","feedback","","html-keyboard-response","473","501724","0.0-1.0-672.0-0.0","0","0","41313","","null","","","null","74","","","","","","","","","","","","","","","",""
"","ITI","","html-keyboard-response","474","502725","0.0-1.0-675.0","0","0","41313","","null","","","null","74","","","","","","","","","","","","","","","NaN",""
"","S1","","html-keyboard-response","475","502977","0.0-1.0-677.0","0","0","41313","","null","","","null","75","","","","","","","","","","","","","","","",""
"","ISI","","html-keyboard-response","476","503979","0.0-1.0-678.0","0","0","41313","","null","","","null","75","NaN","","","","","","","","","","","","","","",""
"","S2","","html-keyboard-response","477","504232","0.0-1.0-679.0","0","0","41313","","null","","","null","75","","NaN","","","","","","","","","","","","","",""
"","response","","html-keyboard-response","478","504723","0.0-1.0-680.0-0.0","0","0","41313","","490","","","68","75","","","2","75","training","adjacent","FE","6","5","N.jpg","R.jpg","0","0","1","",""
"","feedback","","html-keyboard-response","479","505724","0.0-1.0-681.0-0.0","0","0","41313","","null","","","null","75","","","","","","","","","","","","","","","",""
"","ITI","","html-keyboard-response","480","506726","0.0-1.0-684.0","0","0","41313","","null","","","null","75","","","","","","","","","","","","","","","NaN",""
"","S1","","html-keyboard-response","481","506978","0.0-1.0-686.0","0","0","41313","","null","","","null","76","","","","","","","","","","","","","","","",""
"","ISI","","html-keyboard-response","482","507980","0.0-1.0-687.0","0","0","41313","","null","","","null","76","NaN","","","","","","","","","","","","","","",""
"","S2","","html-keyboard-response","483","508245","0.0-1.0-688.0","0","0","41313","","null","","","null","76","","NaN","","","","","","","","","","","","","",""
"","response","","html-keyboard-response","484","508652","0.0-1.0-689.0-0.0","0","0","41313","","406","","","68","76","","","2","76","training","adjacent","BA","2","1","M.jpg","P.jpg","0","0","1","",""
"","feedback","","html-keyboard-response","485","509654","0.0-1.0-690.0-0.0","0","0","41313","","null","","","null","76","","","","","","","","","","","","","","","",""
"","ITI","","html-keyboard-response","486","510656","0.0-1.0-693.0","0","0","41313","","null","","","null","76","","","","","","","","","","","","","","","NaN",""
"","S1","","html-keyboard-response","487","510908","0.0-1.0-695.0","0","0","41313","","null","","","null","77","","","","","","","","","","","","","","","",""
"","ISI","","html-keyboard-response","488","511910","0.0-1.0-696.0","0","0","41313","","null","","","null","77","NaN","","","","","","","","","","","","","","",""
"","S2","","html-keyboard-response","489","512161","0.0-1.0-697.0","0","0","41313","","null","","","null","77","","NaN","","","","","","","","","","","","","",""
"","response","","html-keyboard-response","490","513059","0.0-1.0-698.0-0.0","0","0","41313","","897","","","75","77","","","2","77","training","adjacent","EF","5","6","R.jpg","N.jpg","1","1","1","",""
"","feedback","","html-keyboard-response","491","514062","0.0-1.0-699.0-0.0","0","0","41313","","null","","","null","77","","","","","","","","","","","","","","","",""
"","ITI","","html-keyboard-response","492","515065","0.0-1.0-702.0","0","0","41313","","null","","","null","77","","","","","","","","","","","","","","","NaN",""
"","S1","","html-keyboard-response","493","515317","0.0-1.0-704.0","0","0","41313","","null","","","null","78","","","","","","","","","","","","","","","",""
"","ISI","","html-keyboard-response","494","516318","0.0-1.0-705.0","0","0","41313","","null","","","null","78","NaN","","","","","","","","","","","","","","",""
"","S2","","html-keyboard-response","495","516570","0.0-1.0-706.0","0","0","41313","","null","","","null","78","","NaN","","","","","","","","","","","","","",""
"","response","","html-keyboard-response","496","517067","0.0-1.0-707.0-0.0","0","0","41313","","496","","","75","78","","","2","78","training","adjacent","AB","1","2","P.jpg","M.jpg","1","1","1","",""
"","feedback","","html-keyboard-response","497","518070","0.0-1.0-708.0-0.0","0","0","41313","","null","","","null","78","","","","","","","","","","","","","","","",""
"","ITI","","html-keyboard-response","498","519072","0.0-1.0-711.0","0","0","41313","","null","","","null","78","","","","","","","","","","","","","","","NaN",""
"","S1","","html-keyboard-response","499","519325","0.0-1.0-713.0","0","0","41313","","null","","","null","79","","","","","","","","","","","","","","","",""
"","ISI","","html-keyboard-response","500","520326","0.0-1.0-714.0","0","0","41313","","null","","","null","79","NaN","","","","","","","","","","","","","","",""
"","S2","","html-keyboard-response","501","520577","0.0-1.0-715.0","0","0","41313","","null","","","null","79","","NaN","","","","","","","","","","","","","",""
"","response","","html-keyboard-response","502","520912","0.0-1.0-716.0-0.0","0","0","41313","","334","","","68","79","","","2","79","training","adjacent","DC","4","3","L.jpg","O.jpg","0","0","1","",""
"","feedback","","html-keyboard-response","503","521915","0.0-1.0-717.0-0.0","0","0","41313","","null","","","null","79","","","","","","","","","","","","","","","",""
"","ITI","","html-keyboard-response","504","522916","0.0-1.0-720.0","0","0","41313","","null","","","null","79","","","","","","","","","","","","","","","NaN",""
"","S1","","html-keyboard-response","505","523168","0.0-1.0-722.0","0","0","41313","","null","","","null","80","","","","","","","","","","","","","","","",""
"","ISI","","html-keyboard-response","506","524171","0.0-1.0-723.0","0","0","41313","","null","","","null","80","NaN","","","","","","","","","","","","","","",""
"","S2","","html-keyboard-response","507","524423","0.0-1.0-724.0","0","0","41313","","null","","","null","80","","NaN","","","","","","","","","","","","","",""
"","response","","html-keyboard-response","508","525072","0.0-1.0-725.0-0.0","0","0","41313","","648","","","75","80","","","2","80","training","adjacent","AB","1","2","P.jpg","M.jpg","1","1","1","",""
"","feedback","","html-keyboard-response","509","526074","0.0-1.0-726.0-0.0","0","0","41313","","null","","","null","80","","","","","","","","","","","","","","","",""
"","ITI","","html-keyboard-response","510","527075","0.0-1.0-729.0","0","0","41313","","null","","","null","80","","","","","","","","","","","","","","","NaN",""
"","S1","","html-keyboard-response","511","527336","0.0-1.0-731.0","0","0","41313","","null","","","null","81","","","","","","","","","","","","","","","",""
"","ISI","","html-keyboard-response","512","528338","0.0-1.0-732.0","0","0","41313","","null","","","null","81","NaN","","","","","","","","","","","","","","",""
"","S2","","html-keyboard-response","513","528590","0.0-1.0-733.0","0","0","41313","","null","","","null","81","","NaN","","","","","","","","","","","","","",""
"","response","","html-keyboard-response","514","528846","0.0-1.0-734.0-0.0","0","0","41313","","254","","","68","81","","","2","81","training","adjacent","GF","7","6","Q.jpg","N.jpg","0","0","1","",""
"","feedback","","html-keyboard-response","515","529848","0.0-1.0-735.0-0.0","0","0","41313","","null","","","null","81","","","","","","","","","","","","","","","",""
"","ITI","","html-keyboard-response","516","530850","0.0-1.0-738.0","0","0","41313","","null","","","null","81","","","","","","","","","","","","","","","NaN",""
"","S1","","html-keyboard-response","517","531102","0.0-1.0-740.0","0","0","41313","","null","","","null","82","","","","","","","","","","","","","","","",""
"","ISI","","html-keyboard-response","518","532104","0.0-1.0-741.0","0","0","41313","","null","","","null","82","NaN","","","","","","","","","","","","","","",""
"","S2","","html-keyboard-response","519","532356","0.0-1.0-742.0","0","0","41313","","null","","","null","82","","NaN","","","","","","","","","","","","","",""
"","response","","html-keyboard-response","520","532707","0.0-1.0-743.0-0.0","0","0","41313","","349","","","75","82","","","2","82","training","adjacent","FG","6","7","N.jpg","Q.jpg","1","1","1","",""
"","feedback","","html-keyboard-response","521","533709","0.0-1.0-744.0-0.0","0","0","41313","","null","","","null","82","","","","","","","","","","","","","","","",""
"","ITI","","html-keyboard-response","522","534711","0.0-1.0-747.0","0","0","41313","","null","","","null","82","","","","","","","","","","","","","","","NaN",""
"","S1","","html-keyboard-response","523","534963","0.0-1.0-749.0","0","0","41313","","null","","","null","83","","","","","","","","","","","","","","","",""
"","ISI","","html-keyboard-response","524","535964","0.0-1.0-750.0","0","0","41313","","null","","","null","83","NaN","","","","","","","","","","","","","","",""
"","S2","","html-keyboard-response","525","536215","0.0-1.0-751.0","0","0","41313","","null","","","null","83","","NaN","","","","","","","","","","","","","",""
"","response","","html-keyboard-response","526","536899","0.0-1.0-752.0-0.0","0","0","41313","","682","","","68","83","","","2","83","training","adjacent","EF","5","6","R.jpg","N.jpg","0","1","0","",""
"","feedback","","html-keyboard-response","527","537900","0.0-1.0-753.0-0.0","0","0","41313","","null","","","null","83","","","","","","","","","","","","","","","",""
"","time_out","","html-keyboard-response","528","539901","0.0-1.0-755.0-0.0","0","0","41313","","null","","","null","83","","","","","","","","","","","","","","","",""
"","ITI","","html-keyboard-response","529","540902","0.0-1.0-756.0","0","0","41313","","null","","","null","83","","","","","","","","","","","","","","","NaN",""
"","S1","","html-keyboard-response","530","541154","0.0-1.0-758.0","0","0","41313","","null","","","null","84","","","","","","","","","","","","","","","",""
"","ISI","","html-keyboard-response","531","542156","0.0-1.0-759.0","0","0","41313","","null","","","null","84","NaN","","","","","","","","","","","","","","",""
"","S2","","html-keyboard-response","532","542407","0.0-1.0-760.0","0","0","41313","","null","","","null","84","","NaN","","","","","","","","","","","","","",""
"","response","","html-keyboard-response","533","543084","0.0-1.0-761.0-0.0","0","0","41313","","676","","","68","84","","","2","84","training","adjacent","BC","2","3","M.jpg","O.jpg","0","1","0","",""
"","feedback","","html-keyboard-response","534","544085","0.0-1.0-762.0-0.0","0","0","41313","","null","","","null","84","","","","","","","","","","","","","","","",""
"","time_out","","html-keyboard-response","535","546086","0.0-1.0-764.0-0.0","0","0","41313","","null","","","null","84","","","","","","","","","","","","","","","",""
"","ITI","","html-keyboard-response","536","547087","0.0-1.0-765.0","0","0","41313","","null","","","null","84","","","","","","","","","","","","","","","NaN",""
"","S1","","html-keyboard-response","537","547338","0.0-1.0-767.0","0","0","41313","","null","","","null","85","","","","","","","","","","","","","","","",""
"","ISI","","html-keyboard-response","538","548353","0.0-1.0-768.0","0","0","41313","","null","","","null","85","NaN","","","","","","","","","","","","","","",""
"","S2","","html-keyboard-response","539","548605","0.0-1.0-769.0","0","0","41313","","null","","","null","85","","NaN","","","","","","","","","","","","","",""
"","response","","html-keyboard-response","540","549112","0.0-1.0-770.0-0.0","0","0","41313","","506","","","75","85","","","2","85","training","adjacent","CD","3","4","O.jpg","L.jpg","1","1","1","",""
"","feedback","","html-keyboard-response","541","550114","0.0-1.0-771.0-0.0","0","0","41313","","null","","","null","85","","","","","","","","","","","","","","","",""
"","ITI","","html-keyboard-response","542","551115","0.0-1.0-774.0","0","0","41313","","null","","","null","85","","","","","","","","","","","","","","","NaN",""
"","S1","","html-keyboard-response","543","551366","0.0-1.0-776.0","0","0","41313","","null","","","null","86","","","","","","","","","","","","","","","",""
"","ISI","","html-keyboard-response","544","552367","0.0-1.0-777.0","0","0","41313","","null","","","null","86","NaN","","","","","","","","","","","","","","",""
"","S2","","html-keyboard-response","545","552618","0.0-1.0-778.0","0","0","41313","","null","","","null","86","","NaN","","","","","","","","","","","","","",""
"","response","","html-keyboard-response","546","553359","0.0-1.0-779.0-0.0","0","0","41313","","739","","","68","86","","","2","86","training","adjacent","ED","5","4","R.jpg","L.jpg","0","0","1","",""
"","feedback","","html-keyboard-response","547","554361","0.0-1.0-780.0-0.0","0","0","41313","","null","","","null","86","","","","","","","","","","","","","","","",""
"","ITI","","html-keyboard-response","548","555363","0.0-1.0-783.0","0","0","41313","","null","","","null","86","","","","","","","","","","","","","","","NaN",""
"","S1","","html-keyboard-response","549","555615","0.0-1.0-785.0","0","0","41313","","null","","","null","87","","","","","","","","","","","","","","","",""
"","ISI","","html-keyboard-response","550","556616","0.0-1.0-786.0","0","0","41313","","null","","","null","87","NaN","","","","","","","","","","","","","","",""
"","S2","","html-keyboard-response","551","556869","0.0-1.0-787.0","0","0","41313","","null","","","null","87","","NaN","","","","","","","","","","","","","",""
"","response","","html-keyboard-response","552","557547","0.0-1.0-788.0-0.0","0","0","41313","","677","","","75","87","","","2","87","training","adjacent","BC","2","3","M.jpg","O.jpg","1","1","1","",""
"","feedback","","html-keyboard-response","553","558549","0.0-1.0-789.0-0.0","0","0","41313","","null","","","null","87","","","","","","","","","","","","","","","",""
"","ITI","","html-keyboard-response","554","559552","0.0-1.0-792.0","0","0","41313","","null","","","null","87","","","","","","","","","","","","","","","NaN",""
"","S1","","html-keyboard-response","555","559804","0.0-1.0-794.0","0","0","41313","","null","","","null","88","","","","","","","","","","","","","","","",""
"","ISI","","html-keyboard-response","556","560814","0.0-1.0-795.0","0","0","41313","","null","","","null","88","NaN","","","","","","","","","","","","","","",""
"","S2","","html-keyboard-response","557","561067","0.0-1.0-796.0","0","0","41313","","null","","","null","88","","NaN","","","","","","","","","","","","","",""
"","response","","html-keyboard-response","558","561394","0.0-1.0-797.0-0.0","0","0","41313","","326","","","68","88","","","2","88","training","adjacent","CB","3","2","O.jpg","M.jpg","0","0","1","",""
"","feedback","","html-keyboard-response","559","562395","0.0-1.0-798.0-0.0","0","0","41313","","null","","","null","88","","","","","","","","","","","","","","","",""
"","ITI","","html-keyboard-response","560","563397","0.0-1.0-801.0","0","0","41313","","null","","","null","88","","","","","","","","","","","","","","","NaN",""
"","S1","","html-keyboard-response","561","563649","0.0-1.0-803.0","0","0","41313","","null","","","null","89","","","","","","","","","","","","","","","",""
"","ISI","","html-keyboard-response","562","564651","0.0-1.0-804.0","0","0","41313","","null","","","null","89","NaN","","","","","","","","","","","","","","",""
"","S2","","html-keyboard-response","563","564903","0.0-1.0-805.0","0","0","41313","","null","","","null","89","","NaN","","","","","","","","","","","","","",""
"","response","","html-keyboard-response","564","565245","0.0-1.0-806.0-0.0","0","0","41313","","341","","","68","89","","","2","89","training","adjacent","CB","3","2","O.jpg","M.jpg","0","0","1","",""
"","feedback","","html-keyboard-response","565","566247","0.0-1.0-807.0-0.0","0","0","41313","","null","","","null","89","","","","","","","","","","","","","","","",""
"","ITI","","html-keyboard-response","566","567249","0.0-1.0-810.0","0","0","41313","","null","","","null","89","","","","","","","","","","","","","","","NaN",""
"","S1","","html-keyboard-response","567","567501","0.0-1.0-812.0","0","0","41313","","null","","","null","90","","","","","","","","","","","","","","","",""
"","ISI","","html-keyboard-response","568","568502","0.0-1.0-813.0","0","0","41313","","null","","","null","90","NaN","","","","","","","","","","","","","","",""
"","S2","","html-keyboard-response","569","568755","0.0-1.0-814.0","0","0","41313","","null","","","null","90","","NaN","","","","","","","","","","","","","",""
"","response","","html-keyboard-response","570","569242","0.0-1.0-815.0-0.0","0","0","41313","","487","","","68","90","","","2","90","training","adjacent","DC","4","3","L.jpg","O.jpg","0","0","1","",""
"","feedback","","html-keyboard-response","571","570244","0.0-1.0-816.0-0.0","0","0","41313","","null","","","null","90","","","","","","","","","","","","","","","",""
"","ITI","","html-keyboard-response","572","571246","0.0-1.0-819.0","0","0","41313","","null","","","null","90","","","","","","","","","","","","","","","NaN",""
"","S1","","html-keyboard-response","573","571498","0.0-1.0-821.0","0","0","41313","","null","","","null","91","","","","","","","","","","","","","","","",""
"","ISI","","html-keyboard-response","574","572499","0.0-1.0-822.0","0","0","41313","","null","","","null","91","NaN","","","","","","","","","","","","","","",""
"","S2","","html-keyboard-response","575","572751","0.0-1.0-823.0","0","0","41313","","null","","","null","91","","NaN","","","","","","","","","","","","","",""
"","response","","html-keyboard-response","576","573509","0.0-1.0-824.0-0.0","0","0","41313","","758","","","68","91","","","2","91","training","adjacent","ED","5","4","R.jpg","L.jpg","0","0","1","",""
"","feedback","","html-keyboard-response","577","574511","0.0-1.0-825.0-0.0","0","0","41313","","null","","","null","91","","","","","","","","","","","","","","","",""
"","ITI","","html-keyboard-response","578","575514","0.0-1.0-828.0","0","0","41313","","null","","","null","91","","","","","","","","","","","","","","","NaN",""
"","S1","","html-keyboard-response","579","575767","0.0-1.0-830.0","0","0","41313","","null","","","null","92","","","","","","","","","","","","","","","",""
"","ISI","","html-keyboard-response","580","576769","0.0-1.0-831.0","0","0","41313","","null","","","null","92","NaN","","","","","","","","","","","","","","",""
