"success","ttype","start_time","trial_type","trial_index","time_elapsed","internal_node_id","warning","missed_checkup","PID","view_history","rt","responses","repeat_instructions","key_press","index","keypress_isi","keypress_S2","block","trial_num","phase","group_type","pair_type","S1_stim","S2_stim","S1_img","S2_img","S1_chosen","S1_higher","accuracy","keypress_iti","total_bonus_tally"
"true","full_screen","d08052022hr1319","fullscreen","0","8238","0.0-0.0","0","0","77689","","","","","","","","","","","","","","","","","","","","","",""
"","instructions","","instructions","1","29581","0.0-1.0-0.0-0.0","0","0","77689","[{""page_index"":0,""viewing_time"":5712},{""page_index"":1,""viewing_time"":6983},{""page_index"":2,""viewing_time"":5933},{""page_index"":3,""viewing_time"":2714}]","21342","","","","","","","","","","","","","","","","","","","",""
"","comprehension_check","","survey-multi-choice","2","57901","0.0-1.0-0.0-1.0","0","0","77689","","28315","{""Q0"":""True"",""Q1"":""D"",""Q2"":""Once the second image appears and while the screen 'MAKE A CHOICE' is shown"",""Q3"":""Green mark"",""Q4"":""either D or K""}","1","","","","","","","","","","","","","","","","","",""
"","missed_instruction_checkup","","html-keyboard-response","3","60507","0.0-1.0-0.0-2.0-0.0","0","1","77689","","2603","","","32","","","","","","","","","","","","","","","","",""
"","instructions","","instructions","4","68039","0.0-1.0-0.1-0.1","0","0","77689","[{""page_index"":0,""viewing_time"":2433},{""page_index"":1,""viewing_time"":1323},{""page_index"":2,""viewing_time"":2102},{""page_index"":3,""viewing_time"":1672}]","7530","","","","","","","","","","","","","","","","","","","",""
"","comprehension_check","","survey-multi-choice","5","82192","0.0-1.0-0.1-1.1","0","0","77689","","14147","{""Q0"":""True"",""Q1"":""D"",""Q2"":""Only when the screen 'MAKE A CHOICE' is shown"",""Q3"":""Green mark"",""Q4"":""either D or K""}","1","","","","","","","","","","","","","","","","","",""
"","missed_instruction_checkup","","html-keyboard-response","6","83889","0.0-1.0-0.1-2.1-0.1","0","1","77689","","1693","","","32","","","","","","","","","","","","","","","","",""
"","instructions","","instructions","7","113803","0.0-1.0-0.2-0.2","0","0","77689","[{""page_index"":0,""viewing_time"":3834},{""page_index"":1,""viewing_time"":20643},{""page_index"":2,""viewing_time"":3583},{""page_index"":3,""viewing_time"":1853}]","29913","","","","","","","","","","","","","","","","","","","",""
"","comprehension_check","","survey-multi-choice","8","127509","0.0-1.0-0.2-1.2","0","0","77689","","13702","{""Q0"":""True"",""Q1"":""K"",""Q2"":""Once the second image appears and while the screen 'MAKE A CHOICE' is shown"",""Q3"":""Green mark"",""Q4"":""either D or K""}","0","","","","","","","","","","","","","","","","","",""
"","start_exp","","html-keyboard-response","9","141021","0.0-1.0-1.0","0","0","77689","","13510","","","32","","","","","","","","","","","","","","","","",""
"","S1","","html-keyboard-response","10","141275","0.0-1.0-2.0","0","0","77689","","null","","","null","0","","","","","","","","","","","","","","","",""
"","ISI","","html-keyboard-response","11","143277","0.0-1.0-3.0","0","0","77689","","null","","","null","0","NaN","","","","","","","","","","","","","","",""
"","S2","","html-keyboard-response","12","143530","0.0-1.0-4.0","0","0","77689","","null","","","null","0","","NaN","","","","","","","","","","","","","",""
"","response","","html-keyboard-response","13","144437","0.0-1.0-5.0-0.0","0","0","77689","","905","","","75","0","","","1","0","training","adjacent","DC","4","3","L.jpg","P.jpg","1","0","0","",""
"","feedback","","html-keyboard-response","14","145441","0.0-1.0-6.0-0.0","0","0","77689","","null","","","null","0","","","","","","","","","","","","","","","",""
"","time_out","","html-keyboard-response","15","147443","0.0-1.0-8.0-0.0","0","0","77689","","null","","","null","0","","","","","","","","","","","","","","","",""
"","ITI","","html-keyboard-response","16","148446","0.0-1.0-9.0","0","0","77689","","null","","","null","0","","","","","","","","","","","","","","","NaN",""
"","S1","","html-keyboard-response","17","148699","0.0-1.0-11.0","0","0","77689","","null","","","null","1","","","","","","","","","","","","","","","",""
"","ISI","","html-keyboard-response","18","150702","0.0-1.0-12.0","0","0","77689","","null","","","null","1","NaN","","","","","","","","","","","","","","",""
"","S2","","html-keyboard-response","19","150955","0.0-1.0-13.0","0","0","77689","","null","","","null","1","","NaN","","","","","","","","","","","","","",""
"","response","","html-keyboard-response","20","152128","0.0-1.0-14.0-0.0","0","0","77689","","1171","","","75","1","","","1","1","training","adjacent","AB","1","2","O.jpg","M.jpg","1","1","1","",""
"","feedback","","html-keyboard-response","21","153131","0.0-1.0-15.0-0.0","0","0","77689","","null","","","null","1","","","","","","","","","","","","","","","",""
"","ITI","","html-keyboard-response","22","154135","0.0-1.0-18.0","0","0","77689","","null","","","null","1","","","","","","","","","","","","","","","NaN",""
"","S1","","html-keyboard-response","23","154387","0.0-1.0-20.0","0","0","77689","","null","","","null","2","","","","","","","","","","","","","","","",""
"","ISI","","html-keyboard-response","24","156390","0.0-1.0-21.0","0","0","77689","","null","","","null","2","NaN","","","","","","","","","","","","","","",""
"","S2","","html-keyboard-response","25","156643","0.0-1.0-22.0","0","0","77689","","null","","","null","2","","NaN","","","","","","","","","","","","","",""
"","response","","html-keyboard-response","26","157772","0.0-1.0-23.0-0.0","0","0","77689","","1128","","","75","2","","","1","2","training","adjacent","FE","6","5","R.jpg","Q.jpg","1","0","0","",""
"","feedback","","html-keyboard-response","27","158774","0.0-1.0-24.0-0.0","0","0","77689","","null","","","null","2","","","","","","","","","","","","","","","",""
"","time_out","","html-keyboard-response","28","160776","0.0-1.0-26.0-0.0","0","0","77689","","null","","","null","2","","","","","","","","","","","","","","","",""
"","ITI","","html-keyboard-response","29","161778","0.0-1.0-27.0","0","0","77689","","null","","","null","2","","","","","","","","","","","","","","","NaN",""
"","S1","","html-keyboard-response","30","162030","0.0-1.0-29.0","0","0","77689","","null","","","null","3","","","","","","","","","","","","","","","",""
"","ISI","","html-keyboard-response","31","164033","0.0-1.0-30.0","0","0","77689","","null","","","null","3","NaN","","","","","","","","","","","","","","",""
"","S2","","html-keyboard-response","32","164286","0.0-1.0-31.0","0","0","77689","","null","","","null","3","","NaN","","","","","","","","","","","","","",""
"","response","","html-keyboard-response","33","165373","0.0-1.0-32.0-0.0","0","0","77689","","1084","","","68","3","","","1","3","training","adjacent","CD","3","4","P.jpg","L.jpg","0","1","0","",""
"","feedback","","html-keyboard-response","34","166376","0.0-1.0-33.0-0.0","0","0","77689","","null","","","null","3","","","","","","","","","","","","","","","",""
"","time_out","","html-keyboard-response","35","168379","0.0-1.0-35.0-0.0","0","0","77689","","null","","","null","3","","","","","","","","","","","","","","","",""
"","ITI","","html-keyboard-response","36","169382","0.0-1.0-36.0","0","0","77689","","null","","","null","3","","","","","","","","","","","","","","","NaN",""
"","S1","","html-keyboard-response","37","169635","0.0-1.0-38.0","0","0","77689","","null","","","null","4","","","","","","","","","","","","","","","",""
"","ISI","","html-keyboard-response","38","171637","0.0-1.0-39.0","0","0","77689","","null","","","null","4","NaN","","","","","","","","","","","","","","",""
"","S2","","html-keyboard-response","39","171889","0.0-1.0-40.0","0","0","77689","","null","","","null","4","","NaN","","","","","","","","","","","","","",""
"","response","","html-keyboard-response","40","172389","0.0-1.0-41.0-0.0","0","0","77689","","500","","","75","4","","","1","4","training","adjacent","FG","6","7","R.jpg","N.jpg","1","1","1","",""
"","feedback","","html-keyboard-response","41","173392","0.0-1.0-42.0-0.0","0","0","77689","","null","","","null","4","","","","","","","","","","","","","","","",""
"","ITI","","html-keyboard-response","42","174395","0.0-1.0-45.0","0","0","77689","","null","","","null","4","","","","","","","","","","","","","","","NaN",""
"","S1","","html-keyboard-response","43","174647","0.0-1.0-47.0","0","0","77689","","null","","","null","5","","","","","","","","","","","","","","","",""
"","ISI","","html-keyboard-response","44","176649","0.0-1.0-48.0","0","0","77689","","null","","","null","5","NaN","","","","","","","","","","","","","","",""
"","S2","","html-keyboard-response","45","176901","0.0-1.0-49.0","0","0","77689","","null","","","null","5","","NaN","","","","","","","","","","","","","",""
"","response","","html-keyboard-response","46","177696","0.0-1.0-50.0-0.0","0","0","77689","","794","","","75","5","","","1","5","training","adjacent","AB","1","2","O.jpg","M.jpg","1","1","1","",""
"","feedback","","html-keyboard-response","47","178699","0.0-1.0-51.0-0.0","0","0","77689","","null","","","null","5","","","","","","","","","","","","","","","",""
"","ITI","","html-keyboard-response","48","179702","0.0-1.0-54.0","0","0","77689","","null","","","null","5","","","","","","","","","","","","","","","NaN",""
"","S1","","html-keyboard-response","49","179954","0.0-1.0-56.0","0","0","77689","","null","","","null","6","","","","","","","","","","","","","","","",""
"","ISI","","html-keyboard-response","50","181957","0.0-1.0-57.0","0","0","77689","","null","","","null","6","NaN","","","","","","","","","","","","","","",""
"","S2","","html-keyboard-response","51","182210","0.0-1.0-58.0","0","0","77689","","null","","","null","6","","NaN","","","","","","","","","","","","","",""
"","response","","html-keyboard-response","52","183250","0.0-1.0-59.0-0.0","0","0","77689","","1039","","","75","6","","","1","6","training","adjacent","DE","4","5","L.jpg","Q.jpg","1","1","1","",""
"","feedback","","html-keyboard-response","53","184252","0.0-1.0-60.0-0.0","0","0","77689","","null","","","null","6","","","","","","","","","","","","","","","",""
"","ITI","","html-keyboard-response","54","185255","0.0-1.0-63.0","0","0","77689","","null","","","null","6","","","","","","","","","","","","","","","NaN",""
"","S1","","html-keyboard-response","55","185507","0.0-1.0-65.0","0","0","77689","","null","","","null","7","","","","","","","","","","","","","","","",""
"","ISI","","html-keyboard-response","56","187509","0.0-1.0-66.0","0","0","77689","","null","","","null","7","NaN","","","","","","","","","","","","","","",""
"","S2","","html-keyboard-response","57","187764","0.0-1.0-67.0","0","0","77689","","null","","","null","7","","NaN","","","","","","","","","","","","","",""
"","response","","html-keyboard-response","58","188021","0.0-1.0-68.0-0.0","0","0","77689","","256","","","68","7","","","1","7","training","adjacent","CB","3","2","P.jpg","M.jpg","0","0","1","",""
"","feedback","","html-keyboard-response","59","189025","0.0-1.0-69.0-0.0","0","0","77689","","null","","","null","7","","","","","","","","","","","","","","","",""
"","ITI","","html-keyboard-response","60","190028","0.0-1.0-72.0","0","0","77689","","null","","","null","7","","","","","","","","","","","","","","","NaN",""
"","S1","","html-keyboard-response","61","190280","0.0-1.0-74.0","0","0","77689","","null","","","null","8","","","","","","","","","","","","","","","",""
"","ISI","","html-keyboard-response","62","192283","0.0-1.0-75.0","0","0","77689","","null","","","null","8","NaN","","","","","","","","","","","","","","",""
"","S2","","html-keyboard-response","63","192536","0.0-1.0-76.0","0","0","77689","","null","","","null","8","","NaN","","","","","","","","","","","","","",""
"","response","","html-keyboard-response","64","192891","0.0-1.0-77.0-0.0","0","0","77689","","354","","","68","8","","","1","8","training","adjacent","ED","5","4","Q.jpg","L.jpg","0","0","1","",""
"","feedback","","html-keyboard-response","65","193895","0.0-1.0-78.0-0.0","0","0","77689","","null","","","null","8","","","","","","","","","","","","","","","",""
"","ITI","","html-keyboard-response","66","194897","0.0-1.0-81.0","0","0","77689","","null","","","null","8","","","","","","","","","","","","","","","NaN",""
"","S1","","html-keyboard-response","67","195150","0.0-1.0-83.0","0","0","77689","","null","","","null","9","","","","","","","","","","","","","","","",""
"","ISI","","html-keyboard-response","68","197153","0.0-1.0-84.0","0","0","77689","","null","","","null","9","NaN","","","","","","","","","","","","","","",""
"","S2","","html-keyboard-response","69","197405","0.0-1.0-85.0","0","0","77689","","null","","","null","9","","NaN","","","","","","","","","","","","","",""
"","response","","html-keyboard-response","70","197619","0.0-1.0-86.0-0.0","0","0","77689","","211","","","75","9","","","1","9","training","adjacent","FG","6","7","R.jpg","N.jpg","1","1","1","",""
"","feedback","","html-keyboard-response","71","198622","0.0-1.0-87.0-0.0","0","0","77689","","null","","","null","9","","","","","","","","","","","","","","","",""
"","ITI","","html-keyboard-response","72","199625","0.0-1.0-90.0","0","0","77689","","null","","","null","9","","","","","","","","","","","","","","","NaN",""
"","S1","","html-keyboard-response","73","199878","0.0-1.0-92.0","0","0","77689","","null","","","null","10","","","","","","","","","","","","","","","",""
"","ISI","","html-keyboard-response","74","201880","0.0-1.0-93.0","0","0","77689","","null","","","null","10","NaN","","","","","","","","","","","","","","",""
"","S2","","html-keyboard-response","75","202133","0.0-1.0-94.0","0","0","77689","","null","","","null","10","","NaN","","","","","","","","","","","","","",""
"","response","","html-keyboard-response","76","202461","0.0-1.0-95.0-0.0","0","0","77689","","326","","","75","10","","","1","10","training","adjacent","BC","2","3","M.jpg","P.jpg","1","1","1","",""
"","feedback","","html-keyboard-response","77","203464","0.0-1.0-96.0-0.0","0","0","77689","","null","","","null","10","","","","","","","","","","","","","","","",""
"","ITI","","html-keyboard-response","78","204466","0.0-1.0-99.0","0","0","77689","","null","","","null","10","","","","","","","","","","","","","","","NaN",""
"","S1","","html-keyboard-response","79","204718","0.0-1.0-101.0","0","0","77689","","null","","","null","11","","","","","","","","","","","","","","","",""
"","ISI","","html-keyboard-response","80","206721","0.0-1.0-102.0","0","0","77689","","null","","","null","11","NaN","","","","","","","","","","","","","","",""
"","S2","","html-keyboard-response","81","206982","0.0-1.0-103.0","0","0","77689","","null","","","null","11","","NaN","","","","","","","","","","","","","",""
"","response","","html-keyboard-response","82","207244","0.0-1.0-104.0-0.0","0","0","77689","","260","","","75","11","","","1","11","training","adjacent","FG","6","7","R.jpg","N.jpg","1","1","1","",""
"","feedback","","html-keyboard-response","83","208247","0.0-1.0-105.0-0.0","0","0","77689","","null","","","null","11","","","","","","","","","","","","","","","",""
"","ITI","","html-keyboard-response","84","209250","0.0-1.0-108.0","0","0","77689","","null","","","null","11","","","","","","","","","","","","","","","NaN",""
"","S1","","html-keyboard-response","85","209503","0.0-1.0-110.0","0","0","77689","","null","","","null","12","","","","","","","","","","","","","","","",""
"","ISI","","html-keyboard-response","86","211507","0.0-1.0-111.0","0","0","77689","","null","","","null","12","NaN","","","","","","","","","","","","","","",""
"","S2","","html-keyboard-response","87","211760","0.0-1.0-112.0","0","0","77689","","null","","","null","12","","NaN","","","","","","","","","","","","","",""
"","response","","html-keyboard-response","88","212396","0.0-1.0-113.0-0.0","0","0","77689","","635","","","68","12","","","1","12","training","adjacent","GF","7","6","N.jpg","R.jpg","0","0","1","",""
"","feedback","","html-keyboard-response","89","213398","0.0-1.0-114.0-0.0","0","0","77689","","null","","","null","12","","","","","","","","","","","","","","","",""
"","ITI","","html-keyboard-response","90","214401","0.0-1.0-117.0","0","0","77689","","null","","","null","12","","","","","","","","","","","","","","","NaN",""
"","S1","","html-keyboard-response","91","214655","0.0-1.0-119.0","0","0","77689","","null","","","null","13","","","","","","","","","","","","","","","",""
"","ISI","","html-keyboard-response","92","216657","0.0-1.0-120.0","0","0","77689","","null","","","null","13","NaN","","","","","","","","","","","","","","",""
"","S2","","html-keyboard-response","93","216911","0.0-1.0-121.0","0","0","77689","","null","","","null","13","","NaN","","","","","","","","","","","","","",""
"","response","","html-keyboard-response","94","217503","0.0-1.0-122.0-0.0","0","0","77689","","591","","","68","13","","","1","13","training","adjacent","AB","1","2","O.jpg","M.jpg","0","1","0","",""
"","feedback","","html-keyboard-response","95","218506","0.0-1.0-123.0-0.0","0","0","77689","","null","","","null","13","","","","","","","","","","","","","","","",""
"","time_out","","html-keyboard-response","96","220508","0.0-1.0-125.0-0.0","0","0","77689","","null","","","null","13","","","","","","","","","","","","","","","",""
"","ITI","","html-keyboard-response","97","221510","0.0-1.0-126.0","0","0","77689","","null","","","null","13","","","","","","","","","","","","","","","NaN",""
"","S1","","html-keyboard-response","98","221775","0.0-1.0-128.0","0","0","77689","","null","","","null","14","","","","","","","","","","","","","","","",""
"","ISI","","html-keyboard-response","99","223777","0.0-1.0-129.0","0","0","77689","","null","","","null","14","NaN","","","","","","","","","","","","","","",""
"","S2","","html-keyboard-response","100","224029","0.0-1.0-130.0","0","0","77689","","null","","","null","14","","NaN","","","","","","","","","","","","","",""
"","response","","html-keyboard-response","101","224964","0.0-1.0-131.0-0.0","0","0","77689","","933","","","68","14","","","1","14","training","adjacent","EF","5","6","Q.jpg","R.jpg","0","1","0","",""
"","feedback","","html-keyboard-response","102","225967","0.0-1.0-132.0-0.0","0","0","77689","","null","","","null","14","","","","","","","","","","","","","","","",""
"","time_out","","html-keyboard-response","103","227970","0.0-1.0-134.0-0.0","0","0","77689","","null","","","null","14","","","","","","","","","","","","","","","",""
"","ITI","","html-keyboard-response","104","228973","0.0-1.0-135.0","0","0","77689","","null","","","null","14","","","","","","","","","","","","","","","NaN",""
"","S1","","html-keyboard-response","105","229227","0.0-1.0-137.0","0","0","77689","","null","","","null","15","","","","","","","","","","","","","","","",""
"","ISI","","html-keyboard-response","106","231230","0.0-1.0-138.0","0","0","77689","","null","","","null","15","NaN","","","","","","","","","","","","","","",""
"","S2","","html-keyboard-response","107","231481","0.0-1.0-139.0","0","0","77689","","null","","","null","15","","NaN","","","","","","","","","","","","","",""
"","response","","html-keyboard-response","108","232161","0.0-1.0-140.0-0.0","0","0","77689","","678","","","68","15","","","1","15","training","adjacent","DE","4","5","L.jpg","Q.jpg","0","1","0","",""
"","feedback","","html-keyboard-response","109","233165","0.0-1.0-141.0-0.0","0","0","77689","","null","","","null","15","","","","","","","","","","","","","","","",""
"","time_out","","html-keyboard-response","110","235168","0.0-1.0-143.0-0.0","0","0","77689","","null","","","null","15","","","","","","","","","","","","","","","",""
"","ITI","","html-keyboard-response","111","236170","0.0-1.0-144.0","0","0","77689","","null","","","null","15","","","","","","","","","","","","","","","NaN",""
"","S1","","html-keyboard-response","112","236423","0.0-1.0-146.0","0","0","77689","","null","","","null","16","","","","","","","","","","","","","","","",""
"","ISI","","html-keyboard-response","113","238426","0.0-1.0-147.0","0","0","77689","","null","","","null","16","NaN","","","","","","","","","","","","","","",""
"","S2","","html-keyboard-response","114","238679","0.0-1.0-148.0","0","0","77689","","null","","","null","16","","NaN","","","","","","","","","","","","","",""
"","response","","html-keyboard-response","115","239424","0.0-1.0-149.0-0.0","0","0","77689","","743","","","75","16","","","1","16","training","adjacent","BA","2","1","M.jpg","O.jpg","1","0","0","",""
"","feedback","","html-keyboard-response","116","240425","0.0-1.0-150.0-0.0","0","0","77689","","null","","","null","16","","","","","","","","","","","","","","","",""
"","time_out","","html-keyboard-response","117","242428","0.0-1.0-152.0-0.0","0","0","77689","","null","","","null","16","","","","","","","","","","","","","","","",""
"","ITI","","html-keyboard-response","118","243431","0.0-1.0-153.0","0","0","77689","","null","","","null","16","","","","","","","","","","","","","","","NaN",""
"","S1","","html-keyboard-response","119","243683","0.0-1.0-155.0","0","0","77689","","null","","","null","17","","","","","","","","","","","","","","","",""
"","ISI","","html-keyboard-response","120","245686","0.0-1.0-156.0","0","0","77689","","null","","","null","17","NaN","","","","","","","","","","","","","","",""
"","S2","","html-keyboard-response","121","245939","0.0-1.0-157.0","0","0","77689","","null","","","null","17","","NaN","","","","","","","","","","","","","",""
"","response","","html-keyboard-response","122","246667","0.0-1.0-158.0-0.0","0","0","77689","","726","","","68","17","","","1","17","training","adjacent","GF","7","6","N.jpg","R.jpg","0","0","1","",""
"","feedback","","html-keyboard-response","123","247670","0.0-1.0-159.0-0.0","0","0","77689","","null","","","null","17","","","","","","","","","","","","","","","",""
"","ITI","","html-keyboard-response","124","248673","0.0-1.0-162.0","0","0","77689","","null","","","null","17","","","","","","","","","","","","","","","NaN",""
"","S1","","html-keyboard-response","125","248926","0.0-1.0-164.0","0","0","77689","","null","","","null","18","","","","","","","","","","","","","","","",""
"","ISI","","html-keyboard-response","126","250927","0.0-1.0-165.0","0","0","77689","","null","","","null","18","NaN","","","","","","","","","","","","","","",""
"","S2","","html-keyboard-response","127","251179","0.0-1.0-166.0","0","0","77689","","null","","","null","18","","NaN","","","","","","","","","","","","","",""
"","response","","html-keyboard-response","128","252066","0.0-1.0-167.0-0.0","0","0","77689","","885","","","75","18","","","1","18","training","adjacent","DE","4","5","L.jpg","Q.jpg","1","1","1","",""
"","feedback","","html-keyboard-response","129","253070","0.0-1.0-168.0-0.0","0","0","77689","","null","","","null","18","","","","","","","","","","","","","","","",""
"","ITI","","html-keyboard-response","130","254073","0.0-1.0-171.0","0","0","77689","","null","","","null","18","","","","","","","","","","","","","","","NaN",""
"","S1","","html-keyboard-response","131","254324","0.0-1.0-173.0","0","0","77689","","null","","","null","19","","","","","","","","","","","","","","","",""
"","ISI","","html-keyboard-response","132","256326","0.0-1.0-174.0","0","0","77689","","null","","","null","19","NaN","","","","","","","","","","","","","","",""
"","S2","","html-keyboard-response","133","256578","0.0-1.0-175.0","0","0","77689","","null","","","null","19","","NaN","","","","","","","","","","","","","",""
"","response","","html-keyboard-response","134","256825","0.0-1.0-176.0-0.0","0","0","77689","","245","","","75","19","","","1","19","training","adjacent","FE","6","5","R.jpg","Q.jpg","1","0","0","",""
"","feedback","","html-keyboard-response","135","257828","0.0-1.0-177.0-0.0","0","0","77689","","null","","","null","19","","","","","","","","","","","","","","","",""
"","time_out","","html-keyboard-response","136","259829","0.0-1.0-179.0-0.0","0","0","77689","","null","","","null","19","","","","","","","","","","","","","","","",""
"","ITI","","html-keyboard-response","137","260831","0.0-1.0-180.0","0","0","77689","","null","","","null","19","","","","","","","","","","","","","","","NaN",""
"","S1","","html-keyboard-response","138","261085","0.0-1.0-182.0","0","0","77689","","null","","","null","20","","","","","","","","","","","","","","","",""
"","ISI","","html-keyboard-response","139","263088","0.0-1.0-183.0","0","0","77689","","null","","","null","20","NaN","","","","","","","","","","","","","","",""
"","S2","","html-keyboard-response","140","263340","0.0-1.0-184.0","0","0","77689","","null","","","null","20","","NaN","","","","","","","","","","","","","",""
"","response","","html-keyboard-response","141","263836","0.0-1.0-185.0-0.0","0","0","77689","","494","","","75","20","","","1","20","training","adjacent","BA","2","1","M.jpg","O.jpg","1","0","0","",""
"","feedback","","html-keyboard-response","142","264838","0.0-1.0-186.0-0.0","0","0","77689","","null","","","null","20","","","","","","","","","","","","","","","",""
"","time_out","","html-keyboard-response","143","266843","0.0-1.0-188.0-0.0","0","0","77689","","null","","","null","20","","","","","","","","","","","","","","","",""
"","ITI","","html-keyboard-response","144","267845","0.0-1.0-189.0","0","0","77689","","null","","","null","20","","","","","","","","","","","","","","","NaN",""
"","S1","","html-keyboard-response","145","268098","0.0-1.0-191.0","0","0","77689","","null","","","null","21","","","","","","","","","","","","","","","",""
"","ISI","","html-keyboard-response","146","270101","0.0-1.0-192.0","0","0","77689","","null","","","null","21","NaN","","","","","","","","","","","","","","",""
"","S2","","html-keyboard-response","147","270354","0.0-1.0-193.0","0","0","77689","","null","","","null","21","","NaN","","","","","","","","","","","","","",""
"","response","","html-keyboard-response","148","270683","0.0-1.0-194.0-0.0","0","0","77689","","328","","","68","21","","","1","21","training","adjacent","FE","6","5","R.jpg","Q.jpg","0","0","1","",""
"","feedback","","html-keyboard-response","149","271686","0.0-1.0-195.0-0.0","0","0","77689","","null","","","null","21","","","","","","","","","","","","","","","",""
"","ITI","","html-keyboard-response","150","272690","0.0-1.0-198.0","0","0","77689","","null","","","null","21","","","","","","","","","","","","","","","NaN",""
"","S1","","html-keyboard-response","151","272942","0.0-1.0-200.0","0","0","77689","","null","","","null","22","","","","","","","","","","","","","","","",""
"","ISI","","html-keyboard-response","152","274945","0.0-1.0-201.0","0","0","77689","","null","","","null","22","NaN","","","","","","","","","","","","","","",""
"","S2","","html-keyboard-response","153","275198","0.0-1.0-202.0","0","0","77689","","null","","","null","22","","NaN","","","","","","","","","","","","","",""
"","response","","html-keyboard-response","154","275665","0.0-1.0-203.0-0.0","0","0","77689","","466","","","75","22","","","1","22","training","adjacent","EF","5","6","Q.jpg","R.jpg","1","1","1","",""
"","feedback","","html-keyboard-response","155","276668","0.0-1.0-204.0-0.0","0","0","77689","","null","","","null","22","","","","","","","","","","","","","","","",""
"","ITI","","html-keyboard-response","156","277671","0.0-1.0-207.0","0","0","77689","","null","","","null","22","","","","","","","","","","","","","","","NaN",""
"","S1","","html-keyboard-response","157","277924","0.0-1.0-209.0","0","0","77689","","null","","","null","23","","","","","","","","","","","","","","","",""
"","ISI","","html-keyboard-response","158","279927","0.0-1.0-210.0","0","0","77689","","null","","","null","23","NaN","","","","","","","","","","","","","","",""
"","S2","","html-keyboard-response","159","280180","0.0-1.0-211.0","0","0","77689","","null","","","null","23","","NaN","","","","","","","","","","","","","",""
"","response","","html-keyboard-response","160","280800","0.0-1.0-212.0-0.0","0","0","77689","","618","","","68","23","","","1","23","training","adjacent","DC","4","3","L.jpg","P.jpg","0","0","1","",""
"","feedback","","html-keyboard-response","161","281802","0.0-1.0-213.0-0.0","0","0","77689","","null","","","null","23","","","","","","","","","","","","","","","",""
"","ITI","","html-keyboard-response","162","282805","0.0-1.0-216.0","0","0","77689","","null","","","null","23","","","","","","","","","","","","","","","NaN",""
"","S1","","html-keyboard-response","163","283058","0.0-1.0-218.0","0","0","77689","","null","","","null","24","","","","","","","","","","","","","","","",""
"","ISI","","html-keyboard-response","164","285060","0.0-1.0-219.0","0","0","77689","","null","","","null","24","NaN","","","","","","","","","","","","","","",""
"","S2","","html-keyboard-response","165","285314","0.0-1.0-220.0","0","0","77689","","null","","","null","24","","NaN","","","","","","","","","","","","","",""
"","response","","html-keyboard-response","166","286455","0.0-1.0-221.0-0.0","0","0","77689","","1139","","","68","24","","","1","24","training","adjacent","CB","3","2","P.jpg","M.jpg","0","0","1","",""
"","feedback","","html-keyboard-response","167","287457","0.0-1.0-222.0-0.0","0","0","77689","","null","","","null","24","","","","","","","","","","","","","","","",""
"","ITI","","html-keyboard-response","168","288459","0.0-1.0-225.0","0","0","77689","","null","","","null","24","","","","","","","","","","","","","","","NaN",""
"","S1","","html-keyboard-response","169","288712","0.0-1.0-227.0","0","0","77689","","null","","","null","25","","","","","","","","","","","","","","","",""
"","ISI","","html-keyboard-response","170","290715","0.0-1.0-228.0","0","0","77689","","null","","","null","25","NaN","","","","","","","","","","","","","","",""
"","S2","","html-keyboard-response","171","290968","0.0-1.0-229.0","0","0","77689","","null","","","null","25","","NaN","","","","","","","","","","","","","",""
"","response","","html-keyboard-response","172","291874","0.0-1.0-230.0-0.0","0","0","77689","","904","","","75","25","","","1","25","training","adjacent","CD","3","4","P.jpg","L.jpg","1","1","1","",""
"","feedback","","html-keyboard-response","173","292877","0.0-1.0-231.0-0.0","0","0","77689","","null","","","null","25","","","","","","","","","","","","","","","",""
"","ITI","","html-keyboard-response","174","293879","0.0-1.0-234.0","0","0","77689","","null","","","null","25","","","","","","","","","","","","","","","NaN",""
"","S1","","html-keyboard-response","175","294133","0.0-1.0-236.0","0","0","77689","","null","","","null","26","","","","","","","","","","","","","","","",""
"","ISI","","html-keyboard-response","176","296135","0.0-1.0-237.0","0","0","77689","","null","","","null","26","NaN","","","","","","","","","","","","","","",""
"","S2","","html-keyboard-response","177","296388","0.0-1.0-238.0","0","0","77689","","null","","","null","26","","NaN","","","","","","","","","","","","","",""
"","response","","html-keyboard-response","178","297059","0.0-1.0-239.0-0.0","0","0","77689","","670","","","68","26","","","1","26","training","adjacent","BA","2","1","M.jpg","O.jpg","0","0","1","",""
"","feedback","","html-keyboard-response","179","298061","0.0-1.0-240.0-0.0","0","0","77689","","null","","","null","26","","","","","","","","","","","","","","","",""
"","ITI","","html-keyboard-response","180","299064","0.0-1.0-243.0","0","0","77689","","null","","","null","26","","","","","","","","","","","","","","","NaN",""
"","S1","","html-keyboard-response","181","299316","0.0-1.0-245.0","0","0","77689","","null","","","null","27","","","","","","","","","","","","","","","",""
"","ISI","","html-keyboard-response","182","301319","0.0-1.0-246.0","0","0","77689","","null","","","null","27","NaN","","","","","","","","","","","","","","",""
"","S2","","html-keyboard-response","183","301572","0.0-1.0-247.0","0","0","77689","","null","","","null","27","","NaN","","","","","","","","","","","","","",""
"","response","","html-keyboard-response","184","302616","0.0-1.0-248.0-0.0","0","0","77689","","1042","","","68","27","","","1","27","training","adjacent","BC","2","3","M.jpg","P.jpg","0","1","0","",""
"","feedback","","html-keyboard-response","185","303619","0.0-1.0-249.0-0.0","0","0","77689","","null","","","null","27","","","","","","","","","","","","","","","",""
"","time_out","","html-keyboard-response","186","305621","0.0-1.0-251.0-0.0","0","0","77689","","null","","","null","27","","","","","","","","","","","","","","","",""
"","ITI","","html-keyboard-response","187","306624","0.0-1.0-252.0","0","0","77689","","null","","","null","27","","","","","","","","","","","","","","","NaN",""
"","S1","","html-keyboard-response","188","306877","0.0-1.0-254.0","0","0","77689","","null","","","null","28","","","","","","","","","","","","","","","",""
"","ISI","","html-keyboard-response","189","308880","0.0-1.0-255.0","0","0","77689","","null","","","null","28","NaN","","","","","","","","","","","","","","",""
"","S2","","html-keyboard-response","190","309132","0.0-1.0-256.0","0","0","77689","","null","","","null","28","","NaN","","","","","","","","","","","","","",""
"","response","","html-keyboard-response","191","310013","0.0-1.0-257.0-0.0","0","0","77689","","880","","","75","28","","","1","28","training","adjacent","FE","6","5","R.jpg","Q.jpg","1","0","0","",""
"","feedback","","html-keyboard-response","192","311016","0.0-1.0-258.0-0.0","0","0","77689","","null","","","null","28","","","","","","","","","","","","","","","",""
"","time_out","","html-keyboard-response","193","313019","0.0-1.0-260.0-0.0","0","0","77689","","null","","","null","28","","","","","","","","","","","","","","","",""
"","ITI","","html-keyboard-response","194","314021","0.0-1.0-261.0","0","0","77689","","null","","","null","28","","","","","","","","","","","","","","","NaN",""
"","S1","","html-keyboard-response","195","314278","0.0-1.0-263.0","0","0","77689","","null","","","null","29","","","","","","","","","","","","","","","",""
"","ISI","","html-keyboard-response","196","316281","0.0-1.0-264.0","0","0","77689","","null","","","null","29","NaN","","","","","","","","","","","","","","",""
"","S2","","html-keyboard-response","197","316534","0.0-1.0-265.0","0","0","77689","","null","","","null","29","","NaN","","","","","","","","","","","","","",""
"","response","","html-keyboard-response","198","317157","0.0-1.0-266.0-0.0","0","0","77689","","622","","","75","29","","","1","29","training","adjacent","ED","5","4","Q.jpg","L.jpg","1","0","0","",""
"","feedback","","html-keyboard-response","199","318160","0.0-1.0-267.0-0.0","0","0","77689","","null","","","null","29","","","","","","","","","","","","","","","",""
"","time_out","","html-keyboard-response","200","320162","0.0-1.0-269.0-0.0","0","0","77689","","null","","","null","29","","","","","","","","","","","","","","","",""
"","ITI","","html-keyboard-response","201","321164","0.0-1.0-270.0","0","0","77689","","null","","","null","29","","","","","","","","","","","","","","","NaN",""
"","S1","","html-keyboard-response","202","321418","0.0-1.0-272.0","0","0","77689","","null","","","null","30","","","","","","","","","","","","","","","",""
"","ISI","","html-keyboard-response","203","323420","0.0-1.0-273.0","0","0","77689","","null","","","null","30","NaN","","","","","","","","","","","","","","",""
"","S2","","html-keyboard-response","204","323674","0.0-1.0-274.0","0","0","77689","","null","","","null","30","","NaN","","","","","","","","","","","","","",""
"","response","","html-keyboard-response","205","324123","0.0-1.0-275.0-0.0","0","0","77689","","447","","","68","30","","","1","30","training","adjacent","CB","3","2","P.jpg","M.jpg","0","0","1","",""
"","feedback","","html-keyboard-response","206","325125","0.0-1.0-276.0-0.0","0","0","77689","","null","","","null","30","","","","","","","","","","","","","","","",""
"","ITI","","html-keyboard-response","207","326128","0.0-1.0-279.0","0","0","77689","","null","","","null","30","","","","","","","","","","","","","","","NaN",""
"","S1","","html-keyboard-response","208","326381","0.0-1.0-281.0","0","0","77689","","null","","","null","31","","","","","","","","","","","","","","","",""
"","ISI","","html-keyboard-response","209","328382","0.0-1.0-282.0","0","0","77689","","null","","","null","31","NaN","","","","","","","","","","","","","","",""
"","S2","","html-keyboard-response","210","328635","0.0-1.0-283.0","0","0","77689","","null","","","null","31","","NaN","","","","","","","","","","","","","",""
"","response","","html-keyboard-response","211","329628","0.0-1.0-284.0-0.0","0","0","77689","","991","","","75","31","","","1","31","training","adjacent","BC","2","3","M.jpg","P.jpg","1","1","1","",""
"","feedback","","html-keyboard-response","212","330631","0.0-1.0-285.0-0.0","0","0","77689","","null","","","null","31","","","","","","","","","","","","","","","",""
"","ITI","","html-keyboard-response","213","331634","0.0-1.0-288.0","0","0","77689","","null","","","null","31","","","","","","","","","","","","","","","NaN",""
"","S1","","html-keyboard-response","214","331887","0.0-1.0-290.0","0","0","77689","","null","","","null","32","","","","","","","","","","","","","","","",""
"","ISI","","html-keyboard-response","215","333889","0.0-1.0-291.0","0","0","77689","","null","","","null","32","NaN","","","","","","","","","","","","","","",""
"","S2","","html-keyboard-response","216","334152","0.0-1.0-292.0","0","0","77689","","null","","","null","32","","NaN","","","","","","","","","","","","","",""
"","response","","html-keyboard-response","217","334895","0.0-1.0-293.0-0.0","0","0","77689","","742","","","68","32","","","1","32","training","adjacent","GF","7","6","N.jpg","R.jpg","0","0","1","",""
"","feedback","","html-keyboard-response","218","335898","0.0-1.0-294.0-0.0","0","0","77689","","null","","","null","32","","","","","","","","","","","","","","","",""
"","ITI","","html-keyboard-response","219","336901","0.0-1.0-297.0","0","0","77689","","null","","","null","32","","","","","","","","","","","","","","","NaN",""
"","S1","","html-keyboard-response","220","337154","0.0-1.0-299.0","0","0","77689","","null","","","null","33","","","","","","","","","","","","","","","",""
"","ISI","","html-keyboard-response","221","339158","0.0-1.0-300.0","0","0","77689","","null","","","null","33","NaN","","","","","","","","","","","","","","",""
"","S2","","html-keyboard-response","222","339411","0.0-1.0-301.0","0","0","77689","","null","","","null","33","","NaN","","","","","","","","","","","","","",""
"","response","","html-keyboard-response","223","340450","0.0-1.0-302.0-0.0","0","0","77689","","1038","","","75","33","","","1","33","training","adjacent","ED","5","4","Q.jpg","L.jpg","1","0","0","",""
"","feedback","","html-keyboard-response","224","341453","0.0-1.0-303.0-0.0","0","0","77689","","null","","","null","33","","","","","","","","","","","","","","","",""
"","time_out","","html-keyboard-response","225","343455","0.0-1.0-305.0-0.0","0","0","77689","","null","","","null","33","","","","","","","","","","","","","","","",""
"","ITI","","html-keyboard-response","226","344457","0.0-1.0-306.0","0","0","77689","","null","","","null","33","","","","","","","","","","","","","","","NaN",""
"","S1","","html-keyboard-response","227","344711","0.0-1.0-308.0","0","0","77689","","null","","","null","34","","","","","","","","","","","","","","","",""
"","ISI","","html-keyboard-response","228","346713","0.0-1.0-309.0","0","0","77689","","null","","","null","34","NaN","","","","","","","","","","","","","","",""
"","S2","","html-keyboard-response","229","346966","0.0-1.0-310.0","0","0","77689","","null","","","null","34","","NaN","","","","","","","","","","","","","",""
"","response","","html-keyboard-response","230","347714","0.0-1.0-311.0-0.0","0","0","77689","","747","","","68","34","","","1","34","training","adjacent","CD","3","4","P.jpg","L.jpg","0","1","0","",""
"","feedback","","html-keyboard-response","231","348716","0.0-1.0-312.0-0.0","0","0","77689","","null","","","null","34","","","","","","","","","","","","","","","",""
"","time_out","","html-keyboard-response","232","350718","0.0-1.0-314.0-0.0","0","0","77689","","null","","","null","34","","","","","","","","","","","","","","","",""
"","ITI","","html-keyboard-response","233","351720","0.0-1.0-315.0","0","0","77689","","null","","","null","34","","","","","","","","","","","","","","","NaN",""
"","S1","","html-keyboard-response","234","351973","0.0-1.0-317.0","0","0","77689","","null","","","null","35","","","","","","","","","","","","","","","",""
"","ISI","","html-keyboard-response","235","353975","0.0-1.0-318.0","0","0","77689","","null","","","null","35","NaN","","","","","","","","","","","","","","",""
"","S2","","html-keyboard-response","236","354227","0.0-1.0-319.0","0","0","77689","","null","","","null","35","","NaN","","","","","","","","","","","","","",""
"","response","","html-keyboard-response","237","354734","0.0-1.0-320.0-0.0","0","0","77689","","506","","","68","35","","","1","35","training","adjacent","DC","4","3","L.jpg","P.jpg","0","0","1","",""
"","feedback","","html-keyboard-response","238","355737","0.0-1.0-321.0-0.0","0","0","77689","","null","","","null","35","","","","","","","","","","","","","","","",""
"","ITI","","html-keyboard-response","239","356740","0.0-1.0-324.0","0","0","77689","","null","","","null","35","","","","","","","","","","","","","","","NaN",""
"","S1","","html-keyboard-response","240","356993","0.0-1.0-326.0","0","0","77689","","null","","","null","36","","","","","","","","","","","","","","","",""
"","ISI","","html-keyboard-response","241","358995","0.0-1.0-327.0","0","0","77689","","null","","","null","36","NaN","","","","","","","","","","","","","","",""
"","S2","","html-keyboard-response","242","359248","0.0-1.0-328.0","0","0","77689","","null","","","null","36","","NaN","","","","","","","","","","","","","",""
"","response","","html-keyboard-response","243","359875","0.0-1.0-329.0-0.0","0","0","77689","","625","","","75","36","","","1","36","training","adjacent","FG","6","7","R.jpg","N.jpg","1","1","1","",""
"","feedback","","html-keyboard-response","244","360879","0.0-1.0-330.0-0.0","0","0","77689","","null","","","null","36","","","","","","","","","","","","","","","",""
"","ITI","","html-keyboard-response","245","361881","0.0-1.0-333.0","0","0","77689","","null","","","null","36","","","","","","","","","","","","","","","NaN",""
"","S1","","html-keyboard-response","246","362134","0.0-1.0-335.0","0","0","77689","","null","","","null","37","","","","","","","","","","","","","","","",""
"","ISI","","html-keyboard-response","247","364137","0.0-1.0-336.0","0","0","77689","","null","","","null","37","NaN","","","","","","","","","","","","","","",""
"","S2","","html-keyboard-response","248","364390","0.0-1.0-337.0","0","0","77689","","null","","","null","37","","NaN","","","","","","","","","","","","","",""
"","response","","html-keyboard-response","249","364715","0.0-1.0-338.0-0.0","0","0","77689","","324","","","75","37","","","1","37","training","adjacent","DE","4","5","L.jpg","Q.jpg","1","1","1","",""
"","feedback","","html-keyboard-response","250","365718","0.0-1.0-339.0-0.0","0","0","77689","","null","","","null","37","","","","","","","","","","","","","","","",""
"","ITI","","html-keyboard-response","251","366720","0.0-1.0-342.0","0","0","77689","","null","","","null","37","","","","","","","","","","","","","","","NaN",""
"","S1","","html-keyboard-response","252","366973","0.0-1.0-344.0","0","0","77689","","null","","","null","38","","","","","","","","","","","","","","","",""
"","ISI","","html-keyboard-response","253","368975","0.0-1.0-345.0","0","0","77689","","null","","","null","38","NaN","","","","","","","","","","","","","","",""
"","S2","","html-keyboard-response","254","369228","0.0-1.0-346.0","0","0","77689","","null","","","null","38","","NaN","","","","","","","","","","","","","",""
"","response","","html-keyboard-response","255","370087","0.0-1.0-347.0-0.0","0","0","77689","","858","","","75","38","","","1","38","training","adjacent","EF","5","6","Q.jpg","R.jpg","1","1","1","",""
"","feedback","","html-keyboard-response","256","371091","0.0-1.0-348.0-0.0","0","0","77689","","null","","","null","38","","","","","","","","","","","","","","","",""
"","ITI","","html-keyboard-response","257","372094","0.0-1.0-351.0","0","0","77689","","null","","","null","38","","","","","","","","","","","","","","","NaN",""
"","S1","","html-keyboard-response","258","372347","0.0-1.0-353.0","0","0","77689","","null","","","null","39","","","","","","","","","","","","","","","",""
"","ISI","","html-keyboard-response","259","374349","0.0-1.0-354.0","0","0","77689","","null","","","null","39","NaN","","","","","","","","","","","","","","",""
"","S2","","html-keyboard-response","260","374602","0.0-1.0-355.0","0","0","77689","","null","","","null","39","","NaN","","","","","","","","","","","","","",""
"","response","","html-keyboard-response","261","375734","0.0-1.0-356.0-0.0","0","0","77689","","1130","","","75","39","","","1","39","training","adjacent","EF","5","6","Q.jpg","R.jpg","1","1","1","",""
"","feedback","","html-keyboard-response","262","376736","0.0-1.0-357.0-0.0","0","0","77689","","null","","","null","39","","","","","","","","","","","","","","","",""
"","ITI","","html-keyboard-response","263","377738","0.0-1.0-360.0","0","0","77689","","null","","","null","39","","","","","","","","","","","","","","","NaN",""
"","S1","","html-keyboard-response","264","377993","0.0-1.0-362.0","0","0","77689","","null","","","null","40","","","","","","","","","","","","","","","",""
"","ISI","","html-keyboard-response","265","379995","0.0-1.0-363.0","0","0","77689","","null","","","null","40","NaN","","","","","","","","","","","","","","",""
"","S2","","html-keyboard-response","266","380248","0.0-1.0-364.0","0","0","77689","","null","","","null","40","","NaN","","","","","","","","","","","","","",""
"","response","","html-keyboard-response","267","380785","0.0-1.0-365.0-0.0","0","0","77689","","535","","","75","40","","","1","40","training","adjacent","BC","2","3","M.jpg","P.jpg","1","1","1","",""
"","feedback","","html-keyboard-response","268","381787","0.0-1.0-366.0-0.0","0","0","77689","","null","","","null","40","","","","","","","","","","","","","","","",""
"","ITI","","html-keyboard-response","269","382789","0.0-1.0-369.0","0","0","77689","","null","","","null","40","","","","","","","","","","","","","","","NaN",""
"","S1","","html-keyboard-response","270","383041","0.0-1.0-371.0","0","0","77689","","null","","","null","41","","","","","","","","","","","","","","","",""
"","ISI","","html-keyboard-response","271","385044","0.0-1.0-372.0","0","0","77689","","null","","","null","41","NaN","","","","","","","","","","","","","","",""
"","S2","","html-keyboard-response","272","385300","0.0-1.0-373.0","0","0","77689","","null","","","null","41","","NaN","","","","","","","","","","","","","",""
"","response","","html-keyboard-response","273","385908","0.0-1.0-374.0-0.0","0","0","77689","","606","","","75","41","","","1","41","training","adjacent","AB","1","2","O.jpg","M.jpg","1","1","1","",""
"","feedback","","html-keyboard-response","274","386910","0.0-1.0-375.0-0.0","0","0","77689","","null","","","null","41","","","","","","","","","","","","","","","",""
"","ITI","","html-keyboard-response","275","387913","0.0-1.0-378.0","0","0","77689","","null","","","null","41","","","","","","","","","","","","","","","NaN",""
"","S1","","html-keyboard-response","276","388167","0.0-1.0-380.0","0","0","77689","","null","","","null","42","","","","","","","","","","","","","","","",""
"","ISI","","html-keyboard-response","277","390169","0.0-1.0-381.0","0","0","77689","","null","","","null","42","NaN","","","","","","","","","","","","","","",""
"","S2","","html-keyboard-response","278","390423","0.0-1.0-382.0","0","0","77689","","null","","","null","42","","NaN","","","","","","","","","","","","","",""
"","response","","html-keyboard-response","279","390946","0.0-1.0-383.0-0.0","0","0","77689","","522","","","75","42","","","1","42","training","adjacent","GF","7","6","N.jpg","R.jpg","1","0","0","",""
"","feedback","","html-keyboard-response","280","391949","0.0-1.0-384.0-0.0","0","0","77689","","null","","","null","42","","","","","","","","","","","","","","","",""
"","time_out","","html-keyboard-response","281","393951","0.0-1.0-386.0-0.0","0","0","77689","","null","","","null","42","","","","","","","","","","","","","","","",""
"","ITI","","html-keyboard-response","282","394954","0.0-1.0-387.0","0","0","77689","","null","","","null","42","","","","","","","","","","","","","","","NaN",""
"","S1","","html-keyboard-response","283","395207","0.0-1.0-389.0","0","0","77689","","null","","","null","43","","","","","","","","","","","","","","","",""
"","ISI","","html-keyboard-response","284","397209","0.0-1.0-390.0","0","0","77689","","null","","","null","43","NaN","","","","","","","","","","","","","","",""
"","S2","","html-keyboard-response","285","397462","0.0-1.0-391.0","0","0","77689","","null","","","null","43","","NaN","","","","","","","","","","","","","",""
"","response","","html-keyboard-response","286","398116","0.0-1.0-392.0-0.0","0","0","77689","","652","","","68","43","","","1","43","training","adjacent","CB","3","2","P.jpg","M.jpg","0","0","1","",""
"","feedback","","html-keyboard-response","287","399118","0.0-1.0-393.0-0.0","0","0","77689","","null","","","null","43","","","","","","","","","","","","","","","",""
"","ITI","","html-keyboard-response","288","400121","0.0-1.0-396.0","0","0","77689","","null","","","null","43","","","","","","","","","","","","","","","NaN",""
"","S1","","html-keyboard-response","289","400388","0.0-1.0-398.0","0","0","77689","","null","","","null","44","","","","","","","","","","","","","","","",""
"","ISI","","html-keyboard-response","290","402390","0.0-1.0-399.0","0","0","77689","","null","","","null","44","NaN","","","","","","","","","","","","","","",""
"","S2","","html-keyboard-response","291","402642","0.0-1.0-400.0","0","0","77689","","null","","","null","44","","NaN","","","","","","","","","","","","","",""
"","response","","html-keyboard-response","292","403087","0.0-1.0-401.0-0.0","0","0","77689","","444","","","68","44","","","1","44","training","adjacent","DC","4","3","L.jpg","P.jpg","0","0","1","",""
"","feedback","","html-keyboard-response","293","404091","0.0-1.0-402.0-0.0","0","0","77689","","null","","","null","44","","","","","","","","","","","","","","","",""
"","ITI","","html-keyboard-response","294","405093","0.0-1.0-405.0","0","0","77689","","null","","","null","44","","","","","","","","","","","","","","","NaN",""
"","S1","","html-keyboard-response","295","405347","0.0-1.0-407.0","0","0","77689","","null","","","null","45","","","","","","","","","","","","","","","",""
"","ISI","","html-keyboard-response","296","407350","0.0-1.0-408.0","0","0","77689","","null","","","null","45","NaN","","","","","","","","","","","","","","",""
"","S2","","html-keyboard-response","297","407603","0.0-1.0-409.0","0","0","77689","","null","","","null","45","","NaN","","","","","","","","","","","","","",""
"","response","","html-keyboard-response","298","408508","0.0-1.0-410.0-0.0","0","0","77689","","904","","","68","45","","","1","45","training","adjacent","CD","3","4","P.jpg","L.jpg","0","1","0","",""
"","feedback","","html-keyboard-response","299","409511","0.0-1.0-411.0-0.0","0","0","77689","","null","","","null","45","","","","","","","","","","","","","","","",""
"","time_out","","html-keyboard-response","300","411514","0.0-1.0-413.0-0.0","0","0","77689","","null","","","null","45","","","","","","","","","","","","","","","",""
"","ITI","","html-keyboard-response","301","412517","0.0-1.0-414.0","0","0","77689","","null","","","null","45","","","","","","","","","","","","","","","NaN",""
"","S1","","html-keyboard-response","302","412769","0.0-1.0-416.0","0","0","77689","","null","","","null","46","","","","","","","","","","","","","","","",""
"","ISI","","html-keyboard-response","303","414772","0.0-1.0-417.0","0","0","77689","","null","","","null","46","NaN","","","","","","","","","","","","","","",""
"","S2","","html-keyboard-response","304","415025","0.0-1.0-418.0","0","0","77689","","null","","","null","46","","NaN","","","","","","","","","","","","","",""
"","response","","html-keyboard-response","305","416369","0.0-1.0-419.0-0.0","0","0","77689","","1342","","","75","46","","","1","46","training","adjacent","ED","5","4","Q.jpg","L.jpg","1","0","0","",""
"","feedback","","html-keyboard-response","306","417382","0.0-1.0-420.0-0.0","0","0","77689","","null","","","null","46","","","","","","","","","","","","","","","",""
"","time_out","","html-keyboard-response","307","419385","0.0-1.0-422.0-0.0","0","0","77689","","null","","","null","46","","","","","","","","","","","","","","","",""
"","ITI","","html-keyboard-response","308","420389","0.0-1.0-423.0","0","0","77689","","null","","","null","46","","","","","","","","","","","","","","","NaN",""
"","S1","","html-keyboard-response","309","420642","0.0-1.0-425.0","0","0","77689","","null","","","null","47","","","","","","","","","","","","","","","",""
"","ISI","","html-keyboard-response","310","422644","0.0-1.0-426.0","0","0","77689","","null","","","null","47","NaN","","","","","","","","","","","","","","",""
"","S2","","html-keyboard-response","311","422897","0.0-1.0-427.0","0","0","77689","","null","","","null","47","","NaN","","","","","","","","","","","","","",""
"","response","","html-keyboard-response","312","423588","0.0-1.0-428.0-0.0","0","0","77689","","689","","","68","47","","","1","47","training","adjacent","BA","2","1","M.jpg","O.jpg","0","0","1","",""
"","feedback","","html-keyboard-response","313","424591","0.0-1.0-429.0-0.0","0","0","77689","","null","","","null","47","","","","","","","","","","","","","","","",""
"","ITI","","html-keyboard-response","314","425593","0.0-1.0-432.0","0","0","77689","","null","","","null","47","","","","","","","","","","","","","","","NaN",""
"","block_over","","html-keyboard-response","315","436121","0.0-1.0-433.0-0.0","0","0","77689","","10526","","","32","47","","","","","","","","","","","","","","","",""
"","S1","","html-keyboard-response","316","436374","0.0-1.0-434.0","0","0","77689","","null","","","null","48","","","","","","","","","","","","","","","",""
"","ISI","","html-keyboard-response","317","438375","0.0-1.0-435.0","0","0","77689","","null","","","null","48","NaN","","","","","","","","","","","","","","",""
"","S2","","html-keyboard-response","318","438629","0.0-1.0-436.0","0","0","77689","","null","","","null","48","","NaN","","","","","","","","","","","","","",""
"","response","","html-keyboard-response","319","439980","0.0-1.0-437.0-0.0","0","0","77689","","1349","","","75","48","","","2","48","training","adjacent","ED","5","4","Q.jpg","L.jpg","1","0","0","",""
"","feedback","","html-keyboard-response","320","440983","0.0-1.0-438.0-0.0","0","0","77689","","null","","","null","48","","","","","","","","","","","","","","","",""
"","time_out","","html-keyboard-response","321","442985","0.0-1.0-440.0-0.0","0","0","77689","","null","","","null","48","","","","","","","","","","","","","","","",""
"","ITI","","html-keyboard-response","322","443987","0.0-1.0-441.0","0","0","77689","","null","","","null","48","","","","","","","","","","","","","","","NaN",""
"","S1","","html-keyboard-response","323","444240","0.0-1.0-443.0","0","0","77689","","null","","","null","49","","","","","","","","","","","","","","","",""
"","ISI","","html-keyboard-response","324","446243","0.0-1.0-444.0","0","0","77689","","null","","","null","49","NaN","","","","","","","","","","","","","","",""
"","S2","","html-keyboard-response","325","446496","0.0-1.0-445.0","0","0","77689","","null","","","null","49","","NaN","","","","","","","","","","","","","",""
"","response","","html-keyboard-response","326","447323","0.0-1.0-446.0-0.0","0","0","77689","","825","","","75","49","","","2","49","training","adjacent","DC","4","3","L.jpg","P.jpg","1","0","0","",""
"","feedback","","html-keyboard-response","327","448326","0.0-1.0-447.0-0.0","0","0","77689","","null","","","null","49","","","","","","","","","","","","","","","",""
"","time_out","","html-keyboard-response","328","450329","0.0-1.0-449.0-0.0","0","0","77689","","null","","","null","49","","","","","","","","","","","","","","","",""
"","ITI","","html-keyboard-response","329","451332","0.0-1.0-450.0","0","0","77689","","null","","","null","49","","","","","","","","","","","","","","","NaN",""
"","S1","","html-keyboard-response","330","451585","0.0-1.0-452.0","0","0","77689","","null","","","null","50","","","","","","","","","","","","","","","",""
"","ISI","","html-keyboard-response","331","453588","0.0-1.0-453.0","0","0","77689","","null","","","null","50","NaN","","","","","","","","","","","","","","",""
"","S2","","html-keyboard-response","332","453841","0.0-1.0-454.0","0","0","77689","","null","","","null","50","","NaN","","","","","","","","","","","","","",""
"","response","","html-keyboard-response","333","454081","0.0-1.0-455.0-0.0","0","0","77689","","239","","","68","50","","","2","50","training","adjacent","GF","7","6","N.jpg","R.jpg","0","0","1","",""
"","feedback","","html-keyboard-response","334","455084","0.0-1.0-456.0-0.0","0","0","77689","","null","","","null","50","","","","","","","","","","","","","","","",""
"","ITI","","html-keyboard-response","335","456100","0.0-1.0-459.0","0","0","77689","","null","","","null","50","","","","","","","","","","","","","","","NaN",""
"","S1","","html-keyboard-response","336","456353","0.0-1.0-461.0","0","0","77689","","null","","","null","51","","","","","","","","","","","","","","","",""
"","ISI","","html-keyboard-response","337","458355","0.0-1.0-462.0","0","0","77689","","null","","","null","51","NaN","","","","","","","","","","","","","","",""
"","S2","","html-keyboard-response","338","458608","0.0-1.0-463.0","0","0","77689","","null","","","null","51","","NaN","","","","","","","","","","","","","",""
"","response","","html-keyboard-response","339","459603","0.0-1.0-464.0-0.0","0","0","77689","","994","","","68","51","","","2","51","training","adjacent","EF","5","6","Q.jpg","R.jpg","0","1","0","",""
"","feedback","","html-keyboard-response","340","460607","0.0-1.0-465.0-0.0","0","0","77689","","null","","","null","51","","","","","","","","","","","","","","","",""
"","time_out","","html-keyboard-response","341","462610","0.0-1.0-467.0-0.0","0","0","77689","","null","","","null","51","","","","","","","","","","","","","","","",""
"","ITI","","html-keyboard-response","342","463612","0.0-1.0-468.0","0","0","77689","","null","","","null","51","","","","","","","","","","","","","","","NaN",""
"","S1","","html-keyboard-response","343","463866","0.0-1.0-470.0","0","0","77689","","null","","","null","52","","","","","","","","","","","","","","","",""
"","ISI","","html-keyboard-response","344","465869","0.0-1.0-471.0","0","0","77689","","null","","","null","52","NaN","","","","","","","","","","","","","","",""
"","S2","","html-keyboard-response","345","466121","0.0-1.0-472.0","0","0","77689","","null","","","null","52","","NaN","","","","","","","","","","","","","",""
"","response","","html-keyboard-response","346","467133","0.0-1.0-473.0-0.0","0","0","77689","","1010","","","75","52","","","2","52","training","adjacent","CD","3","4","P.jpg","L.jpg","1","1","1","",""
"","feedback","","html-keyboard-response","347","468137","0.0-1.0-474.0-0.0","0","0","77689","","null","","","null","52","","","","","","","","","","","","","","","",""
"","ITI","","html-keyboard-response","348","469138","0.0-1.0-477.0","0","0","77689","","null","","","null","52","","","","","","","","","","","","","","","NaN",""
"","S1","","html-keyboard-response","349","469391","0.0-1.0-479.0","0","0","77689","","null","","","null","53","","","","","","","","","","","","","","","",""
"","ISI","","html-keyboard-response","350","471394","0.0-1.0-480.0","0","0","77689","","null","","","null","53","NaN","","","","","","","","","","","","","","",""
"","S2","","html-keyboard-response","351","471648","0.0-1.0-481.0","0","0","77689","","null","","","null","53","","NaN","","","","","","","","","","","","","",""
"","response","","html-keyboard-response","352","472334","0.0-1.0-482.0-0.0","0","0","77689","","684","","","75","53","","","2","53","training","adjacent","AB","1","2","O.jpg","M.jpg","1","1","1","",""
"","feedback","","html-keyboard-response","353","473337","0.0-1.0-483.0-0.0","0","0","77689","","null","","","null","53","","","","","","","","","","","","","","","",""
"","ITI","","html-keyboard-response","354","474340","0.0-1.0-486.0","0","0","77689","","null","","","null","53","","","","","","","","","","","","","","","NaN",""
"","S1","","html-keyboard-response","355","474596","0.0-1.0-488.0","0","0","77689","","null","","","null","54","","","","","","","","","","","","","","","",""
"","ISI","","html-keyboard-response","356","476599","0.0-1.0-489.0","0","0","77689","","null","","","null","54","NaN","","","","","","","","","","","","","","",""
"","S2","","html-keyboard-response","357","476853","0.0-1.0-490.0","0","0","77689","","null","","","null","54","","NaN","","","","","","","","","","","","","",""
"","response","","html-keyboard-response","358","478544","0.0-1.0-491.0-0.0","0","0","77689","","1690","","","75","54","","","2","54","training","adjacent","DC","4","3","L.jpg","P.jpg","1","0","0","",""
"","feedback","","html-keyboard-response","359","479551","0.0-1.0-492.0-0.0","0","0","77689","","null","","","null","54","","","","","","","","","","","","","","","",""
"","time_out","","html-keyboard-response","360","481554","0.0-1.0-494.0-0.0","0","0","77689","","null","","","null","54","","","","","","","","","","","","","","","",""
"","ITI","","html-keyboard-response","361","482557","0.0-1.0-495.0","0","0","77689","","null","","","null","54","","","","","","","","","","","","","","","NaN",""
"","S1","","html-keyboard-response","362","482811","0.0-1.0-497.0","0","0","77689","","null","","","null","55","","","","","","","","","","","","","","","",""
"","ISI","","html-keyboard-response","363","484814","0.0-1.0-498.0","0","0","77689","","null","","","null","55","NaN","","","","","","","","","","","","","","",""
"","S2","","html-keyboard-response","364","485066","0.0-1.0-499.0","0","0","77689","","null","","","null","55","","NaN","","","","","","","","","","","","","",""
"","response","","html-keyboard-response","365","485587","0.0-1.0-500.0-0.0","0","0","77689","","519","","","75","55","","","2","55","training","adjacent","GF","7","6","N.jpg","R.jpg","1","0","0","",""
"","feedback","","html-keyboard-response","366","486590","0.0-1.0-501.0-0.0","0","0","77689","","null","","","null","55","","","","","","","","","","","","","","","",""
"","time_out","","html-keyboard-response","367","488593","0.0-1.0-503.0-0.0","0","0","77689","","null","","","null","55","","","","","","","","","","","","","","","",""
"","ITI","","html-keyboard-response","368","489601","0.0-1.0-504.0","0","0","77689","","null","","","null","55","","","","","","","","","","","","","","","NaN",""
"","S1","","html-keyboard-response","369","489854","0.0-1.0-506.0","0","0","77689","","null","","","null","56","","","","","","","","","","","","","","","",""
"","ISI","","html-keyboard-response","370","491858","0.0-1.0-507.0","0","0","77689","","null","","","null","56","NaN","","","","","","","","","","","","","","",""
"","S2","","html-keyboard-response","371","492112","0.0-1.0-508.0","0","0","77689","","null","","","null","56","","NaN","","","","","","","","","","","","","",""
"","response","","html-keyboard-response","372","493308","0.0-1.0-509.0-0.0","0","0","77689","","1194","","","68","56","","","2","56","training","adjacent","DE","4","5","L.jpg","Q.jpg","0","1","0","",""
"","feedback","","html-keyboard-response","373","494311","0.0-1.0-510.0-0.0","0","0","77689","","null","","","null","56","","","","","","","","","","","","","","","",""
"","time_out","","html-keyboard-response","374","496314","0.0-1.0-512.0-0.0","0","0","77689","","null","","","null","56","","","","","","","","","","","","","","","",""
"","ITI","","html-keyboard-response","375","497317","0.0-1.0-513.0","0","0","77689","","null","","","null","56","","","","","","","","","","","","","","","NaN",""
"","S1","","html-keyboard-response","376","497570","0.0-1.0-515.0","0","0","77689","","null","","","null","57","","","","","","","","","","","","","","","",""
"","ISI","","html-keyboard-response","377","499574","0.0-1.0-516.0","0","0","77689","","null","","","null","57","NaN","","","","","","","","","","","","","","",""
"","S2","","html-keyboard-response","378","499828","0.0-1.0-517.0","0","0","77689","","null","","","null","57","","NaN","","","","","","","","","","","","","",""
"","response","","html-keyboard-response","379","500316","0.0-1.0-518.0-0.0","0","0","77689","","487","","","68","57","","","2","57","training","adjacent","EF","5","6","Q.jpg","R.jpg","0","1","0","",""
"","feedback","","html-keyboard-response","380","501318","0.0-1.0-519.0-0.0","0","0","77689","","null","","","null","57","","","","","","","","","","","","","","","",""
"","time_out","","html-keyboard-response","381","503320","0.0-1.0-521.0-0.0","0","0","77689","","null","","","null","57","","","","","","","","","","","","","","","",""
"","ITI","","html-keyboard-response","382","504322","0.0-1.0-522.0","0","0","77689","","null","","","null","57","","","","","","","","","","","","","","","NaN",""
"","S1","","html-keyboard-response","383","504575","0.0-1.0-524.0","0","0","77689","","null","","","null","58","","","","","","","","","","","","","","","",""
"","ISI","","html-keyboard-response","384","506580","0.0-1.0-525.0","0","0","77689","","null","","","null","58","NaN","","","","","","","","","","","","","","",""
"","S2","","html-keyboard-response","385","506847","0.0-1.0-526.0","0","0","77689","","null","","","null","58","","NaN","","","","","","","","","","","","","",""
"","response","","html-keyboard-response","386","508091","0.0-1.0-527.0-0.0","0","0","77689","","1241","","","68","58","","","2","58","training","adjacent","CD","3","4","P.jpg","L.jpg","0","1","0","",""
"","feedback","","html-keyboard-response","387","509093","0.0-1.0-528.0-0.0","0","0","77689","","null","","","null","58","","","","","","","","","","","","","","","",""
"","time_out","","html-keyboard-response","388","511097","0.0-1.0-530.0-0.0","0","0","77689","","null","","","null","58","","","","","","","","","","","","","","","",""
"","ITI","","html-keyboard-response","389","512100","0.0-1.0-531.0","0","0","77689","","null","","","null","58","","","","","","","","","","","","","","","NaN",""
"","S1","","html-keyboard-response","390","512353","0.0-1.0-533.0","0","0","77689","","null","","","null","59","","","","","","","","","","","","","","","",""
"","ISI","","html-keyboard-response","391","514355","0.0-1.0-534.0","0","0","77689","","null","","","null","59","NaN","","","","","","","","","","","","","","",""
"","S2","","html-keyboard-response","392","514608","0.0-1.0-535.0","0","0","77689","","null","","","null","59","","NaN","","","","","","","","","","","","","",""
"","response","","html-keyboard-response","393","515574","0.0-1.0-536.0-0.0","0","0","77689","","964","","","75","59","","","2","59","training","adjacent","FG","6","7","R.jpg","N.jpg","1","1","1","",""
"","feedback","","html-keyboard-response","394","516577","0.0-1.0-537.0-0.0","0","0","77689","","null","","","null","59","","","","","","","","","","","","","","","",""
"","ITI","","html-keyboard-response","395","517579","0.0-1.0-540.0","0","0","77689","","null","","","null","59","","","","","","","","","","","","","","","NaN",""
"","S1","","html-keyboard-response","396","517833","0.0-1.0-542.0","0","0","77689","","null","","","null","60","","","","","","","","","","","","","","","",""
"","ISI","","html-keyboard-response","397","519835","0.0-1.0-543.0","0","0","77689","","null","","","null","60","NaN","","","","","","","","","","","","","","",""
"","S2","","html-keyboard-response","398","520088","0.0-1.0-544.0","0","0","77689","","null","","","null","60","","NaN","","","","","","","","","","","","","",""
"","response","","html-keyboard-response","399","520845","0.0-1.0-545.0-0.0","0","0","77689","","756","","","68","60","","","2","60","training","adjacent","CB","3","2","P.jpg","M.jpg","0","0","1","",""
"","feedback","","html-keyboard-response","400","521848","0.0-1.0-546.0-0.0","0","0","77689","","null","","","null","60","","","","","","","","","","","","","","","",""
"","ITI","","html-keyboard-response","401","522852","0.0-1.0-549.0","0","0","77689","","null","","","null","60","","","","","","","","","","","","","","","NaN",""
"","S1","","html-keyboard-response","402","523105","0.0-1.0-551.0","0","0","77689","","null","","","null","61","","","","","","","","","","","","","","","",""
"","ISI","","html-keyboard-response","403","525108","0.0-1.0-552.0","0","0","77689","","null","","","null","61","NaN","","","","","","","","","","","","","","",""
"","S2","","html-keyboard-response","404","525372","0.0-1.0-553.0","0","0","77689","","null","","","null","61","","NaN","","","","","","","","","","","","","",""
"","response","","html-keyboard-response","405","526397","0.0-1.0-554.0-0.0","0","0","77689","","1024","","","75","61","","","2","61","training","adjacent","EF","5","6","Q.jpg","R.jpg","1","1","1","",""
"","feedback","","html-keyboard-response","406","527400","0.0-1.0-555.0-0.0","0","0","77689","","null","","","null","61","","","","","","","","","","","","","","","",""
"","ITI","","html-keyboard-response","407","528404","0.0-1.0-558.0","0","0","77689","","null","","","null","61","","","","","","","","","","","","","","","NaN",""
"","S1","","html-keyboard-response","408","528657","0.0-1.0-560.0","0","0","77689","","null","","","null","62","","","","","","","","","","","","","","","",""
"","ISI","","html-keyboard-response","409","530660","0.0-1.0-561.0","0","0","77689","","null","","","null","62","NaN","","","","","","","","","","","","","","",""
"","S2","","html-keyboard-response","410","530912","0.0-1.0-562.0","0","0","77689","","null","","","null","62","","NaN","","","","","","","","","","","","","",""
"","response","","html-keyboard-response","411","531643","0.0-1.0-563.0-0.0","0","0","77689","","729","","","68","62","","","2","62","training","adjacent","CB","3","2","P.jpg","M.jpg","0","0","1","",""
"","feedback","","html-keyboard-response","412","532647","0.0-1.0-564.0-0.0","0","0","77689","","null","","","null","62","","","","","","","","","","","","","","","",""
"","ITI","","html-keyboard-response","413","533651","0.0-1.0-567.0","0","0","77689","","null","","","null","62","","","","","","","","","","","","","","","NaN",""
"","S1","","html-keyboard-response","414","533914","0.0-1.0-569.0","0","0","77689","","null","","","null","63","","","","","","","","","","","","","","","",""
"","ISI","","html-keyboard-response","415","535916","0.0-1.0-570.0","0","0","77689","","null","","","null","63","NaN","","","","","","","","","","","","","","",""
"","S2","","html-keyboard-response","416","536169","0.0-1.0-571.0","0","0","77689","","null","","","null","63","","NaN","","","","","","","","","","","","","",""
"","response","","html-keyboard-response","417","537060","0.0-1.0-572.0-0.0","0","0","77689","","889","","","68","63","","","2","63","training","adjacent","AB","1","2","O.jpg","M.jpg","0","1","0","",""
"","feedback","","html-keyboard-response","418","538063","0.0-1.0-573.0-0.0","0","0","77689","","null","","","null","63","","","","","","","","","","","","","","","",""
"","time_out","","html-keyboard-response","419","540067","0.0-1.0-575.0-0.0","0","0","77689","","null","","","null","63","","","","","","","","","","","","","","","",""
"","ITI","","html-keyboard-response","420","541070","0.0-1.0-576.0","0","0","77689","","null","","","null","63","","","","","","","","","","","","","","","NaN",""
"","S1","","html-keyboard-response","421","541323","0.0-1.0-578.0","0","0","77689","","null","","","null","64","","","","","","","","","","","","","","","",""
"","ISI","","html-keyboard-response","422","543326","0.0-1.0-579.0","0","0","77689","","null","","","null","64","NaN","","","","","","","","","","","","","","",""
"","S2","","html-keyboard-response","423","543579","0.0-1.0-580.0","0","0","77689","","null","","","null","64","","NaN","","","","","","","","","","","","","",""
"","response","","html-keyboard-response","424","544369","0.0-1.0-581.0-0.0","0","0","77689","","789","","","75","64","","","2","64","training","adjacent","EF","5","6","Q.jpg","R.jpg","1","1","1","",""
"","feedback","","html-keyboard-response","425","545370","0.0-1.0-582.0-0.0","0","0","77689","","null","","","null","64","","","","","","","","","","","","","","","",""
"","ITI","","html-keyboard-response","426","546374","0.0-1.0-585.0","0","0","77689","","null","","","null","64","","","","","","","","","","","","","","","NaN",""
"","S1","","html-keyboard-response","427","546627","0.0-1.0-587.0","0","0","77689","","null","","","null","65","","","","","","","","","","","","","","","",""
"","ISI","","html-keyboard-response","428","548629","0.0-1.0-588.0","0","0","77689","","null","","","null","65","NaN","","","","","","","","","","","","","","",""
"","S2","","html-keyboard-response","429","548883","0.0-1.0-589.0","0","0","77689","","null","","","null","65","","NaN","","","","","","","","","","","","","",""
"","response","","html-keyboard-response","430","549405","0.0-1.0-590.0-0.0","0","0","77689","","521","","","75","65","","","2","65","training","adjacent","BC","2","3","M.jpg","P.jpg","1","1","1","",""
"","feedback","","html-keyboard-response","431","550408","0.0-1.0-591.0-0.0","0","0","77689","","null","","","null","65","","","","","","","","","","","","","","","",""
"","ITI","","html-keyboard-response","432","551411","0.0-1.0-594.0","0","0","77689","","null","","","null","65","","","","","","","","","","","","","","","NaN",""
"","S1","","html-keyboard-response","433","551662","0.0-1.0-596.0","0","0","77689","","null","","","null","66","","","","","","","","","","","","","","","",""
"","ISI","","html-keyboard-response","434","553665","0.0-1.0-597.0","0","0","77689","","null","","","null","66","NaN","","","","","","","","","","","","","","",""
"","S2","","html-keyboard-response","435","553919","0.0-1.0-598.0","0","0","77689","","null","","","null","66","","NaN","","","","","","","","","","","","","",""
"","response","","html-keyboard-response","436","554253","0.0-1.0-599.0-0.0","0","0","77689","","333","","","68","66","","","2","66","training","adjacent","FE","6","5","R.jpg","Q.jpg","0","0","1","",""
"","feedback","","html-keyboard-response","437","555257","0.0-1.0-600.0-0.0","0","0","77689","","null","","","null","66","","","","","","","","","","","","","","","",""
"","ITI","","html-keyboard-response","438","556260","0.0-1.0-603.0","0","0","77689","","null","","","null","66","","","","","","","","","","","","","","","NaN",""
"","S1","","html-keyboard-response","439","556513","0.0-1.0-605.0","0","0","77689","","null","","","null","67","","","","","","","","","","","","","","","",""
"","ISI","","html-keyboard-response","440","558515","0.0-1.0-606.0","0","0","77689","","null","","","null","67","NaN","","","","","","","","","","","","","","",""
"","S2","","html-keyboard-response","441","558768","0.0-1.0-607.0","0","0","77689","","null","","","null","67","","NaN","","","","","","","","","","","","","",""
"","response","","html-keyboard-response","442","559518","0.0-1.0-608.0-0.0","0","0","77689","","749","","","75","67","","","2","67","training","adjacent","ED","5","4","Q.jpg","L.jpg","1","0","0","",""
"","feedback","","html-keyboard-response","443","560521","0.0-1.0-609.0-0.0","0","0","77689","","null","","","null","67","","","","","","","","","","","","","","","",""
"","time_out","","html-keyboard-response","444","562524","0.0-1.0-611.0-0.0","0","0","77689","","null","","","null","67","","","","","","","","","","","","","","","",""
"","ITI","","html-keyboard-response","445","563527","0.0-1.0-612.0","0","0","77689","","null","","","null","67","","","","","","","","","","","","","","","NaN",""
"","S1","","html-keyboard-response","446","563779","0.0-1.0-614.0","0","0","77689","","null","","","null","68","","","","","","","","","","","","","","","",""
"","ISI","","html-keyboard-response","447","565782","0.0-1.0-615.0","0","0","77689","","null","","","null","68","NaN","","","","","","","","","","","","","","",""
"","S2","","html-keyboard-response","448","566046","0.0-1.0-616.0","0","0","77689","","null","","","null","68","","NaN","","","","","","","","","","","","","",""
"","response","","html-keyboard-response","449","566708","0.0-1.0-617.0-0.0","0","0","77689","","661","","","68","68","","","2","68","training","adjacent","CB","3","2","P.jpg","M.jpg","0","0","1","",""
"","feedback","","html-keyboard-response","450","567711","0.0-1.0-618.0-0.0","0","0","77689","","null","","","null","68","","","","","","","","","","","","","","","",""
"","ITI","","html-keyboard-response","451","568718","0.0-1.0-621.0","0","0","77689","","null","","","null","68","","","","","","","","","","","","","","","NaN",""
"","S1","","html-keyboard-response","452","568971","0.0-1.0-623.0","0","0","77689","","null","","","null","69","","","","","","","","","","","","","","","",""
"","ISI","","html-keyboard-response","453","570974","0.0-1.0-624.0","0","0","77689","","null","","","null","69","NaN","","","","","","","","","","","","","","",""
"","S2","","html-keyboard-response","454","571226","0.0-1.0-625.0","0","0","77689","","null","","","null","69","","NaN","","","","","","","","","","","","","",""
"","response","","html-keyboard-response","455","572745","0.0-1.0-626.0-0.0","0","0","77689","","1517","","","75","69","","","2","69","training","adjacent","DC","4","3","L.jpg","P.jpg","1","0","0","",""
"","feedback","","html-keyboard-response","456","573748","0.0-1.0-627.0-0.0","0","0","77689","","null","","","null","69","","","","","","","","","","","","","","","",""
"","time_out","","html-keyboard-response","457","575751","0.0-1.0-629.0-0.0","0","0","77689","","null","","","null","69","","","","","","","","","","","","","","","",""
"","ITI","","html-keyboard-response","458","576753","0.0-1.0-630.0","0","0","77689","","null","","","null","69","","","","","","","","","","","","","","","NaN",""
"","S1","","html-keyboard-response","459","577006","0.0-1.0-632.0","0","0","77689","","null","","","null","70","","","","","","","","","","","","","","","",""
"","ISI","","html-keyboard-response","460","579009","0.0-1.0-633.0","0","0","77689","","null","","","null","70","NaN","","","","","","","","","","","","","","",""
"","S2","","html-keyboard-response","461","579262","0.0-1.0-634.0","0","0","77689","","null","","","null","70","","NaN","","","","","","","","","","","","","",""
"","response","","html-keyboard-response","462","581014","0.0-1.0-635.0-0.0","0","0","77689","","null","","","null","70","","","2","70","training","adjacent","BC","2","3","M.jpg","P.jpg","NaN","1","0","",""
"","too_slow_prompt","","html-keyboard-response","463","582016","0.0-1.0-637.0-0.0","1","0","77689","","null","","","null","","","","","","","","","","","","","","","","",""
"","time_out","","html-keyboard-response","464","584019","0.0-1.0-638.0-0.0","0","0","77689","","null","","","null","70","","","","","","","","","","","","","","","",""
"","ITI","","html-keyboard-response","465","585021","0.0-1.0-639.0","0","0","77689","","null","","","null","70","","","","","","","","","","","","","","","NaN",""
"","S1","","html-keyboard-response","466","585277","0.0-1.0-641.0","0","0","77689","","null","","","null","71","","","","","","","","","","","","","","","",""
"","ISI","","html-keyboard-response","467","587279","0.0-1.0-642.0","0","0","77689","","null","","","null","71","NaN","","","","","","","","","","","","","","",""
"","S2","","html-keyboard-response","468","587532","0.0-1.0-643.0","0","0","77689","","null","","","null","71","","NaN","","","","","","","","","","","","","",""
"","response","","html-keyboard-response","469","588010","0.0-1.0-644.0-0.0","0","0","77689","","477","","","68","71","","","2","71","training","adjacent","BA","2","1","M.jpg","O.jpg","0","0","1","",""
"","feedback","","html-keyboard-response","470","589014","0.0-1.0-645.0-0.0","0","0","77689","","null","","","null","71","","","","","","","","","","","","","","","",""
"","ITI","","html-keyboard-response","471","590017","0.0-1.0-648.0","0","0","77689","","null","","","null","71","","","","","","","","","","","","","","","NaN",""
"","S1","","html-keyboard-response","472","590271","0.0-1.0-650.0","0","0","77689","","null","","","null","72","","","","","","","","","","","","","","","",""
"","ISI","","html-keyboard-response","473","592273","0.0-1.0-651.0","0","0","77689","","null","","","null","72","NaN","","","","","","","","","","","","","","",""
"","S2","","html-keyboard-response","474","592526","0.0-1.0-652.0","0","0","77689","","null","","","null","72","","NaN","","","","","","","","","","","","","",""
"","response","","html-keyboard-response","475","592779","0.0-1.0-653.0-0.0","0","0","77689","","252","","","68","72","","","2","72","training","adjacent","BA","2","1","M.jpg","O.jpg","0","0","1","",""
"","feedback","","html-keyboard-response","476","593791","0.0-1.0-654.0-0.0","0","0","77689","","null","","","null","72","","","","","","","","","","","","","","","",""
"","ITI","","html-keyboard-response","477","594794","0.0-1.0-657.0","0","0","77689","","null","","","null","72","","","","","","","","","","","","","","","NaN",""
"","S1","","html-keyboard-response","478","595048","0.0-1.0-659.0","0","0","77689","","null","","","null","73","","","","","","","","","","","","","","","",""
"","ISI","","html-keyboard-response","479","597050","0.0-1.0-660.0","0","0","77689","","null","","","null","73","NaN","","","","","","","","","","","","","","",""
"","S2","","html-keyboard-response","480","597312","0.0-1.0-661.0","0","0","77689","","null","","","null","73","","NaN","","","","","","","","","","","","","",""
"","response","","html-keyboard-response","481","597667","0.0-1.0-662.0-0.0","0","0","77689","","354","","","75","73","","","2","73","training","adjacent","AB","1","2","O.jpg","M.jpg","1","1","1","",""
"","feedback","","html-keyboard-response","482","598670","0.0-1.0-663.0-0.0","0","0","77689","","null","","","null","73","","","","","","","","","","","","","","","",""
"","ITI","","html-keyboard-response","483","599673","0.0-1.0-666.0","0","0","77689","","null","","","null","73","","","","","","","","","","","","","","","NaN",""
"","S1","","html-keyboard-response","484","599926","0.0-1.0-668.0","0","0","77689","","null","","","null","74","","","","","","","","","","","","","","","",""
"","ISI","","html-keyboard-response","485","601928","0.0-1.0-669.0","0","0","77689","","null","","","null","74","NaN","","","","","","","","","","","","","","",""
"","S2","","html-keyboard-response","486","602182","0.0-1.0-670.0","0","0","77689","","null","","","null","74","","NaN","","","","","","","","","","","","","",""
"","response","","html-keyboard-response","487","602997","0.0-1.0-671.0-0.0","0","0","77689","","813","","","75","74","","","2","74","training","adjacent","DE","4","5","L.jpg","Q.jpg","1","1","1","",""
"","feedback","","html-keyboard-response","488","604000","0.0-1.0-672.0-0.0","0","0","77689","","null","","","null","74","","","","","","","","","","","","","","","",""
"","ITI","","html-keyboard-response","489","605003","0.0-1.0-675.0","0","0","77689","","null","","","null","74","","","","","","","","","","","","","","","NaN",""
"","S1","","html-keyboard-response","490","605256","0.0-1.0-677.0","0","0","77689","","null","","","null","75","","","","","","","","","","","","","","","",""
"","ISI","","html-keyboard-response","491","607260","0.0-1.0-678.0","0","0","77689","","null","","","null","75","NaN","","","","","","","","","","","","","","",""
"","S2","","html-keyboard-response","492","607515","0.0-1.0-679.0","0","0","77689","","null","","","null","75","","NaN","","","","","","","","","","","","","",""
"","response","","html-keyboard-response","493","607796","0.0-1.0-680.0-0.0","0","0","77689","","280","","","68","75","","","2","75","training","adjacent","GF","7","6","N.jpg","R.jpg","0","0","1","",""
"","feedback","","html-keyboard-response","494","608800","0.0-1.0-681.0-0.0","0","0","77689","","null","","","null","75","","","","","","","","","","","","","","","",""
"","ITI","","html-keyboard-response","495","609811","0.0-1.0-684.0","0","0","77689","","null","","","null","75","","","","","","","","","","","","","","","NaN",""
"","S1","","html-keyboard-response","496","610065","0.0-1.0-686.0","0","0","77689","","null","","","null","76","","","","","","","","","","","","","","","",""
"","ISI","","html-keyboard-response","497","612067","0.0-1.0-687.0","0","0","77689","","null","","","null","76","NaN","","","","","","","","","","","","","","",""
"","S2","","html-keyboard-response","498","612320","0.0-1.0-688.0","0","0","77689","","null","","","null","76","","NaN","","","","","","","","","","","","","",""
"","response","","html-keyboard-response","499","613048","0.0-1.0-689.0-0.0","0","0","77689","","726","","","75","76","","","2","76","training","adjacent","BC","2","3","M.jpg","P.jpg","1","1","1","",""
"","feedback","","html-keyboard-response","500","614051","0.0-1.0-690.0-0.0","0","0","77689","","null","","","null","76","","","","","","","","","","","","","","","",""
"","ITI","","html-keyboard-response","501","615060","0.0-1.0-693.0","0","0","77689","","null","","","null","76","","","","","","","","","","","","","","","NaN",""
"","S1","","html-keyboard-response","502","615327","0.0-1.0-695.0","0","0","77689","","null","","","null","77","","","","","","","","","","","","","","","",""
"","ISI","","html-keyboard-response","503","617330","0.0-1.0-696.0","0","0","77689","","null","","","null","77","NaN","","","","","","","","","","","","","","",""
"","S2","","html-keyboard-response","504","617583","0.0-1.0-697.0","0","0","77689","","null","","","null","77","","NaN","","","","","","","","","","","","","",""
"","response","","html-keyboard-response","505","619039","0.0-1.0-698.0-0.0","0","0","77689","","1454","","","68","77","","","2","77","training","adjacent","ED","5","4","Q.jpg","L.jpg","0","0","1","",""
"","feedback","","html-keyboard-response","506","620042","0.0-1.0-699.0-0.0","0","0","77689","","null","","","null","77","","","","","","","","","","","","","","","",""
"","ITI","","html-keyboard-response","507","621044","0.0-1.0-702.0","0","0","77689","","null","","","null","77","","","","","","","","","","","","","","","NaN",""
"","S1","","html-keyboard-response","508","621297","0.0-1.0-704.0","0","0","77689","","null","","","null","78","","","","","","","","","","","","","","","",""
"","ISI","","html-keyboard-response","509","623300","0.0-1.0-705.0","0","0","77689","","null","","","null","78","NaN","","","","","","","","","","","","","","",""
"","S2","","html-keyboard-response","510","623552","0.0-1.0-706.0","0","0","77689","","null","","","null","78","","NaN","","","","","","","","","","","","","",""
"","response","","html-keyboard-response","511","624009","0.0-1.0-707.0-0.0","0","0","77689","","455","","","75","78","","","2","78","training","adjacent","FG","6","7","R.jpg","N.jpg","1","1","1","",""
"","feedback","","html-keyboard-response","512","625013","0.0-1.0-708.0-0.0","0","0","77689","","null","","","null","78","","","","","","","","","","","","","","","",""
"","ITI","","html-keyboard-response","513","626015","0.0-1.0-711.0","0","0","77689","","null","","","null","78","","","","","","","","","","","","","","","NaN",""
"","S1","","html-keyboard-response","514","626268","0.0-1.0-713.0","0","0","77689","","null","","","null","79","","","","","","","","","","","","","","","",""
"","ISI","","html-keyboard-response","515","628271","0.0-1.0-714.0","0","0","77689","","null","","","null","79","NaN","","","","","","","","","","","","","","",""
"","S2","","html-keyboard-response","516","628529","0.0-1.0-715.0","0","0","77689","","null","","","null","79","","NaN","","","","","","","","","","","","","",""
"","response","","html-keyboard-response","517","629871","0.0-1.0-716.0-0.0","0","0","77689","","1340","","","68","79","","","2","79","training","adjacent","CD","3","4","P.jpg","L.jpg","0","1","0","",""
"","feedback","","html-keyboard-response","518","630874","0.0-1.0-717.0-0.0","0","0","77689","","null","","","null","79","","","","","","","","","","","","","","","",""
"","time_out","","html-keyboard-response","519","632876","0.0-1.0-719.0-0.0","0","0","77689","","null","","","null","79","","","","","","","","","","","","","","","",""
"","ITI","","html-keyboard-response","520","633888","0.0-1.0-720.0","0","0","77689","","null","","","null","79","","","","","","","","","","","","","","","NaN",""
"","S1","","html-keyboard-response","521","634141","0.0-1.0-722.0","0","0","77689","","null","","","null","80","","","","","","","","","","","","","","","",""
"","ISI","","html-keyboard-response","522","636143","0.0-1.0-723.0","0","0","77689","","null","","","null","80","NaN","","","","","","","","","","","","","","",""
"","S2","","html-keyboard-response","523","636396","0.0-1.0-724.0","0","0","77689","","null","","","null","80","","NaN","","","","","","","","","","","","","",""
"","response","","html-keyboard-response","524","637588","0.0-1.0-725.0-0.0","0","0","77689","","1190","","","68","80","","","2","80","training","adjacent","CD","3","4","P.jpg","L.jpg","0","1","0","",""
"","feedback","","html-keyboard-response","525","638593","0.0-1.0-726.0-0.0","0","0","77689","","null","","","null","80","","","","","","","","","","","","","","","",""
"","time_out","","html-keyboard-response","526","640596","0.0-1.0-728.0-0.0","0","0","77689","","null","","","null","80","","","","","","","","","","","","","","","",""
"","ITI","","html-keyboard-response","527","641599","0.0-1.0-729.0","0","0","77689","","null","","","null","80","","","","","","","","","","","","","","","NaN",""
"","S1","","html-keyboard-response","528","641852","0.0-1.0-731.0","0","0","77689","","null","","","null","81","","","","","","","","","","","","","","","",""
"","ISI","","html-keyboard-response","529","643855","0.0-1.0-732.0","0","0","77689","","null","","","null","81","NaN","","","","","","","","","","","","","","",""
"","S2","","html-keyboard-response","530","644108","0.0-1.0-733.0","0","0","77689","","null","","","null","81","","NaN","","","","","","","","","","","","","",""
"","response","","html-keyboard-response","531","645101","0.0-1.0-734.0-0.0","0","0","77689","","990","","","75","81","","","2","81","training","adjacent","DE","4","5","L.jpg","Q.jpg","1","1","1","",""
"","feedback","","html-keyboard-response","532","646105","0.0-1.0-735.0-0.0","0","0","77689","","null","","","null","81","","","","","","","","","","","","","","","",""
"","ITI","","html-keyboard-response","533","647108","0.0-1.0-738.0","0","0","77689","","null","","","null","81","","","","","","","","","","","","","","","NaN",""
"","S1","","html-keyboard-response","534","647361","0.0-1.0-740.0","0","0","77689","","null","","","null","82","","","","","","","","","","","","","","","",""
"","ISI","","html-keyboard-response","535","649364","0.0-1.0-741.0","0","0","77689","","null","","","null","82","NaN","","","","","","","","","","","","","","",""
"","S2","","html-keyboard-response","536","649616","0.0-1.0-742.0","0","0","77689","","null","","","null","82","","NaN","","","","","","","","","","","","","",""
"","response","","html-keyboard-response","537","650580","0.0-1.0-743.0-0.0","0","0","77689","","962","","","68","82","","","2","82","training","adjacent","FE","6","5","R.jpg","Q.jpg","0","0","1","",""
"","feedback","","html-keyboard-response","538","651597","0.0-1.0-744.0-0.0","0","0","77689","","null","","","null","82","","","","","","","","","","","","","","","",""
"","ITI","","html-keyboard-response","539","652601","0.0-1.0-747.0","0","0","77689","","null","","","null","82","","","","","","","","","","","","","","","NaN",""
"","S1","","html-keyboard-response","540","652854","0.0-1.0-749.0","0","0","77689","","null","","","null","83","","","","","","","","","","","","","","","",""
"","ISI","","html-keyboard-response","541","654857","0.0-1.0-750.0","0","0","77689","","null","","","null","83","NaN","","","","","","","","","","","","","","",""
"","S2","","html-keyboard-response","542","655110","0.0-1.0-751.0","0","0","77689","","null","","","null","83","","NaN","","","","","","","","","","","","","",""
"","response","","html-keyboard-response","543","656113","0.0-1.0-752.0-0.0","0","0","77689","","1001","","","68","83","","","2","83","training","adjacent","GF","7","6","N.jpg","R.jpg","0","0","1","",""
"","feedback","","html-keyboard-response","544","657116","0.0-1.0-753.0-0.0","0","0","77689","","null","","","null","83","","","","","","","","","","","","","","","",""
"","ITI","","html-keyboard-response","545","658118","0.0-1.0-756.0","0","0","77689","","null","","","null","83","","","","","","","","","","","","","","","NaN",""
"","S1","","html-keyboard-response","546","658371","0.0-1.0-758.0","0","0","77689","","null","","","null","84","","","","","","","","","","","","","","","",""
"","ISI","","html-keyboard-response","547","660374","0.0-1.0-759.0","0","0","77689","","null","","","null","84","NaN","","","","","","","","","","","","","","",""
"","S2","","html-keyboard-response","548","660627","0.0-1.0-760.0","0","0","77689","","null","","","null","84","","NaN","","","","","","","","","","","","","",""
"","response","","html-keyboard-response","549","660982","0.0-1.0-761.0-0.0","0","0","77689","","353","","","75","84","","","2","84","training","adjacent","AB","1","2","O.jpg","M.jpg","1","1","1","",""
"","feedback","","html-keyboard-response","550","661984","0.0-1.0-762.0-0.0","0","0","77689","","null","","","null","84","","","","","","","","","","","","","","","",""
"","ITI","","html-keyboard-response","551","662987","0.0-1.0-765.0","0","0","77689","","null","","","null","84","","","","","","","","","","","","","","","NaN",""
"","S1","","html-keyboard-response","552","663241","0.0-1.0-767.0","0","0","77689","","null","","","null","85","","","","","","","","","","","","","","","",""
"","ISI","","html-keyboard-response","553","665245","0.0-1.0-768.0","0","0","77689","","null","","","null","85","NaN","","","","","","","","","","","","","","",""
"","S2","","html-keyboard-response","554","665498","0.0-1.0-769.0","0","0","77689","","null","","","null","85","","NaN","","","","","","","","","","","","","",""
"","response","","html-keyboard-response","555","666914","0.0-1.0-770.0-0.0","0","0","77689","","1414","","","75","85","","","2","85","training","adjacent","DE","4","5","L.jpg","Q.jpg","1","1","1","",""
"","feedback","","html-keyboard-response","556","667917","0.0-1.0-771.0-0.0","0","0","77689","","null","","","null","85","","","","","","","","","","","","","","","",""
"","ITI","","html-keyboard-response","557","668920","0.0-1.0-774.0","0","0","77689","","null","","","null","85","","","","","","","","","","","","","","","NaN",""
"","S1","","html-keyboard-response","558","669174","0.0-1.0-776.0","0","0","77689","","null","","","null","86","","","","","","","","","","","","","","","",""
"","ISI","","html-keyboard-response","559","671175","0.0-1.0-777.0","0","0","77689","","null","","","null","86","NaN","","","","","","","","","","","","","","",""
"","S2","","html-keyboard-response","560","671428","0.0-1.0-778.0","0","0","77689","","null","","","null","86","","NaN","","","","","","","","","","","","","",""
"","response","","html-keyboard-response","561","672408","0.0-1.0-779.0-0.0","0","0","77689","","979","","","68","86","","","2","86","training","adjacent","ED","5","4","Q.jpg","L.jpg","0","0","1","",""
"","feedback","","html-keyboard-response","562","673411","0.0-1.0-780.0-0.0","0","0","77689","","null","","","null","86","","","","","","","","","","","","","","","",""
"","ITI","","html-keyboard-response","563","674414","0.0-1.0-783.0","0","0","77689","","null","","","null","86","","","","","","","","","","","","","","","NaN",""
"","S1","","html-keyboard-response","564","674667","0.0-1.0-785.0","0","0","77689","","null","","","null","87","","","","","","","","","","","","","","","",""
"","ISI","","html-keyboard-response","565","676669","0.0-1.0-786.0","0","0","77689","","null","","","null","87","NaN","","","","","","","","","","","","","","",""
"","S2","","html-keyboard-response","566","676932","0.0-1.0-787.0","0","0","77689","","null","","","null","87","","NaN","","","","","","","","","","","","","",""
"","response","","html-keyboard-response","567","677767","0.0-1.0-788.0-0.0","0","0","77689","","834","","","68","87","","","2","87","training","adjacent","BC","2","3","M.jpg","P.jpg","0","1","0","",""
"","feedback","","html-keyboard-response","568","678771","0.0-1.0-789.0-0.0","0","0","77689","","null","","","null","87","","","","","","","","","","","","","","","",""
"","time_out","","html-keyboard-response","569","680774","0.0-1.0-791.0-0.0","0","0","77689","","null","","","null","87","","","","","","","","","","","","","","","",""
"","ITI","","html-keyboard-response","570","681777","0.0-1.0-792.0","0","0","77689","","null","","","null","87","","","","","","","","","","","","","","","NaN",""
"","S1","","html-keyboard-response","571","682029","0.0-1.0-794.0","0","0","77689","","null","","","null","88","","","","","","","","","","","","","","","",""
"","ISI","","html-keyboard-response","572","684033","0.0-1.0-795.0","0","0","77689","","null","","","null","88","NaN","","","","","","","","","","","","","","",""
"","S2","","html-keyboard-response","573","684286","0.0-1.0-796.0","0","0","77689","","null","","","null","88","","NaN","","","","","","","","","","","","","",""
"","response","","html-keyboard-response","574","684732","0.0-1.0-797.0-0.0","0","0","77689","","444","","","68","88","","","2","88","training","adjacent","CB","3","2","P.jpg","M.jpg","0","0","1","",""
"","feedback","","html-keyboard-response","575","685735","0.0-1.0-798.0-0.0","0","0","77689","","null","","","null","88","","","","","","","","","","","","","","","",""
"","ITI","","html-keyboard-response","576","686739","0.0-1.0-801.0","0","0","77689","","null","","","null","88","","","","","","","","","","","","","","","NaN",""
"","S1","","html-keyboard-response","577","686991","0.0-1.0-803.0","0","0","77689","","null","","","null","89","","","","","","","","","","","","","","","",""
"","ISI","","html-keyboard-response","578","688993","0.0-1.0-804.0","0","0","77689","","null","","","null","89","NaN","","","","","","","","","","","","","","",""
