"success","ttype","start_time","trial_type","trial_index","time_elapsed","internal_node_id","warning","missed_checkup","PID","view_history","rt","responses","repeat_instructions","key_press","index","keypress_isi","keypress_S2","block","trial_num","phase","group_type","pair_type","S1_stim","S2_stim","S1_img","S2_img","S1_chosen","S1_higher","accuracy","keypress_iti","total_bonus_tally"
"true","full_screen","d03082023hr1445","fullscreen","0","9713","0.0-0.0","0","0","12507","","","","","","","","","","","","","","","","","","","","","",""
"","instructions","","instructions","1","58744","0.0-1.0-0.0-0.0","0","0","12507","[{""page_index"":0,""viewing_time"":5738},{""page_index"":1,""viewing_time"":25304},{""page_index"":2,""viewing_time"":10016},{""page_index"":3,""viewing_time"":7967}]","49025","","","","","","","","","","","","","","","","","","","",""
"","comprehension_check","","survey-multi-choice","2","80227","0.0-1.0-0.0-1.0","0","0","12507","","21471","{""Q0"":""True"",""Q1"":""K"",""Q2"":""Once the second image appears and while the screen 'MAKE A CHOICE' is shown"",""Q3"":""Green mark"",""Q4"":""either D or K""}","0","","","","","","","","","","","","","","","","","",""
"","start_exp","","html-keyboard-response","3","89417","0.0-1.0-1.0","0","0","12507","","9181","","","32","","","","","","","","","","","","","","","","",""
"","S1","","html-keyboard-response","4","89674","0.0-1.0-2.0","0","0","12507","","null","","","null","0","","","","","","","","","","","","","","","",""
"","ISI","","html-keyboard-response","5","89828","0.0-1.0-3.0","0","0","12507","","null","","","null","0","NaN","","","","","","","","","","","","","","",""
"","S2","","html-keyboard-response","6","90085","0.0-1.0-4.0","0","0","12507","","null","","","null","0","","NaN","","","","","","","","","","","","","",""
"","response","","html-keyboard-response","7","91841","0.0-1.0-5.0-0.0","0","0","12507","","null","","","null","0","","","1","0","training","adjacent","FE","6","5","N.jpg","M.jpg","NaN","0","0","",""
"","too_slow_prompt","","html-keyboard-response","8","92846","0.0-1.0-7.0-0.0","1","0","12507","","null","","","null","","","","","","","","","","","","","","","","",""
"","time_out","","html-keyboard-response","9","94851","0.0-1.0-8.0-0.0","0","0","12507","","null","","","null","0","","","","","","","","","","","","","","","",""
"","ITI","","html-keyboard-response","10","95856","0.0-1.0-9.0","0","0","12507","","null","","","null","0","","","","","","","","","","","","","","","NaN",""
"","S1","","html-keyboard-response","11","96112","0.0-1.0-11.0","0","0","12507","","null","","","null","1","","","","","","","","","","","","","","","",""
"","ISI","","html-keyboard-response","12","96267","0.0-1.0-12.0","0","0","12507","","null","","","null","1","NaN","","","","","","","","","","","","","","",""
"","S2","","html-keyboard-response","13","96522","0.0-1.0-13.0","0","0","12507","","null","","","null","1","","NaN","","","","","","","","","","","","","",""
"","response","","html-keyboard-response","14","97448","0.0-1.0-14.0-0.0","0","0","12507","","922","","","75","1","","","1","1","training","adjacent","BC","2","3","R.jpg","P.jpg","1","1","1","",""
"","feedback","","html-keyboard-response","15","98454","0.0-1.0-15.0-0.0","0","0","12507","","null","","","null","1","","","","","","","","","","","","","","","",""
"","ITI","","html-keyboard-response","16","99459","0.0-1.0-18.0","0","0","12507","","null","","","null","1","","","","","","","","","","","","","","","NaN",""
"","S1","","html-keyboard-response","17","99715","0.0-1.0-20.0","0","0","12507","","null","","","null","2","","","","","","","","","","","","","","","",""
"","ISI","","html-keyboard-response","18","99869","0.0-1.0-21.0","0","0","12507","","null","","","null","2","NaN","","","","","","","","","","","","","","",""
"","S2","","html-keyboard-response","19","100126","0.0-1.0-22.0","0","0","12507","","null","","","null","2","","NaN","","","","","","","","","","","","","",""
"","response","","html-keyboard-response","20","100416","0.0-1.0-23.0-0.0","0","0","12507","","285","","","68","2","","","1","2","training","adjacent","EF","5","6","M.jpg","N.jpg","0","1","0","",""
"","feedback","","html-keyboard-response","21","101422","0.0-1.0-24.0-0.0","0","0","12507","","null","","","null","2","","","","","","","","","","","","","","","",""
"","time_out","","html-keyboard-response","22","103428","0.0-1.0-26.0-0.0","0","0","12507","","null","","","null","2","","","","","","","","","","","","","","","",""
"","ITI","","html-keyboard-response","23","104434","0.0-1.0-27.0","0","0","12507","","null","","","null","2","","","","","","","","","","","","","","","NaN",""
"","S1","","html-keyboard-response","24","104689","0.0-1.0-29.0","0","0","12507","","null","","","null","3","","","","","","","","","","","","","","","",""
"","ISI","","html-keyboard-response","25","104844","0.0-1.0-30.0","0","0","12507","","null","","","null","3","NaN","","","","","","","","","","","","","","",""
"","S2","","html-keyboard-response","26","105099","0.0-1.0-31.0","0","0","12507","","null","","","null","3","","NaN","","","","","","","","","","","","","",""
"","response","","html-keyboard-response","27","105671","0.0-1.0-32.0-0.0","0","0","12507","","567","","","75","3","","","1","3","training","adjacent","GF","7","6","O.jpg","N.jpg","1","0","0","",""
"","feedback","","html-keyboard-response","28","106677","0.0-1.0-33.0-0.0","0","0","12507","","null","","","null","3","","","","","","","","","","","","","","","",""
"","time_out","","html-keyboard-response","29","108682","0.0-1.0-35.0-0.0","0","0","12507","","null","","","null","3","","","","","","","","","","","","","","","",""
"","ITI","","html-keyboard-response","30","109688","0.0-1.0-36.0","0","0","12507","","null","","","null","3","","","","","","","","","","","","","","","NaN",""
"","S1","","html-keyboard-response","31","109943","0.0-1.0-38.0","0","0","12507","","null","","","null","4","","","","","","","","","","","","","","","",""
"","ISI","","html-keyboard-response","32","110099","0.0-1.0-39.0","0","0","12507","","null","","","null","4","NaN","","","","","","","","","","","","","","",""
"","S2","","html-keyboard-response","33","110355","0.0-1.0-40.0","0","0","12507","","null","","","null","4","","NaN","","","","","","","","","","","","","",""
"","response","","html-keyboard-response","34","110688","0.0-1.0-41.0-0.0","0","0","12507","","329","","","68","4","","","1","4","training","adjacent","EF","5","6","M.jpg","N.jpg","0","1","0","",""
"","feedback","","html-keyboard-response","35","111694","0.0-1.0-42.0-0.0","0","0","12507","","null","","","null","4","","","","","","","","","","","","","","","",""
"","time_out","","html-keyboard-response","36","113700","0.0-1.0-44.0-0.0","0","0","12507","","null","","","null","4","","","","","","","","","","","","","","","",""
"","ITI","","html-keyboard-response","37","114705","0.0-1.0-45.0","0","0","12507","","null","","","null","4","","","","","","","","","","","","","","","NaN",""
"","S1","","html-keyboard-response","38","114961","0.0-1.0-47.0","0","0","12507","","null","","","null","5","","","","","","","","","","","","","","","",""
"","ISI","","html-keyboard-response","39","115116","0.0-1.0-48.0","0","0","12507","","null","","","null","5","NaN","","","","","","","","","","","","","","",""
"","S2","","html-keyboard-response","40","115373","0.0-1.0-49.0","0","0","12507","","null","","","null","5","","NaN","","","","","","","","","","","","","",""
"","response","","html-keyboard-response","41","116146","0.0-1.0-50.0-0.0","0","0","12507","","768","","","75","5","","","1","5","training","adjacent","FG","6","7","N.jpg","O.jpg","1","1","1","",""
"","feedback","","html-keyboard-response","42","117151","0.0-1.0-51.0-0.0","0","0","12507","","null","","","null","5","","","","","","","","","","","","","","","",""
"","ITI","","html-keyboard-response","43","118157","0.0-1.0-54.0","0","0","12507","","null","","","null","5","","","","","","","","","","","","","","","NaN",""
"","S1","","html-keyboard-response","44","118412","0.0-1.0-56.0","0","0","12507","","null","","","null","6","","","","","","","","","","","","","","","",""
"","ISI","","html-keyboard-response","45","118566","0.0-1.0-57.0","0","0","12507","","null","","","null","6","NaN","","","","","","","","","","","","","","",""
"","S2","","html-keyboard-response","46","118823","0.0-1.0-58.0","0","0","12507","","null","","","null","6","","NaN","","","","","","","","","","","","","",""
"","response","","html-keyboard-response","47","119240","0.0-1.0-59.0-0.0","0","0","12507","","412","","","75","6","","","1","6","training","adjacent","BC","2","3","R.jpg","P.jpg","1","1","1","",""
"","feedback","","html-keyboard-response","48","120247","0.0-1.0-60.0-0.0","0","0","12507","","null","","","null","6","","","","","","","","","","","","","","","",""
"","ITI","","html-keyboard-response","49","121253","0.0-1.0-63.0","0","0","12507","","null","","","null","6","","","","","","","","","","","","","","","NaN",""
"","S1","","html-keyboard-response","50","121511","0.0-1.0-65.0","0","0","12507","","null","","","null","7","","","","","","","","","","","","","","","",""
"","ISI","","html-keyboard-response","51","121667","0.0-1.0-66.0","0","0","12507","","null","","","null","7","NaN","","","","","","","","","","","","","","",""
"","S2","","html-keyboard-response","52","121923","0.0-1.0-67.0","0","0","12507","","null","","","null","7","","NaN","","","","","","","","","","","","","",""
"","response","","html-keyboard-response","53","122640","0.0-1.0-68.0-0.0","0","0","12507","","712","","","75","7","","","1","7","training","adjacent","AB","1","2","L.jpg","R.jpg","1","1","1","",""
"","feedback","","html-keyboard-response","54","123645","0.0-1.0-69.0-0.0","0","0","12507","","null","","","null","7","","","","","","","","","","","","","","","",""
"","ITI","","html-keyboard-response","55","124650","0.0-1.0-72.0","0","0","12507","","null","","","null","7","","","","","","","","","","","","","","","NaN",""
"","S1","","html-keyboard-response","56","124906","0.0-1.0-74.0","0","0","12507","","null","","","null","8","","","","","","","","","","","","","","","",""
"","ISI","","html-keyboard-response","57","125060","0.0-1.0-75.0","0","0","12507","","null","","","null","8","NaN","","","","","","","","","","","","","","",""
"","S2","","html-keyboard-response","58","125315","0.0-1.0-76.0","0","0","12507","","null","","","null","8","","NaN","","","","","","","","","","","","","",""
"","response","","html-keyboard-response","59","126400","0.0-1.0-77.0-0.0","0","0","12507","","1080","","","68","8","","","1","8","training","adjacent","CD","3","4","P.jpg","Q.jpg","0","1","0","",""
"","feedback","","html-keyboard-response","60","127405","0.0-1.0-78.0-0.0","0","0","12507","","null","","","null","8","","","","","","","","","","","","","","","",""
"","time_out","","html-keyboard-response","61","129409","0.0-1.0-80.0-0.0","0","0","12507","","null","","","null","8","","","","","","","","","","","","","","","",""
"","ITI","","html-keyboard-response","62","130414","0.0-1.0-81.0","0","0","12507","","null","","","null","8","","","","","","","","","","","","","","","NaN",""
"","S1","","html-keyboard-response","63","130669","0.0-1.0-83.0","0","0","12507","","null","","","null","9","","","","","","","","","","","","","","","",""
"","ISI","","html-keyboard-response","64","130824","0.0-1.0-84.0","0","0","12507","","null","","","null","9","NaN","","","","","","","","","","","","","","",""
"","S2","","html-keyboard-response","65","131079","0.0-1.0-85.0","0","0","12507","","null","","","null","9","","NaN","","","","","","","","","","","","","",""
"","response","","html-keyboard-response","66","131384","0.0-1.0-86.0-0.0","0","0","12507","","300","","","75","9","","","1","9","training","adjacent","BA","2","1","R.jpg","L.jpg","1","0","0","",""
"","feedback","","html-keyboard-response","67","132389","0.0-1.0-87.0-0.0","0","0","12507","","null","","","null","9","","","","","","","","","","","","","","","",""
"","time_out","","html-keyboard-response","68","134395","0.0-1.0-89.0-0.0","0","0","12507","","null","","","null","9","","","","","","","","","","","","","","","",""
"","ITI","","html-keyboard-response","69","135400","0.0-1.0-90.0","0","0","12507","","null","","","null","9","","","","","","","","","","","","","","","NaN",""
"","S1","","html-keyboard-response","70","135655","0.0-1.0-92.0","0","0","12507","","null","","","null","10","","","","","","","","","","","","","","","",""
"","ISI","","html-keyboard-response","71","135810","0.0-1.0-93.0","0","0","12507","","null","","","null","10","NaN","","","","","","","","","","","","","","",""
"","S2","","html-keyboard-response","72","136066","0.0-1.0-94.0","0","0","12507","","null","","","null","10","","NaN","","","","","","","","","","","","","",""
"","response","","html-keyboard-response","73","136752","0.0-1.0-95.0-0.0","0","0","12507","","681","","","75","10","","","1","10","training","adjacent","ED","5","4","M.jpg","Q.jpg","1","0","0","",""
"","feedback","","html-keyboard-response","74","137757","0.0-1.0-96.0-0.0","0","0","12507","","null","","","null","10","","","","","","","","","","","","","","","",""
"","time_out","","html-keyboard-response","75","139763","0.0-1.0-98.0-0.0","0","0","12507","","null","","","null","10","","","","","","","","","","","","","","","",""
"","ITI","","html-keyboard-response","76","140768","0.0-1.0-99.0","0","0","12507","","null","","","null","10","","","","","","","","","","","","","","","NaN",""
"","S1","","html-keyboard-response","77","141023","0.0-1.0-101.0","0","0","12507","","null","","","null","11","","","","","","","","","","","","","","","",""
"","ISI","","html-keyboard-response","78","141179","0.0-1.0-102.0","0","0","12507","","null","","","null","11","NaN","","","","","","","","","","","","","","",""
"","S2","","html-keyboard-response","79","141435","0.0-1.0-103.0","0","0","12507","","null","","","null","11","","NaN","","","","","","","","","","","","","",""
"","response","","html-keyboard-response","80","142290","0.0-1.0-104.0-0.0","0","0","12507","","850","","","68","11","","","1","11","training","adjacent","ED","5","4","M.jpg","Q.jpg","0","0","1","",""
"","feedback","","html-keyboard-response","81","143295","0.0-1.0-105.0-0.0","0","0","12507","","null","","","null","11","","","","","","","","","","","","","","","",""
"","ITI","","html-keyboard-response","82","144300","0.0-1.0-108.0","0","0","12507","","null","","","null","11","","","","","","","","","","","","","","","NaN",""
"","S1","","html-keyboard-response","83","144556","0.0-1.0-110.0","0","0","12507","","null","","","null","12","","","","","","","","","","","","","","","",""
"","ISI","","html-keyboard-response","84","144710","0.0-1.0-111.0","0","0","12507","","null","","","null","12","NaN","","","","","","","","","","","","","","",""
"","S2","","html-keyboard-response","85","144965","0.0-1.0-112.0","0","0","12507","","null","","","null","12","","NaN","","","","","","","","","","","","","",""
"","response","","html-keyboard-response","86","146080","0.0-1.0-113.0-0.0","0","0","12507","","1110","","","68","12","","","1","12","training","adjacent","AB","1","2","L.jpg","R.jpg","0","1","0","",""
"","feedback","","html-keyboard-response","87","147086","0.0-1.0-114.0-0.0","0","0","12507","","null","","","null","12","","","","","","","","","","","","","","","",""
"","time_out","","html-keyboard-response","88","149092","0.0-1.0-116.0-0.0","0","0","12507","","null","","","null","12","","","","","","","","","","","","","","","",""
"","ITI","","html-keyboard-response","89","150098","0.0-1.0-117.0","0","0","12507","","null","","","null","12","","","","","","","","","","","","","","","NaN",""
"","S1","","html-keyboard-response","90","150353","0.0-1.0-119.0","0","0","12507","","null","","","null","13","","","","","","","","","","","","","","","",""
"","ISI","","html-keyboard-response","91","150508","0.0-1.0-120.0","0","0","12507","","null","","","null","13","NaN","","","","","","","","","","","","","","",""
"","S2","","html-keyboard-response","92","150762","0.0-1.0-121.0","0","0","12507","","null","","","null","13","","NaN","","","","","","","","","","","","","",""
"","response","","html-keyboard-response","93","151816","0.0-1.0-122.0-0.0","0","0","12507","","1049","","","68","13","","","1","13","training","adjacent","GF","7","6","O.jpg","N.jpg","0","0","1","",""
"","feedback","","html-keyboard-response","94","152821","0.0-1.0-123.0-0.0","0","0","12507","","null","","","null","13","","","","","","","","","","","","","","","",""
"","ITI","","html-keyboard-response","95","153827","0.0-1.0-126.0","0","0","12507","","null","","","null","13","","","","","","","","","","","","","","","NaN",""
"","S1","","html-keyboard-response","96","154082","0.0-1.0-128.0","0","0","12507","","null","","","null","14","","","","","","","","","","","","","","","",""
"","ISI","","html-keyboard-response","97","154237","0.0-1.0-129.0","0","0","12507","","null","","","null","14","NaN","","","","","","","","","","","","","","",""
"","S2","","html-keyboard-response","98","154493","0.0-1.0-130.0","0","0","12507","","null","","","null","14","","NaN","","","","","","","","","","","","","",""
"","response","","html-keyboard-response","99","155408","0.0-1.0-131.0-0.0","0","0","12507","","910","","","68","14","","","1","14","training","adjacent","CD","3","4","P.jpg","Q.jpg","0","1","0","",""
"","feedback","","html-keyboard-response","100","156414","0.0-1.0-132.0-0.0","0","0","12507","","null","","","null","14","","","","","","","","","","","","","","","",""
"","time_out","","html-keyboard-response","101","158419","0.0-1.0-134.0-0.0","0","0","12507","","null","","","null","14","","","","","","","","","","","","","","","",""
"","ITI","","html-keyboard-response","102","159424","0.0-1.0-135.0","0","0","12507","","null","","","null","14","","","","","","","","","","","","","","","NaN",""
"","S1","","html-keyboard-response","103","159680","0.0-1.0-137.0","0","0","12507","","null","","","null","15","","","","","","","","","","","","","","","",""
"","ISI","","html-keyboard-response","104","159834","0.0-1.0-138.0","0","0","12507","","null","","","null","15","NaN","","","","","","","","","","","","","","",""
"","S2","","html-keyboard-response","105","160090","0.0-1.0-139.0","0","0","12507","","null","","","null","15","","NaN","","","","","","","","","","","","","",""
"","response","","html-keyboard-response","106","160431","0.0-1.0-140.0-0.0","0","0","12507","","337","","","75","15","","","1","15","training","adjacent","FG","6","7","N.jpg","O.jpg","1","1","1","",""
"","feedback","","html-keyboard-response","107","161438","0.0-1.0-141.0-0.0","0","0","12507","","null","","","null","15","","","","","","","","","","","","","","","",""
"","ITI","","html-keyboard-response","108","162444","0.0-1.0-144.0","0","0","12507","","null","","","null","15","","","","","","","","","","","","","","","NaN",""
"","S1","","html-keyboard-response","109","162699","0.0-1.0-146.0","0","0","12507","","null","","","null","16","","","","","","","","","","","","","","","",""
"","ISI","","html-keyboard-response","110","162855","0.0-1.0-147.0","0","0","12507","","null","","","null","16","NaN","","","","","","","","","","","","","","",""
"","S2","","html-keyboard-response","111","163111","0.0-1.0-148.0","0","0","12507","","null","","","null","16","","NaN","","","","","","","","","","","","","",""
"","response","","html-keyboard-response","112","163544","0.0-1.0-149.0-0.0","0","0","12507","","429","","","75","16","","","1","16","training","adjacent","CD","3","4","P.jpg","Q.jpg","1","1","1","",""
"","feedback","","html-keyboard-response","113","164550","0.0-1.0-150.0-0.0","0","0","12507","","null","","","null","16","","","","","","","","","","","","","","","",""
"","ITI","","html-keyboard-response","114","165555","0.0-1.0-153.0","0","0","12507","","null","","","null","16","","","","","","","","","","","","","","","NaN",""
"","S1","","html-keyboard-response","115","165810","0.0-1.0-155.0","0","0","12507","","null","","","null","17","","","","","","","","","","","","","","","",""
"","ISI","","html-keyboard-response","116","165964","0.0-1.0-156.0","0","0","12507","","null","","","null","17","NaN","","","","","","","","","","","","","","",""
"","S2","","html-keyboard-response","117","166220","0.0-1.0-157.0","0","0","12507","","null","","","null","17","","NaN","","","","","","","","","","","","","",""
"","response","","html-keyboard-response","118","166727","0.0-1.0-158.0-0.0","0","0","12507","","504","","","75","17","","","1","17","training","adjacent","ED","5","4","M.jpg","Q.jpg","1","0","0","",""
"","feedback","","html-keyboard-response","119","167733","0.0-1.0-159.0-0.0","0","0","12507","","null","","","null","17","","","","","","","","","","","","","","","",""
"","time_out","","html-keyboard-response","120","169738","0.0-1.0-161.0-0.0","0","0","12507","","null","","","null","17","","","","","","","","","","","","","","","",""
"","ITI","","html-keyboard-response","121","170744","0.0-1.0-162.0","0","0","12507","","null","","","null","17","","","","","","","","","","","","","","","NaN",""
"","S1","","html-keyboard-response","122","170999","0.0-1.0-164.0","0","0","12507","","null","","","null","18","","","","","","","","","","","","","","","",""
"","ISI","","html-keyboard-response","123","171153","0.0-1.0-165.0","0","0","12507","","null","","","null","18","NaN","","","","","","","","","","","","","","",""
"","S2","","html-keyboard-response","124","171409","0.0-1.0-166.0","0","0","12507","","null","","","null","18","","NaN","","","","","","","","","","","","","",""
"","response","","html-keyboard-response","125","172088","0.0-1.0-167.0-0.0","0","0","12507","","675","","","68","18","","","1","18","training","adjacent","BA","2","1","R.jpg","L.jpg","0","0","1","",""
"","feedback","","html-keyboard-response","126","173094","0.0-1.0-168.0-0.0","0","0","12507","","null","","","null","18","","","","","","","","","","","","","","","",""
"","ITI","","html-keyboard-response","127","174099","0.0-1.0-171.0","0","0","12507","","null","","","null","18","","","","","","","","","","","","","","","NaN",""
"","S1","","html-keyboard-response","128","174354","0.0-1.0-173.0","0","0","12507","","null","","","null","19","","","","","","","","","","","","","","","",""
"","ISI","","html-keyboard-response","129","174510","0.0-1.0-174.0","0","0","12507","","null","","","null","19","NaN","","","","","","","","","","","","","","",""
"","S2","","html-keyboard-response","130","174766","0.0-1.0-175.0","0","0","12507","","null","","","null","19","","NaN","","","","","","","","","","","","","",""
"","response","","html-keyboard-response","131","175904","0.0-1.0-176.0-0.0","0","0","12507","","1133","","","75","19","","","1","19","training","adjacent","GF","7","6","O.jpg","N.jpg","1","0","0","",""
"","feedback","","html-keyboard-response","132","176909","0.0-1.0-177.0-0.0","0","0","12507","","null","","","null","19","","","","","","","","","","","","","","","",""
"","time_out","","html-keyboard-response","133","178915","0.0-1.0-179.0-0.0","0","0","12507","","null","","","null","19","","","","","","","","","","","","","","","",""
"","ITI","","html-keyboard-response","134","179921","0.0-1.0-180.0","0","0","12507","","null","","","null","19","","","","","","","","","","","","","","","NaN",""
"","S1","","html-keyboard-response","135","180178","0.0-1.0-182.0","0","0","12507","","null","","","null","20","","","","","","","","","","","","","","","",""
"","ISI","","html-keyboard-response","136","180333","0.0-1.0-183.0","0","0","12507","","null","","","null","20","NaN","","","","","","","","","","","","","","",""
"","S2","","html-keyboard-response","137","180589","0.0-1.0-184.0","0","0","12507","","null","","","null","20","","NaN","","","","","","","","","","","","","",""
"","response","","html-keyboard-response","138","181176","0.0-1.0-185.0-0.0","0","0","12507","","582","","","75","20","","","1","20","training","adjacent","FG","6","7","N.jpg","O.jpg","1","1","1","",""
"","feedback","","html-keyboard-response","139","182181","0.0-1.0-186.0-0.0","0","0","12507","","null","","","null","20","","","","","","","","","","","","","","","",""
"","ITI","","html-keyboard-response","140","183186","0.0-1.0-189.0","0","0","12507","","null","","","null","20","","","","","","","","","","","","","","","NaN",""
"","S1","","html-keyboard-response","141","183442","0.0-1.0-191.0","0","0","12507","","null","","","null","21","","","","","","","","","","","","","","","",""
"","ISI","","html-keyboard-response","142","183598","0.0-1.0-192.0","0","0","12507","","null","","","null","21","NaN","","","","","","","","","","","","","","",""
"","S2","","html-keyboard-response","143","183853","0.0-1.0-193.0","0","0","12507","","null","","","null","21","","NaN","","","","","","","","","","","","","",""
"","response","","html-keyboard-response","144","184290","0.0-1.0-194.0-0.0","0","0","12507","","431","","","75","21","","","1","21","training","adjacent","BC","2","3","R.jpg","P.jpg","1","1","1","",""
"","feedback","","html-keyboard-response","145","185296","0.0-1.0-195.0-0.0","0","0","12507","","null","","","null","21","","","","","","","","","","","","","","","",""
"","ITI","","html-keyboard-response","146","186302","0.0-1.0-198.0","0","0","12507","","null","","","null","21","","","","","","","","","","","","","","","NaN",""
"","S1","","html-keyboard-response","147","186557","0.0-1.0-200.0","0","0","12507","","null","","","null","22","","","","","","","","","","","","","","","",""
"","ISI","","html-keyboard-response","148","186712","0.0-1.0-201.0","0","0","12507","","null","","","null","22","NaN","","","","","","","","","","","","","","",""
"","S2","","html-keyboard-response","149","186969","0.0-1.0-202.0","0","0","12507","","null","","","null","22","","NaN","","","","","","","","","","","","","",""
"","response","","html-keyboard-response","150","187752","0.0-1.0-203.0-0.0","0","0","12507","","778","","","68","22","","","1","22","training","adjacent","FE","6","5","N.jpg","M.jpg","0","0","1","",""
"","feedback","","html-keyboard-response","151","188757","0.0-1.0-204.0-0.0","0","0","12507","","null","","","null","22","","","","","","","","","","","","","","","",""
"","ITI","","html-keyboard-response","152","189762","0.0-1.0-207.0","0","0","12507","","null","","","null","22","","","","","","","","","","","","","","","NaN",""
"","S1","","html-keyboard-response","153","190017","0.0-1.0-209.0","0","0","12507","","null","","","null","23","","","","","","","","","","","","","","","",""
"","ISI","","html-keyboard-response","154","190172","0.0-1.0-210.0","0","0","12507","","null","","","null","23","NaN","","","","","","","","","","","","","","",""
"","S2","","html-keyboard-response","155","190428","0.0-1.0-211.0","0","0","12507","","null","","","null","23","","NaN","","","","","","","","","","","","","",""
"","response","","html-keyboard-response","156","191640","0.0-1.0-212.0-0.0","0","0","12507","","1208","","","68","23","","","1","23","training","adjacent","AB","1","2","L.jpg","R.jpg","0","1","0","",""
"","feedback","","html-keyboard-response","157","192646","0.0-1.0-213.0-0.0","0","0","12507","","null","","","null","23","","","","","","","","","","","","","","","",""
"","time_out","","html-keyboard-response","158","194650","0.0-1.0-215.0-0.0","0","0","12507","","null","","","null","23","","","","","","","","","","","","","","","",""
"","ITI","","html-keyboard-response","159","195656","0.0-1.0-216.0","0","0","12507","","null","","","null","23","","","","","","","","","","","","","","","NaN",""
"","S1","","html-keyboard-response","160","195911","0.0-1.0-218.0","0","0","12507","","null","","","null","24","","","","","","","","","","","","","","","",""
"","ISI","","html-keyboard-response","161","196067","0.0-1.0-219.0","0","0","12507","","null","","","null","24","NaN","","","","","","","","","","","","","","",""
"","S2","","html-keyboard-response","162","196323","0.0-1.0-220.0","0","0","12507","","null","","","null","24","","NaN","","","","","","","","","","","","","",""
"","response","","html-keyboard-response","163","196824","0.0-1.0-221.0-0.0","0","0","12507","","496","","","68","24","","","1","24","training","adjacent","DC","4","3","Q.jpg","P.jpg","0","0","1","",""
"","feedback","","html-keyboard-response","164","197829","0.0-1.0-222.0-0.0","0","0","12507","","null","","","null","24","","","","","","","","","","","","","","","",""
"","ITI","","html-keyboard-response","165","198834","0.0-1.0-225.0","0","0","12507","","null","","","null","24","","","","","","","","","","","","","","","NaN",""
"","S1","","html-keyboard-response","166","199090","0.0-1.0-227.0","0","0","12507","","null","","","null","25","","","","","","","","","","","","","","","",""
"","ISI","","html-keyboard-response","167","199244","0.0-1.0-228.0","0","0","12507","","null","","","null","25","NaN","","","","","","","","","","","","","","",""
"","S2","","html-keyboard-response","168","199500","0.0-1.0-229.0","0","0","12507","","null","","","null","25","","NaN","","","","","","","","","","","","","",""
"","response","","html-keyboard-response","169","200648","0.0-1.0-230.0-0.0","0","0","12507","","1143","","","68","25","","","1","25","training","adjacent","EF","5","6","M.jpg","N.jpg","0","1","0","",""
"","feedback","","html-keyboard-response","170","201653","0.0-1.0-231.0-0.0","0","0","12507","","null","","","null","25","","","","","","","","","","","","","","","",""
"","time_out","","html-keyboard-response","171","203658","0.0-1.0-233.0-0.0","0","0","12507","","null","","","null","25","","","","","","","","","","","","","","","",""
"","ITI","","html-keyboard-response","172","204664","0.0-1.0-234.0","0","0","12507","","null","","","null","25","","","","","","","","","","","","","","","NaN",""
"","S1","","html-keyboard-response","173","204919","0.0-1.0-236.0","0","0","12507","","null","","","null","26","","","","","","","","","","","","","","","",""
"","ISI","","html-keyboard-response","174","205074","0.0-1.0-237.0","0","0","12507","","null","","","null","26","NaN","","","","","","","","","","","","","","",""
"","S2","","html-keyboard-response","175","205329","0.0-1.0-238.0","0","0","12507","","null","","","null","26","","NaN","","","","","","","","","","","","","",""
"","response","","html-keyboard-response","176","206752","0.0-1.0-239.0-0.0","0","0","12507","","1418","","","68","26","","","1","26","training","adjacent","ED","5","4","M.jpg","Q.jpg","0","0","1","",""
"","feedback","","html-keyboard-response","177","207758","0.0-1.0-240.0-0.0","0","0","12507","","null","","","null","26","","","","","","","","","","","","","","","",""
"","ITI","","html-keyboard-response","178","208763","0.0-1.0-243.0","0","0","12507","","null","","","null","26","","","","","","","","","","","","","","","NaN",""
"","S1","","html-keyboard-response","179","209019","0.0-1.0-245.0","0","0","12507","","null","","","null","27","","","","","","","","","","","","","","","",""
"","ISI","","html-keyboard-response","180","209174","0.0-1.0-246.0","0","0","12507","","null","","","null","27","NaN","","","","","","","","","","","","","","",""
"","S2","","html-keyboard-response","181","209430","0.0-1.0-247.0","0","0","12507","","null","","","null","27","","NaN","","","","","","","","","","","","","",""
"","response","","html-keyboard-response","182","210416","0.0-1.0-248.0-0.0","0","0","12507","","982","","","68","27","","","1","27","training","adjacent","AB","1","2","L.jpg","R.jpg","0","1","0","",""
"","feedback","","html-keyboard-response","183","211422","0.0-1.0-249.0-0.0","0","0","12507","","null","","","null","27","","","","","","","","","","","","","","","",""
"","time_out","","html-keyboard-response","184","213428","0.0-1.0-251.0-0.0","0","0","12507","","null","","","null","27","","","","","","","","","","","","","","","",""
"","ITI","","html-keyboard-response","185","214432","0.0-1.0-252.0","0","0","12507","","null","","","null","27","","","","","","","","","","","","","","","NaN",""
"","S1","","html-keyboard-response","186","214688","0.0-1.0-254.0","0","0","12507","","null","","","null","28","","","","","","","","","","","","","","","",""
"","ISI","","html-keyboard-response","187","214843","0.0-1.0-255.0","0","0","12507","","null","","","null","28","NaN","","","","","","","","","","","","","","",""
"","S2","","html-keyboard-response","188","215099","0.0-1.0-256.0","0","0","12507","","null","","","null","28","","NaN","","","","","","","","","","","","","",""
"","response","","html-keyboard-response","189","215729","0.0-1.0-257.0-0.0","0","0","12507","","625","","","68","28","","","1","28","training","adjacent","FG","6","7","N.jpg","O.jpg","0","1","0","",""
"","feedback","","html-keyboard-response","190","216735","0.0-1.0-258.0-0.0","0","0","12507","","null","","","null","28","","","","","","","","","","","","","","","",""
"","time_out","","html-keyboard-response","191","218740","0.0-1.0-260.0-0.0","0","0","12507","","null","","","null","28","","","","","","","","","","","","","","","",""
"","ITI","","html-keyboard-response","192","219745","0.0-1.0-261.0","0","0","12507","","null","","","null","28","","","","","","","","","","","","","","","NaN",""
"","S1","","html-keyboard-response","193","220000","0.0-1.0-263.0","0","0","12507","","null","","","null","29","","","","","","","","","","","","","","","",""
"","ISI","","html-keyboard-response","194","220155","0.0-1.0-264.0","0","0","12507","","null","","","null","29","NaN","","","","","","","","","","","","","","",""
"","S2","","html-keyboard-response","195","220410","0.0-1.0-265.0","0","0","12507","","null","","","null","29","","NaN","","","","","","","","","","","","","",""
"","response","","html-keyboard-response","196","221290","0.0-1.0-266.0-0.0","0","0","12507","","875","","","75","29","","","1","29","training","adjacent","CD","3","4","P.jpg","Q.jpg","1","1","1","",""
"","feedback","","html-keyboard-response","197","222296","0.0-1.0-267.0-0.0","0","0","12507","","null","","","null","29","","","","","","","","","","","","","","","",""
"","ITI","","html-keyboard-response","198","223301","0.0-1.0-270.0","0","0","12507","","null","","","null","29","","","","","","","","","","","","","","","NaN",""
"","S1","","html-keyboard-response","199","223556","0.0-1.0-272.0","0","0","12507","","null","","","null","30","","","","","","","","","","","","","","","",""
"","ISI","","html-keyboard-response","200","223710","0.0-1.0-273.0","0","0","12507","","null","","","null","30","NaN","","","","","","","","","","","","","","",""
"","S2","","html-keyboard-response","201","223966","0.0-1.0-274.0","0","0","12507","","null","","","null","30","","NaN","","","","","","","","","","","","","",""
"","response","","html-keyboard-response","202","224576","0.0-1.0-275.0-0.0","0","0","12507","","605","","","75","30","","","1","30","training","adjacent","BC","2","3","R.jpg","P.jpg","1","1","1","",""
"","feedback","","html-keyboard-response","203","225581","0.0-1.0-276.0-0.0","0","0","12507","","null","","","null","30","","","","","","","","","","","","","","","",""
"","ITI","","html-keyboard-response","204","226587","0.0-1.0-279.0","0","0","12507","","null","","","null","30","","","","","","","","","","","","","","","NaN",""
"","S1","","html-keyboard-response","205","226843","0.0-1.0-281.0","0","0","12507","","null","","","null","31","","","","","","","","","","","","","","","",""
"","ISI","","html-keyboard-response","206","226998","0.0-1.0-282.0","0","0","12507","","null","","","null","31","NaN","","","","","","","","","","","","","","",""
"","S2","","html-keyboard-response","207","227253","0.0-1.0-283.0","0","0","12507","","null","","","null","31","","NaN","","","","","","","","","","","","","",""
"","response","","html-keyboard-response","208","227976","0.0-1.0-284.0-0.0","0","0","12507","","718","","","75","31","","","1","31","training","adjacent","GF","7","6","O.jpg","N.jpg","1","0","0","",""
"","feedback","","html-keyboard-response","209","228981","0.0-1.0-285.0-0.0","0","0","12507","","null","","","null","31","","","","","","","","","","","","","","","",""
"","time_out","","html-keyboard-response","210","230987","0.0-1.0-287.0-0.0","0","0","12507","","null","","","null","31","","","","","","","","","","","","","","","",""
"","ITI","","html-keyboard-response","211","231992","0.0-1.0-288.0","0","0","12507","","null","","","null","31","","","","","","","","","","","","","","","NaN",""
"","S1","","html-keyboard-response","212","232248","0.0-1.0-290.0","0","0","12507","","null","","","null","32","","","","","","","","","","","","","","","",""
"","ISI","","html-keyboard-response","213","232403","0.0-1.0-291.0","0","0","12507","","null","","","null","32","NaN","","","","","","","","","","","","","","",""
"","S2","","html-keyboard-response","214","232659","0.0-1.0-292.0","0","0","12507","","null","","","null","32","","NaN","","","","","","","","","","","","","",""
"","response","","html-keyboard-response","215","233282","0.0-1.0-293.0-0.0","0","0","12507","","618","","","68","32","","","1","32","training","adjacent","DE","4","5","Q.jpg","M.jpg","0","1","0","",""
"","feedback","","html-keyboard-response","216","234287","0.0-1.0-294.0-0.0","0","0","12507","","null","","","null","32","","","","","","","","","","","","","","","",""
"","time_out","","html-keyboard-response","217","236292","0.0-1.0-296.0-0.0","0","0","12507","","null","","","null","32","","","","","","","","","","","","","","","",""
"","ITI","","html-keyboard-response","218","237297","0.0-1.0-297.0","0","0","12507","","null","","","null","32","","","","","","","","","","","","","","","NaN",""
"","S1","","html-keyboard-response","219","237552","0.0-1.0-299.0","0","0","12507","","null","","","null","33","","","","","","","","","","","","","","","",""
"","ISI","","html-keyboard-response","220","237707","0.0-1.0-300.0","0","0","12507","","null","","","null","33","NaN","","","","","","","","","","","","","","",""
"","S2","","html-keyboard-response","221","237963","0.0-1.0-301.0","0","0","12507","","null","","","null","33","","NaN","","","","","","","","","","","","","",""
"","response","","html-keyboard-response","222","238944","0.0-1.0-302.0-0.0","0","0","12507","","976","","","68","33","","","1","33","training","adjacent","DE","4","5","Q.jpg","M.jpg","0","1","0","",""
"","feedback","","html-keyboard-response","223","239951","0.0-1.0-303.0-0.0","0","0","12507","","null","","","null","33","","","","","","","","","","","","","","","",""
"","time_out","","html-keyboard-response","224","241956","0.0-1.0-305.0-0.0","0","0","12507","","null","","","null","33","","","","","","","","","","","","","","","",""
"","ITI","","html-keyboard-response","225","242961","0.0-1.0-306.0","0","0","12507","","null","","","null","33","","","","","","","","","","","","","","","NaN",""
"","S1","","html-keyboard-response","226","243216","0.0-1.0-308.0","0","0","12507","","null","","","null","34","","","","","","","","","","","","","","","",""
"","ISI","","html-keyboard-response","227","243370","0.0-1.0-309.0","0","0","12507","","null","","","null","34","NaN","","","","","","","","","","","","","","",""
"","S2","","html-keyboard-response","228","243626","0.0-1.0-310.0","0","0","12507","","null","","","null","34","","NaN","","","","","","","","","","","","","",""
"","response","","html-keyboard-response","229","244568","0.0-1.0-311.0-0.0","0","0","12507","","937","","","75","34","","","1","34","training","adjacent","DC","4","3","Q.jpg","P.jpg","1","0","0","",""
"","feedback","","html-keyboard-response","230","245574","0.0-1.0-312.0-0.0","0","0","12507","","null","","","null","34","","","","","","","","","","","","","","","",""
"","time_out","","html-keyboard-response","231","247579","0.0-1.0-314.0-0.0","0","0","12507","","null","","","null","34","","","","","","","","","","","","","","","",""
"","ITI","","html-keyboard-response","232","248584","0.0-1.0-315.0","0","0","12507","","null","","","null","34","","","","","","","","","","","","","","","NaN",""
"","S1","","html-keyboard-response","233","248839","0.0-1.0-317.0","0","0","12507","","null","","","null","35","","","","","","","","","","","","","","","",""
"","ISI","","html-keyboard-response","234","248994","0.0-1.0-318.0","0","0","12507","","null","","","null","35","NaN","","","","","","","","","","","","","","",""
"","S2","","html-keyboard-response","235","249250","0.0-1.0-319.0","0","0","12507","","null","","","null","35","","NaN","","","","","","","","","","","","","",""
"","response","","html-keyboard-response","236","250464","0.0-1.0-320.0-0.0","0","0","12507","","1210","","","68","35","","","1","35","training","adjacent","FE","6","5","N.jpg","M.jpg","0","0","1","",""
"","feedback","","html-keyboard-response","237","251469","0.0-1.0-321.0-0.0","0","0","12507","","null","","","null","35","","","","","","","","","","","","","","","",""
"","ITI","","html-keyboard-response","238","252474","0.0-1.0-324.0","0","0","12507","","null","","","null","35","","","","","","","","","","","","","","","NaN",""
"","S1","","html-keyboard-response","239","252729","0.0-1.0-326.0","0","0","12507","","null","","","null","36","","","","","","","","","","","","","","","",""
"","ISI","","html-keyboard-response","240","252884","0.0-1.0-327.0","0","0","12507","","null","","","null","36","NaN","","","","","","","","","","","","","","",""
"","S2","","html-keyboard-response","241","253140","0.0-1.0-328.0","0","0","12507","","null","","","null","36","","NaN","","","","","","","","","","","","","",""
"","response","","html-keyboard-response","242","254304","0.0-1.0-329.0-0.0","0","0","12507","","1159","","","68","36","","","1","36","training","adjacent","CB","3","2","P.jpg","R.jpg","0","0","1","",""
"","feedback","","html-keyboard-response","243","255311","0.0-1.0-330.0-0.0","0","0","12507","","null","","","null","36","","","","","","","","","","","","","","","",""
"","ITI","","html-keyboard-response","244","256316","0.0-1.0-333.0","0","0","12507","","null","","","null","36","","","","","","","","","","","","","","","NaN",""
"","S1","","html-keyboard-response","245","256571","0.0-1.0-335.0","0","0","12507","","null","","","null","37","","","","","","","","","","","","","","","",""
"","ISI","","html-keyboard-response","246","256737","0.0-1.0-336.0","0","0","12507","","null","","","null","37","NaN","","","","","","","","","","","","","","",""
"","S2","","html-keyboard-response","247","256993","0.0-1.0-337.0","0","0","12507","","null","","","null","37","","NaN","","","","","","","","","","","","","",""
"","response","","html-keyboard-response","248","257632","0.0-1.0-338.0-0.0","0","0","12507","","635","","","68","37","","","1","37","training","adjacent","CB","3","2","P.jpg","R.jpg","0","0","1","",""
"","feedback","","html-keyboard-response","249","258638","0.0-1.0-339.0-0.0","0","0","12507","","null","","","null","37","","","","","","","","","","","","","","","",""
"","ITI","","html-keyboard-response","250","259643","0.0-1.0-342.0","0","0","12507","","null","","","null","37","","","","","","","","","","","","","","","NaN",""
"","S1","","html-keyboard-response","251","259899","0.0-1.0-344.0","0","0","12507","","null","","","null","38","","","","","","","","","","","","","","","",""
"","ISI","","html-keyboard-response","252","260055","0.0-1.0-345.0","0","0","12507","","null","","","null","38","NaN","","","","","","","","","","","","","","",""
"","S2","","html-keyboard-response","253","260311","0.0-1.0-346.0","0","0","12507","","null","","","null","38","","NaN","","","","","","","","","","","","","",""
"","response","","html-keyboard-response","254","261152","0.0-1.0-347.0-0.0","0","0","12507","","836","","","68","38","","","1","38","training","adjacent","FE","6","5","N.jpg","M.jpg","0","0","1","",""
"","feedback","","html-keyboard-response","255","262158","0.0-1.0-348.0-0.0","0","0","12507","","null","","","null","38","","","","","","","","","","","","","","","",""
"","ITI","","html-keyboard-response","256","263163","0.0-1.0-351.0","0","0","12507","","null","","","null","38","","","","","","","","","","","","","","","NaN",""
"","S1","","html-keyboard-response","257","263418","0.0-1.0-353.0","0","0","12507","","null","","","null","39","","","","","","","","","","","","","","","",""
"","ISI","","html-keyboard-response","258","263573","0.0-1.0-354.0","0","0","12507","","null","","","null","39","NaN","","","","","","","","","","","","","","",""
"","S2","","html-keyboard-response","259","263829","0.0-1.0-355.0","0","0","12507","","null","","","null","39","","NaN","","","","","","","","","","","","","",""
"","response","","html-keyboard-response","260","264440","0.0-1.0-356.0-0.0","0","0","12507","","607","","","75","39","","","1","39","training","adjacent","BA","2","1","R.jpg","L.jpg","1","0","0","",""
"","feedback","","html-keyboard-response","261","265446","0.0-1.0-357.0-0.0","0","0","12507","","null","","","null","39","","","","","","","","","","","","","","","",""
"","time_out","","html-keyboard-response","262","267451","0.0-1.0-359.0-0.0","0","0","12507","","null","","","null","39","","","","","","","","","","","","","","","",""
"","ITI","","html-keyboard-response","263","268456","0.0-1.0-360.0","0","0","12507","","null","","","null","39","","","","","","","","","","","","","","","NaN",""
"","S1","","html-keyboard-response","264","268712","0.0-1.0-362.0","0","0","12507","","null","","","null","40","","","","","","","","","","","","","","","",""
"","ISI","","html-keyboard-response","265","268867","0.0-1.0-363.0","0","0","12507","","null","","","null","40","NaN","","","","","","","","","","","","","","",""
"","S2","","html-keyboard-response","266","269122","0.0-1.0-364.0","0","0","12507","","null","","","null","40","","NaN","","","","","","","","","","","","","",""
"","response","","html-keyboard-response","267","270336","0.0-1.0-365.0-0.0","0","0","12507","","1210","","","68","40","","","1","40","training","adjacent","BA","2","1","R.jpg","L.jpg","0","0","1","",""
"","feedback","","html-keyboard-response","268","271342","0.0-1.0-366.0-0.0","0","0","12507","","null","","","null","40","","","","","","","","","","","","","","","",""
"","ITI","","html-keyboard-response","269","272347","0.0-1.0-369.0","0","0","12507","","null","","","null","40","","","","","","","","","","","","","","","NaN",""
"","S1","","html-keyboard-response","270","272607","0.0-1.0-371.0","0","0","12507","","null","","","null","41","","","","","","","","","","","","","","","",""
"","ISI","","html-keyboard-response","271","272762","0.0-1.0-372.0","0","0","12507","","null","","","null","41","NaN","","","","","","","","","","","","","","",""
"","S2","","html-keyboard-response","272","273017","0.0-1.0-373.0","0","0","12507","","null","","","null","41","","NaN","","","","","","","","","","","","","",""
"","response","","html-keyboard-response","273","273856","0.0-1.0-374.0-0.0","0","0","12507","","834","","","68","41","","","1","41","training","adjacent","CB","3","2","P.jpg","R.jpg","0","0","1","",""
"","feedback","","html-keyboard-response","274","274862","0.0-1.0-375.0-0.0","0","0","12507","","null","","","null","41","","","","","","","","","","","","","","","",""
"","ITI","","html-keyboard-response","275","275867","0.0-1.0-378.0","0","0","12507","","null","","","null","41","","","","","","","","","","","","","","","NaN",""
"","S1","","html-keyboard-response","276","276123","0.0-1.0-380.0","0","0","12507","","null","","","null","42","","","","","","","","","","","","","","","",""
"","ISI","","html-keyboard-response","277","276279","0.0-1.0-381.0","0","0","12507","","null","","","null","42","NaN","","","","","","","","","","","","","","",""
"","S2","","html-keyboard-response","278","276535","0.0-1.0-382.0","0","0","12507","","null","","","null","42","","NaN","","","","","","","","","","","","","",""
"","response","","html-keyboard-response","279","277279","0.0-1.0-383.0-0.0","0","0","12507","","740","","","68","42","","","1","42","training","adjacent","DE","4","5","Q.jpg","M.jpg","0","1","0","",""
"","feedback","","html-keyboard-response","280","278285","0.0-1.0-384.0-0.0","0","0","12507","","null","","","null","42","","","","","","","","","","","","","","","",""
"","time_out","","html-keyboard-response","281","280291","0.0-1.0-386.0-0.0","0","0","12507","","null","","","null","42","","","","","","","","","","","","","","","",""
"","ITI","","html-keyboard-response","282","281296","0.0-1.0-387.0","0","0","12507","","null","","","null","42","","","","","","","","","","","","","","","NaN",""
"","S1","","html-keyboard-response","283","281551","0.0-1.0-389.0","0","0","12507","","null","","","null","43","","","","","","","","","","","","","","","",""
"","ISI","","html-keyboard-response","284","281706","0.0-1.0-390.0","0","0","12507","","null","","","null","43","NaN","","","","","","","","","","","","","","",""
"","S2","","html-keyboard-response","285","281961","0.0-1.0-391.0","0","0","12507","","null","","","null","43","","NaN","","","","","","","","","","","","","",""
"","response","","html-keyboard-response","286","282896","0.0-1.0-392.0-0.0","0","0","12507","","930","","","68","43","","","1","43","training","adjacent","CB","3","2","P.jpg","R.jpg","0","0","1","",""
"","feedback","","html-keyboard-response","287","283902","0.0-1.0-393.0-0.0","0","0","12507","","null","","","null","43","","","","","","","","","","","","","","","",""
"","ITI","","html-keyboard-response","288","284907","0.0-1.0-396.0","0","0","12507","","null","","","null","43","","","","","","","","","","","","","","","NaN",""
"","S1","","html-keyboard-response","289","285162","0.0-1.0-398.0","0","0","12507","","null","","","null","44","","","","","","","","","","","","","","","",""
"","ISI","","html-keyboard-response","290","285317","0.0-1.0-399.0","0","0","12507","","null","","","null","44","NaN","","","","","","","","","","","","","","",""
"","S2","","html-keyboard-response","291","285573","0.0-1.0-400.0","0","0","12507","","null","","","null","44","","NaN","","","","","","","","","","","","","",""
"","response","","html-keyboard-response","292","286737","0.0-1.0-401.0-0.0","0","0","12507","","1159","","","75","44","","","1","44","training","adjacent","DC","4","3","Q.jpg","P.jpg","1","0","0","",""
"","feedback","","html-keyboard-response","293","287742","0.0-1.0-402.0-0.0","0","0","12507","","null","","","null","44","","","","","","","","","","","","","","","",""
"","time_out","","html-keyboard-response","294","289747","0.0-1.0-404.0-0.0","0","0","12507","","null","","","null","44","","","","","","","","","","","","","","","",""
"","ITI","","html-keyboard-response","295","290753","0.0-1.0-405.0","0","0","12507","","null","","","null","44","","","","","","","","","","","","","","","NaN",""
"","S1","","html-keyboard-response","296","291008","0.0-1.0-407.0","0","0","12507","","null","","","null","45","","","","","","","","","","","","","","","",""
"","ISI","","html-keyboard-response","297","291163","0.0-1.0-408.0","0","0","12507","","null","","","null","45","NaN","","","","","","","","","","","","","","",""
"","S2","","html-keyboard-response","298","291418","0.0-1.0-409.0","0","0","12507","","null","","","null","45","","NaN","","","","","","","","","","","","","",""
"","response","","html-keyboard-response","299","292112","0.0-1.0-410.0-0.0","0","0","12507","","689","","","75","45","","","1","45","training","adjacent","DC","4","3","Q.jpg","P.jpg","1","0","0","",""
"","feedback","","html-keyboard-response","300","293119","0.0-1.0-411.0-0.0","0","0","12507","","null","","","null","45","","","","","","","","","","","","","","","",""
"","time_out","","html-keyboard-response","301","295125","0.0-1.0-413.0-0.0","0","0","12507","","null","","","null","45","","","","","","","","","","","","","","","",""
"","ITI","","html-keyboard-response","302","296131","0.0-1.0-414.0","0","0","12507","","null","","","null","45","","","","","","","","","","","","","","","NaN",""
"","S1","","html-keyboard-response","303","296387","0.0-1.0-416.0","0","0","12507","","null","","","null","46","","","","","","","","","","","","","","","",""
"","ISI","","html-keyboard-response","304","296542","0.0-1.0-417.0","0","0","12507","","null","","","null","46","NaN","","","","","","","","","","","","","","",""
"","S2","","html-keyboard-response","305","296798","0.0-1.0-418.0","0","0","12507","","null","","","null","46","","NaN","","","","","","","","","","","","","",""
"","response","","html-keyboard-response","306","297929","0.0-1.0-419.0-0.0","0","0","12507","","1126","","","68","46","","","1","46","training","adjacent","EF","5","6","M.jpg","N.jpg","0","1","0","",""
"","feedback","","html-keyboard-response","307","298935","0.0-1.0-420.0-0.0","0","0","12507","","null","","","null","46","","","","","","","","","","","","","","","",""
"","time_out","","html-keyboard-response","308","300941","0.0-1.0-422.0-0.0","0","0","12507","","null","","","null","46","","","","","","","","","","","","","","","",""
"","ITI","","html-keyboard-response","309","301945","0.0-1.0-423.0","0","0","12507","","null","","","null","46","","","","","","","","","","","","","","","NaN",""
"","S1","","html-keyboard-response","310","302201","0.0-1.0-425.0","0","0","12507","","null","","","null","47","","","","","","","","","","","","","","","",""
"","ISI","","html-keyboard-response","311","302356","0.0-1.0-426.0","0","0","12507","","null","","","null","47","NaN","","","","","","","","","","","","","","",""
"","S2","","html-keyboard-response","312","302611","0.0-1.0-427.0","0","0","12507","","null","","","null","47","","NaN","","","","","","","","","","","","","",""
"","response","","html-keyboard-response","313","303001","0.0-1.0-428.0-0.0","0","0","12507","","385","","","75","47","","","1","47","training","adjacent","DE","4","5","Q.jpg","M.jpg","1","1","1","",""
"","feedback","","html-keyboard-response","314","304007","0.0-1.0-429.0-0.0","0","0","12507","","null","","","null","47","","","","","","","","","","","","","","","",""
"","ITI","","html-keyboard-response","315","305012","0.0-1.0-432.0","0","0","12507","","null","","","null","47","","","","","","","","","","","","","","","NaN",""
"","block_over","","html-keyboard-response","316","322449","0.0-1.0-433.0-0.0","0","0","12507","","17431","","","32","47","","","","","","","","","","","","","","","",""
"","S1","","html-keyboard-response","317","322704","0.0-1.0-434.0","0","0","12507","","null","","","null","48","","","","","","","","","","","","","","","",""
"","ISI","","html-keyboard-response","318","322859","0.0-1.0-435.0","0","0","12507","","null","","","null","48","NaN","","","","","","","","","","","","","","",""
"","S2","","html-keyboard-response","319","323114","0.0-1.0-436.0","0","0","12507","","null","","","null","48","","NaN","","","","","","","","","","","","","",""
"","response","","html-keyboard-response","320","324473","0.0-1.0-437.0-0.0","0","0","12507","","1354","","","68","48","","","2","48","training","adjacent","CB","3","2","P.jpg","R.jpg","0","0","1","",""
"","feedback","","html-keyboard-response","321","325479","0.0-1.0-438.0-0.0","0","0","12507","","null","","","null","48","","","","","","","","","","","","","","","",""
"","ITI","","html-keyboard-response","322","326485","0.0-1.0-441.0","0","0","12507","","null","","","null","48","","","","","","","","","","","","","","","NaN",""
"","S1","","html-keyboard-response","323","326741","0.0-1.0-443.0","0","0","12507","","null","","","null","49","","","","","","","","","","","","","","","",""
"","ISI","","html-keyboard-response","324","326896","0.0-1.0-444.0","0","0","12507","","null","","","null","49","NaN","","","","","","","","","","","","","","",""
"","S2","","html-keyboard-response","325","327152","0.0-1.0-445.0","0","0","12507","","null","","","null","49","","NaN","","","","","","","","","","","","","",""
"","response","","html-keyboard-response","326","327576","0.0-1.0-446.0-0.0","0","0","12507","","419","","","75","49","","","2","49","training","adjacent","CD","3","4","P.jpg","Q.jpg","1","1","1","",""
"","feedback","","html-keyboard-response","327","328582","0.0-1.0-447.0-0.0","0","0","12507","","null","","","null","49","","","","","","","","","","","","","","","",""
"","ITI","","html-keyboard-response","328","329588","0.0-1.0-450.0","0","0","12507","","null","","","null","49","","","","","","","","","","","","","","","NaN",""
"","S1","","html-keyboard-response","329","329843","0.0-1.0-452.0","0","0","12507","","null","","","null","50","","","","","","","","","","","","","","","",""
"","ISI","","html-keyboard-response","330","329999","0.0-1.0-453.0","0","0","12507","","null","","","null","50","NaN","","","","","","","","","","","","","","",""
"","S2","","html-keyboard-response","331","330255","0.0-1.0-454.0","0","0","12507","","null","","","null","50","","NaN","","","","","","","","","","","","","",""
"","response","","html-keyboard-response","332","331184","0.0-1.0-455.0-0.0","0","0","12507","","925","","","68","50","","","2","50","training","adjacent","CD","3","4","P.jpg","Q.jpg","0","1","0","",""
"","feedback","","html-keyboard-response","333","332190","0.0-1.0-456.0-0.0","0","0","12507","","null","","","null","50","","","","","","","","","","","","","","","",""
"","time_out","","html-keyboard-response","334","334195","0.0-1.0-458.0-0.0","0","0","12507","","null","","","null","50","","","","","","","","","","","","","","","",""
"","ITI","","html-keyboard-response","335","335199","0.0-1.0-459.0","0","0","12507","","null","","","null","50","","","","","","","","","","","","","","","NaN",""
"","S1","","html-keyboard-response","336","335455","0.0-1.0-461.0","0","0","12507","","null","","","null","51","","","","","","","","","","","","","","","",""
"","ISI","","html-keyboard-response","337","335610","0.0-1.0-462.0","0","0","12507","","null","","","null","51","NaN","","","","","","","","","","","","","","",""
"","S2","","html-keyboard-response","338","335865","0.0-1.0-463.0","0","0","12507","","null","","","null","51","","NaN","","","","","","","","","","","","","",""
"","response","","html-keyboard-response","339","337080","0.0-1.0-464.0-0.0","0","0","12507","","1211","","","75","51","","","2","51","training","adjacent","FG","6","7","N.jpg","O.jpg","1","1","1","",""
"","feedback","","html-keyboard-response","340","338085","0.0-1.0-465.0-0.0","0","0","12507","","null","","","null","51","","","","","","","","","","","","","","","",""
"","ITI","","html-keyboard-response","341","339091","0.0-1.0-468.0","0","0","12507","","null","","","null","51","","","","","","","","","","","","","","","NaN",""
"","S1","","html-keyboard-response","342","339347","0.0-1.0-470.0","0","0","12507","","null","","","null","52","","","","","","","","","","","","","","","",""
"","ISI","","html-keyboard-response","343","339502","0.0-1.0-471.0","0","0","12507","","null","","","null","52","NaN","","","","","","","","","","","","","","",""
"","S2","","html-keyboard-response","344","339759","0.0-1.0-472.0","0","0","12507","","null","","","null","52","","NaN","","","","","","","","","","","","","",""
"","response","","html-keyboard-response","345","341234","0.0-1.0-473.0-0.0","0","0","12507","","1471","","","75","52","","","2","52","training","adjacent","ED","5","4","M.jpg","Q.jpg","1","0","0","",""
"","feedback","","html-keyboard-response","346","342240","0.0-1.0-474.0-0.0","0","0","12507","","null","","","null","52","","","","","","","","","","","","","","","",""
"","time_out","","html-keyboard-response","347","344245","0.0-1.0-476.0-0.0","0","0","12507","","null","","","null","52","","","","","","","","","","","","","","","",""
"","ITI","","html-keyboard-response","348","345249","0.0-1.0-477.0","0","0","12507","","null","","","null","52","","","","","","","","","","","","","","","NaN",""
"","S1","","html-keyboard-response","349","345506","0.0-1.0-479.0","0","0","12507","","null","","","null","53","","","","","","","","","","","","","","","",""
"","ISI","","html-keyboard-response","350","345662","0.0-1.0-480.0","0","0","12507","","null","","","null","53","NaN","","","","","","","","","","","","","","",""
"","S2","","html-keyboard-response","351","345917","0.0-1.0-481.0","0","0","12507","","null","","","null","53","","NaN","","","","","","","","","","","","","",""
"","response","","html-keyboard-response","352","346784","0.0-1.0-482.0-0.0","0","0","12507","","862","","","75","53","","","2","53","training","adjacent","BA","2","1","R.jpg","L.jpg","1","0","0","",""
"","feedback","","html-keyboard-response","353","347791","0.0-1.0-483.0-0.0","0","0","12507","","null","","","null","53","","","","","","","","","","","","","","","",""
"","time_out","","html-keyboard-response","354","349796","0.0-1.0-485.0-0.0","0","0","12507","","null","","","null","53","","","","","","","","","","","","","","","",""
"","ITI","","html-keyboard-response","355","350802","0.0-1.0-486.0","0","0","12507","","null","","","null","53","","","","","","","","","","","","","","","NaN",""
"","S1","","html-keyboard-response","356","351057","0.0-1.0-488.0","0","0","12507","","null","","","null","54","","","","","","","","","","","","","","","",""
"","ISI","","html-keyboard-response","357","351212","0.0-1.0-489.0","0","0","12507","","null","","","null","54","NaN","","","","","","","","","","","","","","",""
"","S2","","html-keyboard-response","358","351468","0.0-1.0-490.0","0","0","12507","","null","","","null","54","","NaN","","","","","","","","","","","","","",""
"","response","","html-keyboard-response","359","352665","0.0-1.0-491.0-0.0","0","0","12507","","1192","","","68","54","","","2","54","training","adjacent","DC","4","3","Q.jpg","P.jpg","0","0","1","",""
"","feedback","","html-keyboard-response","360","353672","0.0-1.0-492.0-0.0","0","0","12507","","null","","","null","54","","","","","","","","","","","","","","","",""
"","ITI","","html-keyboard-response","361","354678","0.0-1.0-495.0","0","0","12507","","null","","","null","54","","","","","","","","","","","","","","","NaN",""
"","S1","","html-keyboard-response","362","354934","0.0-1.0-497.0","0","0","12507","","null","","","null","55","","","","","","","","","","","","","","","",""
"","ISI","","html-keyboard-response","363","355090","0.0-1.0-498.0","0","0","12507","","null","","","null","55","NaN","","","","","","","","","","","","","","",""
"","S2","","html-keyboard-response","364","355346","0.0-1.0-499.0","0","0","12507","","null","","","null","55","","NaN","","","","","","","","","","","","","",""
"","response","","html-keyboard-response","365","355972","0.0-1.0-500.0-0.0","0","0","12507","","621","","","75","55","","","2","55","training","adjacent","CD","3","4","P.jpg","Q.jpg","1","1","1","",""
"","feedback","","html-keyboard-response","366","356978","0.0-1.0-501.0-0.0","0","0","12507","","null","","","null","55","","","","","","","","","","","","","","","",""
"","ITI","","html-keyboard-response","367","357983","0.0-1.0-504.0","0","0","12507","","null","","","null","55","","","","","","","","","","","","","","","NaN",""
"","S1","","html-keyboard-response","368","358238","0.0-1.0-506.0","0","0","12507","","null","","","null","56","","","","","","","","","","","","","","","",""
"","ISI","","html-keyboard-response","369","358393","0.0-1.0-507.0","0","0","12507","","null","","","null","56","NaN","","","","","","","","","","","","","","",""
"","S2","","html-keyboard-response","370","358649","0.0-1.0-508.0","0","0","12507","","null","","","null","56","","NaN","","","","","","","","","","","","","",""
"","response","","html-keyboard-response","371","358984","0.0-1.0-509.0-0.0","0","0","12507","","330","","","75","56","","","2","56","training","adjacent","CB","3","2","P.jpg","R.jpg","1","0","0","",""
"","feedback","","html-keyboard-response","372","359991","0.0-1.0-510.0-0.0","0","0","12507","","null","","","null","56","","","","","","","","","","","","","","","",""
"","time_out","","html-keyboard-response","373","361997","0.0-1.0-512.0-0.0","0","0","12507","","null","","","null","56","","","","","","","","","","","","","","","",""
"","ITI","","html-keyboard-response","374","363001","0.0-1.0-513.0","0","0","12507","","null","","","null","56","","","","","","","","","","","","","","","NaN",""
"","S1","","html-keyboard-response","375","363257","0.0-1.0-515.0","0","0","12507","","null","","","null","57","","","","","","","","","","","","","","","",""
"","ISI","","html-keyboard-response","376","363412","0.0-1.0-516.0","0","0","12507","","null","","","null","57","NaN","","","","","","","","","","","","","","",""
"","S2","","html-keyboard-response","377","363667","0.0-1.0-517.0","0","0","12507","","null","","","null","57","","NaN","","","","","","","","","","","","","",""
"","response","","html-keyboard-response","378","364241","0.0-1.0-518.0-0.0","0","0","12507","","570","","","68","57","","","2","57","training","adjacent","DE","4","5","Q.jpg","M.jpg","0","1","0","",""
"","feedback","","html-keyboard-response","379","365248","0.0-1.0-519.0-0.0","0","0","12507","","null","","","null","57","","","","","","","","","","","","","","","",""
"","time_out","","html-keyboard-response","380","367254","0.0-1.0-521.0-0.0","0","0","12507","","null","","","null","57","","","","","","","","","","","","","","","",""
"","ITI","","html-keyboard-response","381","368259","0.0-1.0-522.0","0","0","12507","","null","","","null","57","","","","","","","","","","","","","","","NaN",""
"","S1","","html-keyboard-response","382","368515","0.0-1.0-524.0","0","0","12507","","null","","","null","58","","","","","","","","","","","","","","","",""
"","ISI","","html-keyboard-response","383","368670","0.0-1.0-525.0","0","0","12507","","null","","","null","58","NaN","","","","","","","","","","","","","","",""
"","S2","","html-keyboard-response","384","368926","0.0-1.0-526.0","0","0","12507","","null","","","null","58","","NaN","","","","","","","","","","","","","",""
"","response","","html-keyboard-response","385","369177","0.0-1.0-527.0-0.0","0","0","12507","","246","","","75","58","","","2","58","training","adjacent","AB","1","2","L.jpg","R.jpg","1","1","1","",""
"","feedback","","html-keyboard-response","386","370183","0.0-1.0-528.0-0.0","0","0","12507","","null","","","null","58","","","","","","","","","","","","","","","",""
"","ITI","","html-keyboard-response","387","371190","0.0-1.0-531.0","0","0","12507","","null","","","null","58","","","","","","","","","","","","","","","NaN",""
"","S1","","html-keyboard-response","388","371445","0.0-1.0-533.0","0","0","12507","","null","","","null","59","","","","","","","","","","","","","","","",""
"","ISI","","html-keyboard-response","389","371600","0.0-1.0-534.0","0","0","12507","","null","","","null","59","NaN","","","","","","","","","","","","","","",""
"","S2","","html-keyboard-response","390","371856","0.0-1.0-535.0","0","0","12507","","null","","","null","59","","NaN","","","","","","","","","","","","","",""
"","response","","html-keyboard-response","391","372600","0.0-1.0-536.0-0.0","0","0","12507","","740","","","75","59","","","2","59","training","adjacent","ED","5","4","M.jpg","Q.jpg","1","0","0","",""
"","feedback","","html-keyboard-response","392","373607","0.0-1.0-537.0-0.0","0","0","12507","","null","","","null","59","","","","","","","","","","","","","","","",""
"","time_out","","html-keyboard-response","393","375612","0.0-1.0-539.0-0.0","0","0","12507","","null","","","null","59","","","","","","","","","","","","","","","",""
"","ITI","","html-keyboard-response","394","376616","0.0-1.0-540.0","0","0","12507","","null","","","null","59","","","","","","","","","","","","","","","NaN",""
"","S1","","html-keyboard-response","395","376872","0.0-1.0-542.0","0","0","12507","","null","","","null","60","","","","","","","","","","","","","","","",""
"","ISI","","html-keyboard-response","396","377028","0.0-1.0-543.0","0","0","12507","","null","","","null","60","NaN","","","","","","","","","","","","","","",""
"","S2","","html-keyboard-response","397","377283","0.0-1.0-544.0","0","0","12507","","null","","","null","60","","NaN","","","","","","","","","","","","","",""
"","response","","html-keyboard-response","398","377697","0.0-1.0-545.0-0.0","0","0","12507","","408","","","75","60","","","2","60","training","adjacent","BC","2","3","R.jpg","P.jpg","1","1","1","",""
"","feedback","","html-keyboard-response","399","378703","0.0-1.0-546.0-0.0","0","0","12507","","null","","","null","60","","","","","","","","","","","","","","","",""
"","ITI","","html-keyboard-response","400","379709","0.0-1.0-549.0","0","0","12507","","null","","","null","60","","","","","","","","","","","","","","","NaN",""
"","S1","","html-keyboard-response","401","379964","0.0-1.0-551.0","0","0","12507","","null","","","null","61","","","","","","","","","","","","","","","",""
"","ISI","","html-keyboard-response","402","380118","0.0-1.0-552.0","0","0","12507","","null","","","null","61","NaN","","","","","","","","","","","","","","",""
"","S2","","html-keyboard-response","403","380374","0.0-1.0-553.0","0","0","12507","","null","","","null","61","","NaN","","","","","","","","","","","","","",""
"","response","","html-keyboard-response","404","381584","0.0-1.0-554.0-0.0","0","0","12507","","1206","","","75","61","","","2","61","training","adjacent","EF","5","6","M.jpg","N.jpg","1","1","1","",""
"","feedback","","html-keyboard-response","405","382591","0.0-1.0-555.0-0.0","0","0","12507","","null","","","null","61","","","","","","","","","","","","","","","",""
"","ITI","","html-keyboard-response","406","383596","0.0-1.0-558.0","0","0","12507","","null","","","null","61","","","","","","","","","","","","","","","NaN",""
"","S1","","html-keyboard-response","407","383852","0.0-1.0-560.0","0","0","12507","","null","","","null","62","","","","","","","","","","","","","","","",""
"","ISI","","html-keyboard-response","408","384007","0.0-1.0-561.0","0","0","12507","","null","","","null","62","NaN","","","","","","","","","","","","","","",""
"","S2","","html-keyboard-response","409","384263","0.0-1.0-562.0","0","0","12507","","null","","","null","62","","NaN","","","","","","","","","","","","","",""
"","response","","html-keyboard-response","410","384649","0.0-1.0-563.0-0.0","0","0","12507","","381","","","75","62","","","2","62","training","adjacent","FG","6","7","N.jpg","O.jpg","1","1","1","",""
"","feedback","","html-keyboard-response","411","385654","0.0-1.0-564.0-0.0","0","0","12507","","null","","","null","62","","","","","","","","","","","","","","","",""
"","ITI","","html-keyboard-response","412","386659","0.0-1.0-567.0","0","0","12507","","null","","","null","62","","","","","","","","","","","","","","","NaN",""
"","S1","","html-keyboard-response","413","386916","0.0-1.0-569.0","0","0","12507","","null","","","null","63","","","","","","","","","","","","","","","",""
"","ISI","","html-keyboard-response","414","387070","0.0-1.0-570.0","0","0","12507","","null","","","null","63","NaN","","","","","","","","","","","","","","",""
"","S2","","html-keyboard-response","415","387326","0.0-1.0-571.0","0","0","12507","","null","","","null","63","","NaN","","","","","","","","","","","","","",""
"","response","","html-keyboard-response","416","387507","0.0-1.0-572.0-0.0","0","0","12507","","176","","","75","63","","","2","63","training","adjacent","DC","4","3","Q.jpg","P.jpg","1","0","0","",""
"","feedback","","html-keyboard-response","417","388513","0.0-1.0-573.0-0.0","0","0","12507","","null","","","null","63","","","","","","","","","","","","","","","",""
"","time_out","","html-keyboard-response","418","390519","0.0-1.0-575.0-0.0","0","0","12507","","null","","","null","63","","","","","","","","","","","","","","","",""
"","ITI","","html-keyboard-response","419","391524","0.0-1.0-576.0","0","0","12507","","null","","","null","63","","","","","","","","","","","","","","","NaN",""
"","S1","","html-keyboard-response","420","391779","0.0-1.0-578.0","0","0","12507","","null","","","null","64","","","","","","","","","","","","","","","",""
"","ISI","","html-keyboard-response","421","391934","0.0-1.0-579.0","0","0","12507","","null","","","null","64","NaN","","","","","","","","","","","","","","",""
"","S2","","html-keyboard-response","422","392190","0.0-1.0-580.0","0","0","12507","","null","","","null","64","","NaN","","","","","","","","","","","","","",""
"","response","","html-keyboard-response","423","392833","0.0-1.0-581.0-0.0","0","0","12507","","638","","","68","64","","","2","64","training","adjacent","EF","5","6","M.jpg","N.jpg","0","1","0","",""
"","feedback","","html-keyboard-response","424","393838","0.0-1.0-582.0-0.0","0","0","12507","","null","","","null","64","","","","","","","","","","","","","","","",""
"","time_out","","html-keyboard-response","425","395845","0.0-1.0-584.0-0.0","0","0","12507","","null","","","null","64","","","","","","","","","","","","","","","",""
"","ITI","","html-keyboard-response","426","396850","0.0-1.0-585.0","0","0","12507","","null","","","null","64","","","","","","","","","","","","","","","NaN",""
"","S1","","html-keyboard-response","427","397105","0.0-1.0-587.0","0","0","12507","","null","","","null","65","","","","","","","","","","","","","","","",""
"","ISI","","html-keyboard-response","428","397260","0.0-1.0-588.0","0","0","12507","","null","","","null","65","NaN","","","","","","","","","","","","","","",""
"","S2","","html-keyboard-response","429","397516","0.0-1.0-589.0","0","0","12507","","null","","","null","65","","NaN","","","","","","","","","","","","","",""
"","response","","html-keyboard-response","430","397792","0.0-1.0-590.0-0.0","0","0","12507","","272","","","75","65","","","2","65","training","adjacent","BC","2","3","R.jpg","P.jpg","1","1","1","",""
"","feedback","","html-keyboard-response","431","398798","0.0-1.0-591.0-0.0","0","0","12507","","null","","","null","65","","","","","","","","","","","","","","","",""
"","ITI","","html-keyboard-response","432","399804","0.0-1.0-594.0","0","0","12507","","null","","","null","65","","","","","","","","","","","","","","","NaN",""
"","S1","","html-keyboard-response","433","400060","0.0-1.0-596.0","0","0","12507","","null","","","null","66","","","","","","","","","","","","","","","",""
"","ISI","","html-keyboard-response","434","400216","0.0-1.0-597.0","0","0","12507","","null","","","null","66","NaN","","","","","","","","","","","","","","",""
"","S2","","html-keyboard-response","435","400471","0.0-1.0-598.0","0","0","12507","","null","","","null","66","","NaN","","","","","","","","","","","","","",""
"","response","","html-keyboard-response","436","401057","0.0-1.0-599.0-0.0","0","0","12507","","581","","","75","66","","","2","66","training","adjacent","EF","5","6","M.jpg","N.jpg","1","1","1","",""
"","feedback","","html-keyboard-response","437","402062","0.0-1.0-600.0-0.0","0","0","12507","","null","","","null","66","","","","","","","","","","","","","","","",""
"","ITI","","html-keyboard-response","438","403068","0.0-1.0-603.0","0","0","12507","","null","","","null","66","","","","","","","","","","","","","","","NaN",""
"","S1","","html-keyboard-response","439","403323","0.0-1.0-605.0","0","0","12507","","null","","","null","67","","","","","","","","","","","","","","","",""
"","ISI","","html-keyboard-response","440","403478","0.0-1.0-606.0","0","0","12507","","null","","","null","67","NaN","","","","","","","","","","","","","","",""
"","S2","","html-keyboard-response","441","403733","0.0-1.0-607.0","0","0","12507","","null","","","null","67","","NaN","","","","","","","","","","","","","",""
"","response","","html-keyboard-response","442","404251","0.0-1.0-608.0-0.0","0","0","12507","","513","","","68","67","","","2","67","training","adjacent","ED","5","4","M.jpg","Q.jpg","0","0","1","",""
"","feedback","","html-keyboard-response","443","405257","0.0-1.0-609.0-0.0","0","0","12507","","null","","","null","67","","","","","","","","","","","","","","","",""
"","ITI","","html-keyboard-response","444","406262","0.0-1.0-612.0","0","0","12507","","null","","","null","67","","","","","","","","","","","","","","","NaN",""
"","S1","","html-keyboard-response","445","406518","0.0-1.0-614.0","0","0","12507","","null","","","null","68","","","","","","","","","","","","","","","",""
"","ISI","","html-keyboard-response","446","406674","0.0-1.0-615.0","0","0","12507","","null","","","null","68","NaN","","","","","","","","","","","","","","",""
"","S2","","html-keyboard-response","447","406929","0.0-1.0-616.0","0","0","12507","","null","","","null","68","","NaN","","","","","","","","","","","","","",""
"","response","","html-keyboard-response","448","407241","0.0-1.0-617.0-0.0","0","0","12507","","307","","","75","68","","","2","68","training","adjacent","BA","2","1","R.jpg","L.jpg","1","0","0","",""
"","feedback","","html-keyboard-response","449","408248","0.0-1.0-618.0-0.0","0","0","12507","","null","","","null","68","","","","","","","","","","","","","","","",""
"","time_out","","html-keyboard-response","450","410253","0.0-1.0-620.0-0.0","0","0","12507","","null","","","null","68","","","","","","","","","","","","","","","",""
"","ITI","","html-keyboard-response","451","411258","0.0-1.0-621.0","0","0","12507","","null","","","null","68","","","","","","","","","","","","","","","NaN",""
"","S1","","html-keyboard-response","452","411514","0.0-1.0-623.0","0","0","12507","","null","","","null","69","","","","","","","","","","","","","","","",""
"","ISI","","html-keyboard-response","453","411670","0.0-1.0-624.0","0","0","12507","","null","","","null","69","NaN","","","","","","","","","","","","","","",""
"","S2","","html-keyboard-response","454","411925","0.0-1.0-625.0","0","0","12507","","null","","","null","69","","NaN","","","","","","","","","","","","","",""
"","response","","html-keyboard-response","455","412689","0.0-1.0-626.0-0.0","0","0","12507","","759","","","75","69","","","2","69","training","adjacent","BA","2","1","R.jpg","L.jpg","1","0","0","",""
"","feedback","","html-keyboard-response","456","413695","0.0-1.0-627.0-0.0","0","0","12507","","null","","","null","69","","","","","","","","","","","","","","","",""
"","time_out","","html-keyboard-response","457","415701","0.0-1.0-629.0-0.0","0","0","12507","","null","","","null","69","","","","","","","","","","","","","","","",""
"","ITI","","html-keyboard-response","458","416705","0.0-1.0-630.0","0","0","12507","","null","","","null","69","","","","","","","","","","","","","","","NaN",""
"","S1","","html-keyboard-response","459","416960","0.0-1.0-632.0","0","0","12507","","null","","","null","70","","","","","","","","","","","","","","","",""
"","ISI","","html-keyboard-response","460","417115","0.0-1.0-633.0","0","0","12507","","null","","","null","70","NaN","","","","","","","","","","","","","","",""
"","S2","","html-keyboard-response","461","417371","0.0-1.0-634.0","0","0","12507","","null","","","null","70","","NaN","","","","","","","","","","","","","",""
"","response","","html-keyboard-response","462","419127","0.0-1.0-635.0-0.0","0","0","12507","","null","","","null","70","","","2","70","training","adjacent","DE","4","5","Q.jpg","M.jpg","NaN","1","0","",""
"","too_slow_prompt","","html-keyboard-response","463","420133","0.0-1.0-637.0-0.0","1","0","12507","","null","","","null","","","","","","","","","","","","","","","","",""
"","time_out","","html-keyboard-response","464","422138","0.0-1.0-638.0-0.0","0","0","12507","","null","","","null","70","","","","","","","","","","","","","","","",""
"","ITI","","html-keyboard-response","465","423143","0.0-1.0-639.0","0","0","12507","","null","","","null","70","","","","","","","","","","","","","","","NaN",""
"","S1","","html-keyboard-response","466","423398","0.0-1.0-641.0","0","0","12507","","null","","","null","71","","","","","","","","","","","","","","","",""
"","ISI","","html-keyboard-response","467","423554","0.0-1.0-642.0","0","0","12507","","null","","","null","71","NaN","","","","","","","","","","","","","","",""
"","S2","","html-keyboard-response","468","423809","0.0-1.0-643.0","0","0","12507","","null","","","null","71","","NaN","","","","","","","","","","","","","",""
"","response","","html-keyboard-response","469","424041","0.0-1.0-644.0-0.0","0","0","12507","","226","","","75","71","","","2","71","training","adjacent","DE","4","5","Q.jpg","M.jpg","1","1","1","",""
"","feedback","","html-keyboard-response","470","425048","0.0-1.0-645.0-0.0","0","0","12507","","null","","","null","71","","","","","","","","","","","","","","","",""
"","ITI","","html-keyboard-response","471","426053","0.0-1.0-648.0","0","0","12507","","null","","","null","71","","","","","","","","","","","","","","","NaN",""
"","S1","","html-keyboard-response","472","426310","0.0-1.0-650.0","0","0","12507","","null","","","null","72","","","","","","","","","","","","","","","",""
"","ISI","","html-keyboard-response","473","426464","0.0-1.0-651.0","0","0","12507","","null","","","null","72","NaN","","","","","","","","","","","","","","",""
"","S2","","html-keyboard-response","474","426720","0.0-1.0-652.0","0","0","12507","","null","","","null","72","","NaN","","","","","","","","","","","","","",""
"","response","","html-keyboard-response","475","427216","0.0-1.0-653.0-0.0","0","0","12507","","491","","","75","72","","","2","72","training","adjacent","DE","4","5","Q.jpg","M.jpg","1","1","1","",""
"","feedback","","html-keyboard-response","476","428224","0.0-1.0-654.0-0.0","0","0","12507","","null","","","null","72","","","","","","","","","","","","","","","",""
"","ITI","","html-keyboard-response","477","429230","0.0-1.0-657.0","0","0","12507","","null","","","null","72","","","","","","","","","","","","","","","NaN",""
"","S1","","html-keyboard-response","478","429485","0.0-1.0-659.0","0","0","12507","","null","","","null","73","","","","","","","","","","","","","","","",""
"","ISI","","html-keyboard-response","479","429640","0.0-1.0-660.0","0","0","12507","","null","","","null","73","NaN","","","","","","","","","","","","","","",""
"","S2","","html-keyboard-response","480","429896","0.0-1.0-661.0","0","0","12507","","null","","","null","73","","NaN","","","","","","","","","","","","","",""
"","response","","html-keyboard-response","481","430224","0.0-1.0-662.0-0.0","0","0","12507","","324","","","68","73","","","2","73","training","adjacent","GF","7","6","O.jpg","N.jpg","0","0","1","",""
"","feedback","","html-keyboard-response","482","431231","0.0-1.0-663.0-0.0","0","0","12507","","null","","","null","73","","","","","","","","","","","","","","","",""
"","ITI","","html-keyboard-response","483","432237","0.0-1.0-666.0","0","0","12507","","null","","","null","73","","","","","","","","","","","","","","","NaN",""
"","S1","","html-keyboard-response","484","432493","0.0-1.0-668.0","0","0","12507","","null","","","null","74","","","","","","","","","","","","","","","",""
"","ISI","","html-keyboard-response","485","432648","0.0-1.0-669.0","0","0","12507","","null","","","null","74","NaN","","","","","","","","","","","","","","",""
"","S2","","html-keyboard-response","486","432904","0.0-1.0-670.0","0","0","12507","","null","","","null","74","","NaN","","","","","","","","","","","","","",""
"","response","","html-keyboard-response","487","433272","0.0-1.0-671.0-0.0","0","0","12507","","363","","","75","74","","","2","74","training","adjacent","EF","5","6","M.jpg","N.jpg","1","1","1","",""
"","feedback","","html-keyboard-response","488","434278","0.0-1.0-672.0-0.0","0","0","12507","","null","","","null","74","","","","","","","","","","","","","","","",""
"","ITI","","html-keyboard-response","489","435284","0.0-1.0-675.0","0","0","12507","","null","","","null","74","","","","","","","","","","","","","","","NaN",""
"","S1","","html-keyboard-response","490","435540","0.0-1.0-677.0","0","0","12507","","null","","","null","75","","","","","","","","","","","","","","","",""
"","ISI","","html-keyboard-response","491","435695","0.0-1.0-678.0","0","0","12507","","null","","","null","75","NaN","","","","","","","","","","","","","","",""
"","S2","","html-keyboard-response","492","435950","0.0-1.0-679.0","0","0","12507","","null","","","null","75","","NaN","","","","","","","","","","","","","",""
"","response","","html-keyboard-response","493","436257","0.0-1.0-680.0-0.0","0","0","12507","","302","","","68","75","","","2","75","training","adjacent","AB","1","2","L.jpg","R.jpg","0","1","0","",""
"","feedback","","html-keyboard-response","494","437263","0.0-1.0-681.0-0.0","0","0","12507","","null","","","null","75","","","","","","","","","","","","","","","",""
"","time_out","","html-keyboard-response","495","439270","0.0-1.0-683.0-0.0","0","0","12507","","null","","","null","75","","","","","","","","","","","","","","","",""
"","ITI","","html-keyboard-response","496","440276","0.0-1.0-684.0","0","0","12507","","null","","","null","75","","","","","","","","","","","","","","","NaN",""
"","S1","","html-keyboard-response","497","440533","0.0-1.0-686.0","0","0","12507","","null","","","null","76","","","","","","","","","","","","","","","",""
"","ISI","","html-keyboard-response","498","440688","0.0-1.0-687.0","0","0","12507","","null","","","null","76","NaN","","","","","","","","","","","","","","",""
"","S2","","html-keyboard-response","499","440945","0.0-1.0-688.0","0","0","12507","","null","","","null","76","","NaN","","","","","","","","","","","","","",""
"","response","","html-keyboard-response","500","441321","0.0-1.0-689.0-0.0","0","0","12507","","369","","","75","76","","","2","76","training","adjacent","ED","5","4","M.jpg","Q.jpg","1","0","0","",""
"","feedback","","html-keyboard-response","501","442329","0.0-1.0-690.0-0.0","0","0","12507","","null","","","null","76","","","","","","","","","","","","","","","",""
"","time_out","","html-keyboard-response","502","444335","0.0-1.0-692.0-0.0","0","0","12507","","null","","","null","76","","","","","","","","","","","","","","","",""
"","ITI","","html-keyboard-response","503","445340","0.0-1.0-693.0","0","0","12507","","null","","","null","76","","","","","","","","","","","","","","","NaN",""
"","S1","","html-keyboard-response","504","445596","0.0-1.0-695.0","0","0","12507","","null","","","null","77","","","","","","","","","","","","","","","",""
"","ISI","","html-keyboard-response","505","445751","0.0-1.0-696.0","0","0","12507","","null","","","null","77","NaN","","","","","","","","","","","","","","",""
"","S2","","html-keyboard-response","506","446007","0.0-1.0-697.0","0","0","12507","","null","","","null","77","","NaN","","","","","","","","","","","","","",""
"","response","","html-keyboard-response","507","446362","0.0-1.0-698.0-0.0","0","0","12507","","350","","","68","77","","","2","77","training","adjacent","GF","7","6","O.jpg","N.jpg","0","0","1","",""
"","feedback","","html-keyboard-response","508","447369","0.0-1.0-699.0-0.0","0","0","12507","","null","","","null","77","","","","","","","","","","","","","","","",""
"","ITI","","html-keyboard-response","509","448375","0.0-1.0-702.0","0","0","12507","","null","","","null","77","","","","","","","","","","","","","","","NaN",""
"","S1","","html-keyboard-response","510","448631","0.0-1.0-704.0","0","0","12507","","null","","","null","78","","","","","","","","","","","","","","","",""
"","ISI","","html-keyboard-response","511","448786","0.0-1.0-705.0","0","0","12507","","null","","","null","78","NaN","","","","","","","","","","","","","","",""
"","S2","","html-keyboard-response","512","449041","0.0-1.0-706.0","0","0","12507","","null","","","null","78","","NaN","","","","","","","","","","","","","",""
"","response","","html-keyboard-response","513","449652","0.0-1.0-707.0-0.0","0","0","12507","","604","","","68","78","","","2","78","training","adjacent","CD","3","4","P.jpg","Q.jpg","0","1","0","",""
"","feedback","","html-keyboard-response","514","450658","0.0-1.0-708.0-0.0","0","0","12507","","null","","","null","78","","","","","","","","","","","","","","","",""
"","time_out","","html-keyboard-response","515","452663","0.0-1.0-710.0-0.0","0","0","12507","","null","","","null","78","","","","","","","","","","","","","","","",""
"","ITI","","html-keyboard-response","516","453668","0.0-1.0-711.0","0","0","12507","","null","","","null","78","","","","","","","","","","","","","","","NaN",""
"","S1","","html-keyboard-response","517","453923","0.0-1.0-713.0","0","0","12507","","null","","","null","79","","","","","","","","","","","","","","","",""
"","ISI","","html-keyboard-response","518","454078","0.0-1.0-714.0","0","0","12507","","null","","","null","79","NaN","","","","","","","","","","","","","","",""
"","S2","","html-keyboard-response","519","454333","0.0-1.0-715.0","0","0","12507","","null","","","null","79","","NaN","","","","","","","","","","","","","",""
"","response","","html-keyboard-response","520","454673","0.0-1.0-716.0-0.0","0","0","12507","","334","","","75","79","","","2","79","training","adjacent","BC","2","3","R.jpg","P.jpg","1","1","1","",""
"","feedback","","html-keyboard-response","521","455680","0.0-1.0-717.0-0.0","0","0","12507","","null","","","null","79","","","","","","","","","","","","","","","",""
"","ITI","","html-keyboard-response","522","456686","0.0-1.0-720.0","0","0","12507","","null","","","null","79","","","","","","","","","","","","","","","NaN",""
"","S1","","html-keyboard-response","523","456942","0.0-1.0-722.0","0","0","12507","","null","","","null","80","","","","","","","","","","","","","","","",""
"","ISI","","html-keyboard-response","524","457097","0.0-1.0-723.0","0","0","12507","","null","","","null","80","NaN","","","","","","","","","","","","","","",""
"","S2","","html-keyboard-response","525","457352","0.0-1.0-724.0","0","0","12507","","null","","","null","80","","NaN","","","","","","","","","","","","","",""
"","response","","html-keyboard-response","526","457713","0.0-1.0-725.0-0.0","0","0","12507","","356","","","75","80","","","2","80","training","adjacent","BC","2","3","R.jpg","P.jpg","1","1","1","",""
"","feedback","","html-keyboard-response","527","458719","0.0-1.0-726.0-0.0","0","0","12507","","null","","","null","80","","","","","","","","","","","","","","","",""
"","ITI","","html-keyboard-response","528","459724","0.0-1.0-729.0","0","0","12507","","null","","","null","80","","","","","","","","","","","","","","","NaN",""
"","S1","","html-keyboard-response","529","459980","0.0-1.0-731.0","0","0","12507","","null","","","null","81","","","","","","","","","","","","","","","",""
"","ISI","","html-keyboard-response","530","460135","0.0-1.0-732.0","0","0","12507","","null","","","null","81","NaN","","","","","","","","","","","","","","",""
"","S2","","html-keyboard-response","531","460390","0.0-1.0-733.0","0","0","12507","","null","","","null","81","","NaN","","","","","","","","","","","","","",""
"","response","","html-keyboard-response","532","460793","0.0-1.0-734.0-0.0","0","0","12507","","398","","","75","81","","","2","81","training","adjacent","AB","1","2","L.jpg","R.jpg","1","1","1","",""
"","feedback","","html-keyboard-response","533","461799","0.0-1.0-735.0-0.0","0","0","12507","","null","","","null","81","","","","","","","","","","","","","","","",""
"","ITI","","html-keyboard-response","534","462805","0.0-1.0-738.0","0","0","12507","","null","","","null","81","","","","","","","","","","","","","","","NaN",""
"","S1","","html-keyboard-response","535","463060","0.0-1.0-740.0","0","0","12507","","null","","","null","82","","","","","","","","","","","","","","","",""
"","ISI","","html-keyboard-response","536","463216","0.0-1.0-741.0","0","0","12507","","null","","","null","82","NaN","","","","","","","","","","","","","","",""
"","S2","","html-keyboard-response","537","463472","0.0-1.0-742.0","0","0","12507","","null","","","null","82","","NaN","","","","","","","","","","","","","",""
"","response","","html-keyboard-response","538","463713","0.0-1.0-743.0-0.0","0","0","12507","","236","","","75","82","","","2","82","training","adjacent","CB","3","2","P.jpg","R.jpg","1","0","0","",""
"","feedback","","html-keyboard-response","539","464719","0.0-1.0-744.0-0.0","0","0","12507","","null","","","null","82","","","","","","","","","","","","","","","",""
"","time_out","","html-keyboard-response","540","466724","0.0-1.0-746.0-0.0","0","0","12507","","null","","","null","82","","","","","","","","","","","","","","","",""
"","ITI","","html-keyboard-response","541","467729","0.0-1.0-747.0","0","0","12507","","null","","","null","82","","","","","","","","","","","","","","","NaN",""
"","S1","","html-keyboard-response","542","467984","0.0-1.0-749.0","0","0","12507","","null","","","null","83","","","","","","","","","","","","","","","",""
"","ISI","","html-keyboard-response","543","468139","0.0-1.0-750.0","0","0","12507","","null","","","null","83","NaN","","","","","","","","","","","","","","",""
"","S2","","html-keyboard-response","544","468395","0.0-1.0-751.0","0","0","12507","","null","","","null","83","","NaN","","","","","","","","","","","","","",""
"","response","","html-keyboard-response","545","469345","0.0-1.0-752.0-0.0","0","0","12507","","945","","","68","83","","","2","83","training","adjacent","DC","4","3","Q.jpg","P.jpg","0","0","1","",""
"","feedback","","html-keyboard-response","546","470350","0.0-1.0-753.0-0.0","0","0","12507","","null","","","null","83","","","","","","","","","","","","","","","",""
"","ITI","","html-keyboard-response","547","471356","0.0-1.0-756.0","0","0","12507","","null","","","null","83","","","","","","","","","","","","","","","NaN",""
"","S1","","html-keyboard-response","548","471612","0.0-1.0-758.0","0","0","12507","","null","","","null","84","","","","","","","","","","","","","","","",""
"","ISI","","html-keyboard-response","549","471768","0.0-1.0-759.0","0","0","12507","","null","","","null","84","NaN","","","","","","","","","","","","","","",""
"","S2","","html-keyboard-response","550","472024","0.0-1.0-760.0","0","0","12507","","null","","","null","84","","NaN","","","","","","","","","","","","","",""
"","response","","html-keyboard-response","551","472712","0.0-1.0-761.0-0.0","0","0","12507","","684","","","68","84","","","2","84","training","adjacent","GF","7","6","O.jpg","N.jpg","0","0","1","",""
"","feedback","","html-keyboard-response","552","473719","0.0-1.0-762.0-0.0","0","0","12507","","null","","","null","84","","","","","","","","","","","","","","","",""
"","ITI","","html-keyboard-response","553","474724","0.0-1.0-765.0","0","0","12507","","null","","","null","84","","","","","","","","","","","","","","","NaN",""
"","S1","","html-keyboard-response","554","474980","0.0-1.0-767.0","0","0","12507","","null","","","null","85","","","","","","","","","","","","","","","",""
"","ISI","","html-keyboard-response","555","475135","0.0-1.0-768.0","0","0","12507","","null","","","null","85","NaN","","","","","","","","","","","","","","",""
"","S2","","html-keyboard-response","556","475391","0.0-1.0-769.0","0","0","12507","","null","","","null","85","","NaN","","","","","","","","","","","","","",""
"","response","","html-keyboard-response","557","475880","0.0-1.0-770.0-0.0","0","0","12507","","484","","","68","85","","","2","85","training","adjacent","GF","7","6","O.jpg","N.jpg","0","0","1","",""
"","feedback","","html-keyboard-response","558","476886","0.0-1.0-771.0-0.0","0","0","12507","","null","","","null","85","","","","","","","","","","","","","","","",""
"","ITI","","html-keyboard-response","559","477892","0.0-1.0-774.0","0","0","12507","","null","","","null","85","","","","","","","","","","","","","","","NaN",""
"","S1","","html-keyboard-response","560","478147","0.0-1.0-776.0","0","0","12507","","null","","","null","86","","","","","","","","","","","","","","","",""
"","ISI","","html-keyboard-response","561","478302","0.0-1.0-777.0","0","0","12507","","null","","","null","86","NaN","","","","","","","","","","","","","","",""
"","S2","","html-keyboard-response","562","478558","0.0-1.0-778.0","0","0","12507","","null","","","null","86","","NaN","","","","","","","","","","","","","",""
"","response","","html-keyboard-response","563","479032","0.0-1.0-779.0-0.0","0","0","12507","","470","","","75","86","","","2","86","training","adjacent","FE","6","5","N.jpg","M.jpg","1","0","0","",""
"","feedback","","html-keyboard-response","564","480040","0.0-1.0-780.0-0.0","0","0","12507","","null","","","null","86","","","","","","","","","","","","","","","",""
"","time_out","","html-keyboard-response","565","482046","0.0-1.0-782.0-0.0","0","0","12507","","null","","","null","86","","","","","","","","","","","","","","","",""
"","ITI","","html-keyboard-response","566","483051","0.0-1.0-783.0","0","0","12507","","null","","","null","86","","","","","","","","","","","","","","","NaN",""
"","S1","","html-keyboard-response","567","483306","0.0-1.0-785.0","0","0","12507","","null","","","null","87","","","","","","","","","","","","","","","",""
"","ISI","","html-keyboard-response","568","483461","0.0-1.0-786.0","0","0","12507","","null","","","null","87","NaN","","","","","","","","","","","","","","",""
"","S2","","html-keyboard-response","569","483717","0.0-1.0-787.0","0","0","12507","","null","","","null","87","","NaN","","","","","","","","","","","","","",""
"","response","","html-keyboard-response","570","484625","0.0-1.0-788.0-0.0","0","0","12507","","903","","","68","87","","","2","87","training","adjacent","FE","6","5","N.jpg","M.jpg","0","0","1","",""
"","feedback","","html-keyboard-response","571","485630","0.0-1.0-789.0-0.0","0","0","12507","","null","","","null","87","","","","","","","","","","","","","","","",""
"","ITI","","html-keyboard-response","572","486636","0.0-1.0-792.0","0","0","12507","","null","","","null","87","","","","","","","","","","","","","","","NaN",""
"","S1","","html-keyboard-response","573","486892","0.0-1.0-794.0","0","0","12507","","null","","","null","88","","","","","","","","","","","","","","","",""
"","ISI","","html-keyboard-response","574","487047","0.0-1.0-795.0","0","0","12507","","null","","","null","88","NaN","","","","","","","","","","","","","","",""
"","S2","","html-keyboard-response","575","487303","0.0-1.0-796.0","0","0","12507","","null","","","null","88","","NaN","","","","","","","","","","","","","",""
"","response","","html-keyboard-response","576","488497","0.0-1.0-797.0-0.0","0","0","12507","","1189","","","68","88","","","2","88","training","adjacent","DC","4","3","Q.jpg","P.jpg","0","0","1","",""
"","feedback","","html-keyboard-response","577","489503","0.0-1.0-798.0-0.0","0","0","12507","","null","","","null","88","","","","","","","","","","","","","","","",""
"","ITI","","html-keyboard-response","578","490509","0.0-1.0-801.0","0","0","12507","","null","","","null","88","","","","","","","","","","","","","","","NaN",""
"","S1","","html-keyboard-response","579","490765","0.0-1.0-803.0","0","0","12507","","null","","","null","89","","","","","","","","","","","","","","","",""
"","ISI","","html-keyboard-response","580","490920","0.0-1.0-804.0","0","0","12507","","null","","","null","89","NaN","","","","","","","","","","","","","","",""
"","S2","","html-keyboard-response","581","491176","0.0-1.0-805.0","0","0","12507","","null","","","null","89","","NaN","","","","","","","","","","","","","",""
"","response","","html-keyboard-response","582","492074","0.0-1.0-806.0-0.0","0","0","12507","","892","","","75","89","","","2","89","training","adjacent","FG","6","7","N.jpg","O.jpg","1","1","1","",""
