"success","ttype","start_time","trial_type","trial_index","time_elapsed","internal_node_id","warning","missed_checkup","PID","view_history","rt","responses","repeat_instructions","key_press","index","keypress_isi","keypress_S2","block","trial_num","phase","group_type","pair_type","S1_stim","S2_stim","S1_img","S2_img","S1_chosen","S1_higher","accuracy","keypress_iti","total_bonus_tally"
"true","full_screen","d04152023hr0258","fullscreen","0","21110","0.0-0.0","0","0","97287","","","","","","","","","","","","","","","","","","","","","",""
"","instructions","","instructions","1","79776","0.0-1.0-0.0-0.0","0","0","97287","[{""page_index"":0,""viewing_time"":10644},{""page_index"":1,""viewing_time"":28278},{""page_index"":2,""viewing_time"":16620},{""page_index"":3,""viewing_time"":3118}]","58661","","","","","","","","","","","","","","","","","","","",""
"","comprehension_check","","survey-multi-choice","2","114502","0.0-1.0-0.0-1.0","0","0","97287","","34721","{""Q0"":""True"",""Q1"":""K"",""Q2"":""Once the second image appears and while the screen 'MAKE A CHOICE' is shown"",""Q3"":""Green mark"",""Q4"":""either D or K""}","0","","","","","","","","","","","","","","","","","",""
"","start_exp","","html-keyboard-response","3","117683","0.0-1.0-1.0","0","0","97287","","3177","","","32","","","","","","","","","","","","","","","","",""
"","S1","","html-keyboard-response","4","117943","0.0-1.0-2.0","0","0","97287","","null","","","null","0","","","","","","","","","","","","","","","",""
"","ISI","","html-keyboard-response","5","118949","0.0-1.0-3.0","0","0","97287","","null","","","null","0","NaN","","","","","","","","","","","","","","",""
"","S2","","html-keyboard-response","6","119216","0.0-1.0-4.0","0","0","97287","","null","","","null","0","","NaN","","","","","","","","","","","","","",""
"","response","","html-keyboard-response","7","120970","0.0-1.0-5.0-0.0","0","0","97287","","null","","","null","0","","","1","0","training","adjacent","CD","3","4","Q.jpg","R.jpg","NaN","1","0","",""
"","too_slow_prompt","","html-keyboard-response","8","121976","0.0-1.0-7.0-0.0","1","0","97287","","null","","","null","","","","","","","","","","","","","","","","",""
"","time_out","","html-keyboard-response","9","123985","0.0-1.0-8.0-0.0","0","0","97287","","null","","","null","0","","","","","","","","","","","","","","","",""
"","ITI","","html-keyboard-response","10","124992","0.0-1.0-9.0","0","0","97287","","null","","","null","0","","","","","","","","","","","","","","","NaN",""
"","S1","","html-keyboard-response","11","125245","0.0-1.0-11.0","0","0","97287","","null","","","null","1","","","","","","","","","","","","","","","",""
"","ISI","","html-keyboard-response","12","126253","0.0-1.0-12.0","0","0","97287","","null","","","null","1","NaN","","","","","","","","","","","","","","",""
"","S2","","html-keyboard-response","13","126513","0.0-1.0-13.0","0","0","97287","","null","","","null","1","","NaN","","","","","","","","","","","","","",""
"","response","","html-keyboard-response","14","126946","0.0-1.0-14.0-0.0","0","0","97287","","431","","","75","1","","","1","1","training","adjacent","GF","7","6","L.jpg","N.jpg","1","0","0","",""
"","feedback","","html-keyboard-response","15","127952","0.0-1.0-15.0-0.0","0","0","97287","","null","","","null","1","","","","","","","","","","","","","","","",""
"","time_out","","html-keyboard-response","16","129961","0.0-1.0-17.0-0.0","0","0","97287","","null","","","null","1","","","","","","","","","","","","","","","",""
"","ITI","","html-keyboard-response","17","130969","0.0-1.0-18.0","0","0","97287","","null","","","null","1","","","","","","","","","","","","","","","NaN",""
"","S1","","html-keyboard-response","18","131229","0.0-1.0-20.0","0","0","97287","","null","","","null","2","","","","","","","","","","","","","","","",""
"","ISI","","html-keyboard-response","19","132238","0.0-1.0-21.0","0","0","97287","","null","","","null","2","NaN","","","","","","","","","","","","","","",""
"","S2","","html-keyboard-response","20","132497","0.0-1.0-22.0","0","0","97287","","null","","","null","2","","NaN","","","","","","","","","","","","","",""
"","response","","html-keyboard-response","21","134255","0.0-1.0-23.0-0.0","0","0","97287","","null","","","null","2","","","1","2","training","adjacent","DC","4","3","R.jpg","Q.jpg","NaN","0","0","",""
"","too_slow_prompt","","html-keyboard-response","22","135273","0.0-1.0-25.0-0.0","1","0","97287","","null","","","null","","","","","","","","","","","","","","","","",""
"","time_out","","html-keyboard-response","23","137282","0.0-1.0-26.0-0.0","0","0","97287","","null","","","null","2","","","","","","","","","","","","","","","",""
"","ITI","","html-keyboard-response","24","138289","0.0-1.0-27.0","0","0","97287","","null","","","null","2","","","","","","","","","","","","","","","NaN",""
"","S1","","html-keyboard-response","25","138549","0.0-1.0-29.0","0","0","97287","","null","","","null","3","","","","","","","","","","","","","","","",""
"","ISI","","html-keyboard-response","26","139553","0.0-1.0-30.0","0","0","97287","","null","","","null","3","NaN","","","","","","","","","","","","","","",""
"","S2","","html-keyboard-response","27","139813","0.0-1.0-31.0","0","0","97287","","null","","","null","3","","NaN","","","","","","","","","","","","","",""
"","response","","html-keyboard-response","28","141578","0.0-1.0-32.0-0.0","0","0","97287","","null","","","null","3","","","1","3","training","adjacent","CB","3","2","Q.jpg","P.jpg","NaN","0","0","",""
"","too_slow_prompt","","html-keyboard-response","29","142590","0.0-1.0-34.0-0.0","1","0","97287","","null","","","null","","","","","","","","","","","","","","","","",""
"","time_out","","html-keyboard-response","30","144604","0.0-1.0-35.0-0.0","0","0","97287","","null","","","null","3","","","","","","","","","","","","","","","",""
"","ITI","","html-keyboard-response","31","145606","0.0-1.0-36.0","0","0","97287","","null","","","null","3","","","","","","","","","","","","","","","NaN",""
"","S1","","html-keyboard-response","32","145867","0.0-1.0-38.0","0","0","97287","","null","","","null","4","","","","","","","","","","","","","","","",""
"","ISI","","html-keyboard-response","33","146872","0.0-1.0-39.0","0","0","97287","","null","","","null","4","NaN","","","","","","","","","","","","","","",""
"","S2","","html-keyboard-response","34","147139","0.0-1.0-40.0","0","0","97287","","null","","","null","4","","NaN","","","","","","","","","","","","","",""
"","response","","html-keyboard-response","35","147207","0.0-1.0-41.0-0.0","0","0","97287","","66","","","75","4","","","1","4","training","adjacent","DC","4","3","R.jpg","Q.jpg","1","0","0","",""
"","feedback","","html-keyboard-response","36","148218","0.0-1.0-42.0-0.0","0","0","97287","","null","","","null","4","","","","","","","","","","","","","","","",""
"","time_out","","html-keyboard-response","37","150225","0.0-1.0-44.0-0.0","0","0","97287","","null","","","null","4","","","","","","","","","","","","","","","",""
"","ITI","","html-keyboard-response","38","151238","0.0-1.0-45.0","0","0","97287","","null","","","null","4","","","","","","","","","","","","","","","NaN",""
"","S1","","html-keyboard-response","39","151493","0.0-1.0-47.0","0","0","97287","","null","","","null","5","","","","","","","","","","","","","","","",""
"","ISI","","html-keyboard-response","40","152506","0.0-1.0-48.0","0","0","97287","","null","","","null","5","NaN","","","","","","","","","","","","","","",""
"","S2","","html-keyboard-response","41","152770","0.0-1.0-49.0","0","0","97287","","null","","","null","5","","NaN","","","","","","","","","","","","","",""
"","response","","html-keyboard-response","42","154526","0.0-1.0-50.0-0.0","0","0","97287","","null","","","null","5","","","1","5","training","adjacent","FE","6","5","N.jpg","M.jpg","NaN","0","0","",""
"","too_slow_prompt","","html-keyboard-response","43","155529","0.0-1.0-52.0-0.0","1","0","97287","","null","","","null","","","","","","","","","","","","","","","","",""
"","time_out","","html-keyboard-response","44","157534","0.0-1.0-53.0-0.0","0","0","97287","","null","","","null","5","","","","","","","","","","","","","","","",""
"","ITI","","html-keyboard-response","45","158543","0.0-1.0-54.0","0","0","97287","","null","","","null","5","","","","","","","","","","","","","","","NaN",""
"","S1","","html-keyboard-response","46","158805","0.0-1.0-56.0","0","0","97287","","null","","","null","6","","","","","","","","","","","","","","","",""
"","ISI","","html-keyboard-response","47","159807","0.0-1.0-57.0","0","0","97287","","null","","","null","6","NaN","","","","","","","","","","","","","","",""
"","S2","","html-keyboard-response","48","160027","0.0-1.0-58.0","0","0","97287","","218","","","75","6","","k","1","6","training","adjacent","BC","2","3","P.jpg","Q.jpg","1","1","1","",""
"","feedback","","html-keyboard-response","49","161045","0.0-1.0-60.0-0.0","0","0","97287","","null","","","null","6","","","","","","","","","","","","","","","",""
"","ITI","","html-keyboard-response","50","162048","0.0-1.0-63.0","0","0","97287","","null","","","null","6","","","","","","","","","","","","","","","NaN",""
"","S1","","html-keyboard-response","51","162302","0.0-1.0-65.0","0","0","97287","","null","","","null","7","","","","","","","","","","","","","","","",""
"","ISI","","html-keyboard-response","52","163311","0.0-1.0-66.0","0","0","97287","","null","","","null","7","NaN","","","","","","","","","","","","","","",""
"","S2","","html-keyboard-response","53","163566","0.0-1.0-67.0","0","0","97287","","null","","","null","7","","NaN","","","","","","","","","","","","","",""
"","response","","html-keyboard-response","54","165334","0.0-1.0-68.0-0.0","0","0","97287","","null","","","null","7","","","1","7","training","adjacent","GF","7","6","L.jpg","N.jpg","NaN","0","0","",""
"","too_slow_prompt","","html-keyboard-response","55","166343","0.0-1.0-70.0-0.0","1","0","97287","","null","","","null","","","","","","","","","","","","","","","","",""
"","time_out","","html-keyboard-response","56","168353","0.0-1.0-71.0-0.0","0","0","97287","","null","","","null","7","","","","","","","","","","","","","","","",""
"","ITI","","html-keyboard-response","57","169359","0.0-1.0-72.0","0","0","97287","","null","","","null","7","","","","","","","","","","","","","","","NaN",""
"","S1","","html-keyboard-response","58","169614","0.0-1.0-74.0","0","0","97287","","null","","","null","8","","","","","","","","","","","","","","","",""
"","ISI","","html-keyboard-response","59","170619","0.0-1.0-75.0","0","0","97287","","null","","","null","8","NaN","","","","","","","","","","","","","","",""
"","S2","","html-keyboard-response","60","170885","0.0-1.0-76.0","0","0","97287","","null","","","null","8","","NaN","","","","","","","","","","","","","",""
"","response","","html-keyboard-response","61","171085","0.0-1.0-77.0-0.0","0","0","97287","","197","","","75","8","","","1","8","training","adjacent","CD","3","4","Q.jpg","R.jpg","1","1","1","",""
"","feedback","","html-keyboard-response","62","172096","0.0-1.0-78.0-0.0","0","0","97287","","null","","","null","8","","","","","","","","","","","","","","","",""
"","ITI","","html-keyboard-response","63","173105","0.0-1.0-81.0","0","0","97287","","null","","","null","8","","","","","","","","","","","","","","","NaN",""
"","S1","","html-keyboard-response","64","173363","0.0-1.0-83.0","0","0","97287","","null","","","null","9","","","","","","","","","","","","","","","",""
"","ISI","","html-keyboard-response","65","174370","0.0-1.0-84.0","0","0","97287","","null","","","null","9","NaN","","","","","","","","","","","","","","",""
"","S2","","html-keyboard-response","66","174635","0.0-1.0-85.0","0","0","97287","","null","","","null","9","","NaN","","","","","","","","","","","","","",""
"","response","","html-keyboard-response","67","175009","0.0-1.0-86.0-0.0","0","0","97287","","371","","","75","9","","","1","9","training","adjacent","DE","4","5","R.jpg","M.jpg","1","1","1","",""
"","feedback","","html-keyboard-response","68","176015","0.0-1.0-87.0-0.0","0","0","97287","","null","","","null","9","","","","","","","","","","","","","","","",""
"","ITI","","html-keyboard-response","69","177020","0.0-1.0-90.0","0","0","97287","","null","","","null","9","","","","","","","","","","","","","","","NaN",""
"","S1","","html-keyboard-response","70","177277","0.0-1.0-92.0","0","0","97287","","null","","","null","10","","","","","","","","","","","","","","","",""
"","ISI","","html-keyboard-response","71","178290","0.0-1.0-93.0","0","0","97287","","null","","","null","10","NaN","","","","","","","","","","","","","","",""
"","S2","","html-keyboard-response","72","178557","0.0-1.0-94.0","0","0","97287","","null","","","null","10","","NaN","","","","","","","","","","","","","",""
"","response","","html-keyboard-response","73","178910","0.0-1.0-95.0-0.0","0","0","97287","","350","","","75","10","","","1","10","training","adjacent","BA","2","1","P.jpg","O.jpg","1","0","0","",""
"","feedback","","html-keyboard-response","74","179919","0.0-1.0-96.0-0.0","0","0","97287","","null","","","null","10","","","","","","","","","","","","","","","",""
"","time_out","","html-keyboard-response","75","181930","0.0-1.0-98.0-0.0","0","0","97287","","null","","","null","10","","","","","","","","","","","","","","","",""
"","ITI","","html-keyboard-response","76","182942","0.0-1.0-99.0","0","0","97287","","null","","","null","10","","","","","","","","","","","","","","","NaN",""
"","S1","","html-keyboard-response","77","183199","0.0-1.0-101.0","0","0","97287","","null","","","null","11","","","","","","","","","","","","","","","",""
"","ISI","","html-keyboard-response","78","184209","0.0-1.0-102.0","0","0","97287","","null","","","null","11","NaN","","","","","","","","","","","","","","",""
"","S2","","html-keyboard-response","79","184473","0.0-1.0-103.0","0","0","97287","","null","","","null","11","","NaN","","","","","","","","","","","","","",""
"","response","","html-keyboard-response","80","186227","0.0-1.0-104.0-0.0","0","0","97287","","null","","","null","11","","","1","11","training","adjacent","ED","5","4","M.jpg","R.jpg","NaN","0","0","",""
"","too_slow_prompt","","html-keyboard-response","81","187239","0.0-1.0-106.0-0.0","1","0","97287","","null","","","null","","","","","","","","","","","","","","","","",""
"","time_out","","html-keyboard-response","82","189250","0.0-1.0-107.0-0.0","0","0","97287","","null","","","null","11","","","","","","","","","","","","","","","",""
"","ITI","","html-keyboard-response","83","190258","0.0-1.0-108.0","0","0","97287","","null","","","null","11","","","","","","","","","","","","","","","NaN",""
"","S1","","html-keyboard-response","84","190515","0.0-1.0-110.0","0","0","97287","","null","","","null","12","","","","","","","","","","","","","","","",""
"","ISI","","html-keyboard-response","85","191519","0.0-1.0-111.0","0","0","97287","","null","","","null","12","NaN","","","","","","","","","","","","","","",""
"","S2","","html-keyboard-response","86","191785","0.0-1.0-112.0","0","0","97287","","null","","","null","12","","NaN","","","","","","","","","","","","","",""
"","response","","html-keyboard-response","87","192009","0.0-1.0-113.0-0.0","0","0","97287","","221","","","68","12","","","1","12","training","adjacent","FE","6","5","N.jpg","M.jpg","0","0","1","",""
"","feedback","","html-keyboard-response","88","193017","0.0-1.0-114.0-0.0","0","0","97287","","null","","","null","12","","","","","","","","","","","","","","","",""
"","ITI","","html-keyboard-response","89","194023","0.0-1.0-117.0","0","0","97287","","null","","","null","12","","","","","","","","","","","","","","","NaN",""
"","S1","","html-keyboard-response","90","194280","0.0-1.0-119.0","0","0","97287","","null","","","null","13","","","","","","","","","","","","","","","",""
"","ISI","","html-keyboard-response","91","195294","0.0-1.0-120.0","0","0","97287","","null","","","null","13","NaN","","","","","","","","","","","","","","",""
"","S2","","html-keyboard-response","92","195554","0.0-1.0-121.0","0","0","97287","","null","","","null","13","","NaN","","","","","","","","","","","","","",""
"","response","","html-keyboard-response","93","195634","0.0-1.0-122.0-0.0","0","0","97287","","77","","","68","13","","","1","13","training","adjacent","FE","6","5","N.jpg","M.jpg","0","0","1","",""
"","feedback","","html-keyboard-response","94","196639","0.0-1.0-123.0-0.0","0","0","97287","","null","","","null","13","","","","","","","","","","","","","","","",""
"","ITI","","html-keyboard-response","95","197647","0.0-1.0-126.0","0","0","97287","","null","","","null","13","","","","","","","","","","","","","","","NaN",""
"","S1","","html-keyboard-response","96","197916","0.0-1.0-128.0","0","0","97287","","null","","","null","14","","","","","","","","","","","","","","","",""
"","ISI","","html-keyboard-response","97","198927","0.0-1.0-129.0","0","0","97287","","null","","","null","14","NaN","","","","","","","","","","","","","","",""
"","S2","","html-keyboard-response","98","199185","0.0-1.0-130.0","0","0","97287","","null","","","null","14","","NaN","","","","","","","","","","","","","",""
"","response","","html-keyboard-response","99","199202","0.0-1.0-131.0-0.0","0","0","97287","","13","","","75","14","","","1","14","training","adjacent","BA","2","1","P.jpg","O.jpg","1","0","0","",""
"","feedback","","html-keyboard-response","100","200211","0.0-1.0-132.0-0.0","0","0","97287","","null","","","null","14","","","","","","","","","","","","","","","",""
"","time_out","","html-keyboard-response","101","202219","0.0-1.0-134.0-0.0","0","0","97287","","null","","","null","14","","","","","","","","","","","","","","","",""
"","ITI","","html-keyboard-response","102","203223","0.0-1.0-135.0","0","0","97287","","null","","","null","14","","","","","","","","","","","","","","","NaN",""
"","S1","","html-keyboard-response","103","203485","0.0-1.0-137.0","0","0","97287","","null","","","null","15","","","","","","","","","","","","","","","",""
"","ISI","","html-keyboard-response","104","204491","0.0-1.0-138.0","0","0","97287","","null","","","null","15","NaN","","","","","","","","","","","","","","",""
"","S2","","html-keyboard-response","105","204758","0.0-1.0-139.0","0","0","97287","","null","","","null","15","","NaN","","","","","","","","","","","","","",""
"","response","","html-keyboard-response","106","205066","0.0-1.0-140.0-0.0","0","0","97287","","306","","","68","15","","","1","15","training","adjacent","BC","2","3","P.jpg","Q.jpg","0","1","0","",""
"","feedback","","html-keyboard-response","107","206071","0.0-1.0-141.0-0.0","0","0","97287","","null","","","null","15","","","","","","","","","","","","","","","",""
"","time_out","","html-keyboard-response","108","208081","0.0-1.0-143.0-0.0","0","0","97287","","null","","","null","15","","","","","","","","","","","","","","","",""
"","ITI","","html-keyboard-response","109","209099","0.0-1.0-144.0","0","0","97287","","null","","","null","15","","","","","","","","","","","","","","","NaN",""
"","S1","","html-keyboard-response","110","209356","0.0-1.0-146.0","0","0","97287","","null","","","null","16","","","","","","","","","","","","","","","",""
"","ISI","","html-keyboard-response","111","210371","0.0-1.0-147.0","0","0","97287","","null","","","null","16","NaN","","","","","","","","","","","","","","",""
"","S2","","html-keyboard-response","112","210625","0.0-1.0-148.0","0","0","97287","","null","","","null","16","","NaN","","","","","","","","","","","","","",""
"","response","","html-keyboard-response","113","210802","0.0-1.0-149.0-0.0","0","0","97287","","175","","","75","16","","","1","16","training","adjacent","ED","5","4","M.jpg","R.jpg","1","0","0","",""
"","feedback","","html-keyboard-response","114","211806","0.0-1.0-150.0-0.0","0","0","97287","","null","","","null","16","","","","","","","","","","","","","","","",""
"","time_out","","html-keyboard-response","115","213816","0.0-1.0-152.0-0.0","0","0","97287","","null","","","null","16","","","","","","","","","","","","","","","",""
"","ITI","","html-keyboard-response","116","214824","0.0-1.0-153.0","0","0","97287","","92","","","68","16","","","","","","","","","","","","","","","d",""
"","S1","","html-keyboard-response","117","215092","0.0-1.0-155.0","0","0","97287","","null","","","null","17","","","","","","","","","","","","","","","",""
"","ISI","","html-keyboard-response","118","216096","0.0-1.0-156.0","0","0","97287","","null","","","null","17","NaN","","","","","","","","","","","","","","",""
"","S2","","html-keyboard-response","119","216356","0.0-1.0-157.0","0","0","97287","","null","","","null","17","","NaN","","","","","","","","","","","","","",""
"","response","","html-keyboard-response","120","216887","0.0-1.0-158.0-0.0","0","0","97287","","529","","","68","17","","","1","17","training","adjacent","BC","2","3","P.jpg","Q.jpg","0","1","0","",""
"","feedback","","html-keyboard-response","121","217897","0.0-1.0-159.0-0.0","0","0","97287","","null","","","null","17","","","","","","","","","","","","","","","",""
"","time_out","","html-keyboard-response","122","219903","0.0-1.0-161.0-0.0","0","0","97287","","null","","","null","17","","","","","","","","","","","","","","","",""
"","ITI","","html-keyboard-response","123","220911","0.0-1.0-162.0","0","0","97287","","null","","","null","17","","","","","","","","","","","","","","","NaN",""
"","S1","","html-keyboard-response","124","221166","0.0-1.0-164.0","0","0","97287","","null","","","null","18","","","","","","","","","","","","","","","",""
"","ISI","","html-keyboard-response","125","222180","0.0-1.0-165.0","0","0","97287","","null","","","null","18","NaN","","","","","","","","","","","","","","",""
"","S2","","html-keyboard-response","126","222441","0.0-1.0-166.0","0","0","97287","","null","","","null","18","","NaN","","","","","","","","","","","","","",""
"","response","","html-keyboard-response","127","222617","0.0-1.0-167.0-0.0","0","0","97287","","174","","","75","18","","","1","18","training","adjacent","BA","2","1","P.jpg","O.jpg","1","0","0","",""
"","feedback","","html-keyboard-response","128","223626","0.0-1.0-168.0-0.0","0","0","97287","","null","","","null","18","","","","","","","","","","","","","","","",""
"","time_out","","html-keyboard-response","129","225635","0.0-1.0-170.0-0.0","0","0","97287","","null","","","null","18","","","","","","","","","","","","","","","",""
"","ITI","","html-keyboard-response","130","226642","0.0-1.0-171.0","0","0","97287","","null","","","null","18","","","","","","","","","","","","","","","NaN",""
"","S1","","html-keyboard-response","131","226901","0.0-1.0-173.0","0","0","97287","","null","","","null","19","","","","","","","","","","","","","","","",""
"","ISI","","html-keyboard-response","132","227905","0.0-1.0-174.0","0","0","97287","","null","","","null","19","NaN","","","","","","","","","","","","","","",""
"","S2","","html-keyboard-response","133","228164","0.0-1.0-175.0","0","0","97287","","null","","","null","19","","NaN","","","","","","","","","","","","","",""
"","response","","html-keyboard-response","134","228267","0.0-1.0-176.0-0.0","0","0","97287","","100","","","68","19","","","1","19","training","adjacent","FG","6","7","N.jpg","L.jpg","0","1","0","",""
"","feedback","","html-keyboard-response","135","229275","0.0-1.0-177.0-0.0","0","0","97287","","null","","","null","19","","","","","","","","","","","","","","","",""
"","time_out","","html-keyboard-response","136","231288","0.0-1.0-179.0-0.0","0","0","97287","","null","","","null","19","","","","","","","","","","","","","","","",""
"","ITI","","html-keyboard-response","137","232294","0.0-1.0-180.0","0","0","97287","","null","","","null","19","","","","","","","","","","","","","","","NaN",""
"","S1","","html-keyboard-response","138","232558","0.0-1.0-182.0","0","0","97287","","null","","","null","20","","","","","","","","","","","","","","","",""
"","ISI","","html-keyboard-response","139","233569","0.0-1.0-183.0","0","0","97287","","null","","","null","20","NaN","","","","","","","","","","","","","","",""
"","S2","","html-keyboard-response","140","233801","0.0-1.0-184.0","0","0","97287","","231","","","75","20","","k","1","20","training","adjacent","FE","6","5","N.jpg","M.jpg","1","0","0","",""
"","feedback","","html-keyboard-response","141","234819","0.0-1.0-186.0-0.0","0","0","97287","","null","","","null","20","","","","","","","","","","","","","","","",""
"","time_out","","html-keyboard-response","142","236830","0.0-1.0-188.0-0.0","0","0","97287","","null","","","null","20","","","","","","","","","","","","","","","",""
"","ITI","","html-keyboard-response","143","237840","0.0-1.0-189.0","0","0","97287","","null","","","null","20","","","","","","","","","","","","","","","NaN",""
"","S1","","html-keyboard-response","144","238107","0.0-1.0-191.0","0","0","97287","","null","","","null","21","","","","","","","","","","","","","","","",""
"","ISI","","html-keyboard-response","145","239116","0.0-1.0-192.0","0","0","97287","","5","","","68","21","d","","","","","","","","","","","","","","",""
"","S2","","html-keyboard-response","146","239371","0.0-1.0-193.0","0","0","97287","","null","","","null","21","","NaN","","","","","","","","","","","","","",""
"","response","","html-keyboard-response","147","239745","0.0-1.0-194.0-0.0","0","0","97287","","370","","","68","21","","","1","21","training","adjacent","DE","4","5","R.jpg","M.jpg","0","1","0","",""
"","feedback","","html-keyboard-response","148","240757","0.0-1.0-195.0-0.0","0","0","97287","","null","","","null","21","","","","","","","","","","","","","","","",""
"","time_out","","html-keyboard-response","149","242769","0.0-1.0-197.0-0.0","0","0","97287","","null","","","null","21","","","","","","","","","","","","","","","",""
"","ITI","","html-keyboard-response","150","243779","0.0-1.0-198.0","0","0","97287","","null","","","null","21","","","","","","","","","","","","","","","NaN",""
"","S1","","html-keyboard-response","151","244035","0.0-1.0-200.0","0","0","97287","","null","","","null","22","","","","","","","","","","","","","","","",""
"","ISI","","html-keyboard-response","152","245043","0.0-1.0-201.0","0","0","97287","","null","","","null","22","NaN","","","","","","","","","","","","","","",""
"","S2","","html-keyboard-response","153","245314","0.0-1.0-202.0","0","0","97287","","null","","","null","22","","NaN","","","","","","","","","","","","","",""
"","response","","html-keyboard-response","154","245378","0.0-1.0-203.0-0.0","0","0","97287","","62","","","68","22","","","1","22","training","adjacent","AB","1","2","O.jpg","P.jpg","0","1","0","",""
"","feedback","","html-keyboard-response","155","246387","0.0-1.0-204.0-0.0","0","0","97287","","null","","","null","22","","","","","","","","","","","","","","","",""
"","time_out","","html-keyboard-response","156","248394","0.0-1.0-206.0-0.0","0","0","97287","","null","","","null","22","","","","","","","","","","","","","","","",""
"","ITI","","html-keyboard-response","157","249402","0.0-1.0-207.0","0","0","97287","","null","","","null","22","","","","","","","","","","","","","","","NaN",""
"","S1","","html-keyboard-response","158","249672","0.0-1.0-209.0","0","0","97287","","null","","","null","23","","","","","","","","","","","","","","","",""
"","ISI","","html-keyboard-response","159","250675","0.0-1.0-210.0","0","0","97287","","null","","","null","23","NaN","","","","","","","","","","","","","","",""
"","S2","","html-keyboard-response","160","250938","0.0-1.0-211.0","0","0","97287","","null","","","null","23","","NaN","","","","","","","","","","","","","",""
"","response","","html-keyboard-response","161","251177","0.0-1.0-212.0-0.0","0","0","97287","","237","","","75","23","","","1","23","training","adjacent","FG","6","7","N.jpg","L.jpg","1","1","1","",""
"","feedback","","html-keyboard-response","162","252184","0.0-1.0-213.0-0.0","0","0","97287","","null","","","null","23","","","","","","","","","","","","","","","",""
"","ITI","","html-keyboard-response","163","253188","0.0-1.0-216.0","0","0","97287","","null","","","null","23","","","","","","","","","","","","","","","NaN",""
"","S1","","html-keyboard-response","164","253448","0.0-1.0-218.0","0","0","97287","","null","","","null","24","","","","","","","","","","","","","","","",""
"","ISI","","html-keyboard-response","165","254456","0.0-1.0-219.0","0","0","97287","","null","","","null","24","NaN","","","","","","","","","","","","","","",""
"","S2","","html-keyboard-response","166","254715","0.0-1.0-220.0","0","0","97287","","null","","","null","24","","NaN","","","","","","","","","","","","","",""
"","response","","html-keyboard-response","167","255115","0.0-1.0-221.0-0.0","0","0","97287","","395","","","75","24","","","1","24","training","adjacent","BC","2","3","P.jpg","Q.jpg","1","1","1","",""
"","feedback","","html-keyboard-response","168","256136","0.0-1.0-222.0-0.0","0","0","97287","","null","","","null","24","","","","","","","","","","","","","","","",""
"","ITI","","html-keyboard-response","169","257143","0.0-1.0-225.0","0","0","97287","","null","","","null","24","","","","","","","","","","","","","","","NaN",""
"","S1","","html-keyboard-response","170","257402","0.0-1.0-227.0","0","0","97287","","null","","","null","25","","","","","","","","","","","","","","","",""
"","ISI","","html-keyboard-response","171","258416","0.0-1.0-228.0","0","0","97287","","null","","","null","25","NaN","","","","","","","","","","","","","","",""
"","S2","","html-keyboard-response","172","258673","0.0-1.0-229.0","0","0","97287","","null","","","null","25","","NaN","","","","","","","","","","","","","",""
"","response","","html-keyboard-response","173","258937","0.0-1.0-230.0-0.0","0","0","97287","","262","","","75","25","","","1","25","training","adjacent","ED","5","4","M.jpg","R.jpg","1","0","0","",""
"","feedback","","html-keyboard-response","174","259941","0.0-1.0-231.0-0.0","0","0","97287","","null","","","null","25","","","","","","","","","","","","","","","",""
"","time_out","","html-keyboard-response","175","261952","0.0-1.0-233.0-0.0","0","0","97287","","null","","","null","25","","","","","","","","","","","","","","","",""
"","ITI","","html-keyboard-response","176","262969","0.0-1.0-234.0","0","0","97287","","null","","","null","25","","","","","","","","","","","","","","","NaN",""
"","S1","","html-keyboard-response","177","263229","0.0-1.0-236.0","0","0","97287","","null","","","null","26","","","","","","","","","","","","","","","",""
"","ISI","","html-keyboard-response","178","264239","0.0-1.0-237.0","0","0","97287","","82","","","68","26","d","","","","","","","","","","","","","","",""
"","S2","","html-keyboard-response","179","264497","0.0-1.0-238.0","0","0","97287","","null","","","null","26","","NaN","","","","","","","","","","","","","",""
"","response","","html-keyboard-response","180","264788","0.0-1.0-239.0-0.0","0","0","97287","","287","","","68","26","","","1","26","training","adjacent","AB","1","2","O.jpg","P.jpg","0","1","0","",""
"","feedback","","html-keyboard-response","181","265798","0.0-1.0-240.0-0.0","0","0","97287","","null","","","null","26","","","","","","","","","","","","","","","",""
"","time_out","","html-keyboard-response","182","267801","0.0-1.0-242.0-0.0","0","0","97287","","null","","","null","26","","","","","","","","","","","","","","","",""
"","ITI","","html-keyboard-response","183","268811","0.0-1.0-243.0","0","0","97287","","null","","","null","26","","","","","","","","","","","","","","","NaN",""
"","S1","","html-keyboard-response","184","269071","0.0-1.0-245.0","0","0","97287","","null","","","null","27","","","","","","","","","","","","","","","",""
"","ISI","","html-keyboard-response","185","270084","0.0-1.0-246.0","0","0","97287","","null","","","null","27","NaN","","","","","","","","","","","","","","",""
"","S2","","html-keyboard-response","186","270341","0.0-1.0-247.0","0","0","97287","","null","","","null","27","","NaN","","","","","","","","","","","","","",""
"","response","","html-keyboard-response","187","270465","0.0-1.0-248.0-0.0","0","0","97287","","122","","","68","27","","","1","27","training","adjacent","BA","2","1","P.jpg","O.jpg","0","0","1","",""
"","feedback","","html-keyboard-response","188","271477","0.0-1.0-249.0-0.0","0","0","97287","","null","","","null","27","","","","","","","","","","","","","","","",""
"","ITI","","html-keyboard-response","189","272489","0.0-1.0-252.0","0","0","97287","","null","","","null","27","","","","","","","","","","","","","","","NaN",""
"","S1","","html-keyboard-response","190","272745","0.0-1.0-254.0","0","0","97287","","null","","","null","28","","","","","","","","","","","","","","","",""
"","ISI","","html-keyboard-response","191","273758","0.0-1.0-255.0","0","0","97287","","null","","","null","28","NaN","","","","","","","","","","","","","","",""
"","S2","","html-keyboard-response","192","274017","0.0-1.0-256.0","0","0","97287","","null","","","null","28","","NaN","","","","","","","","","","","","","",""
"","response","","html-keyboard-response","193","274098","0.0-1.0-257.0-0.0","0","0","97287","","77","","","68","28","","","1","28","training","adjacent","GF","7","6","L.jpg","N.jpg","0","0","1","",""
"","feedback","","html-keyboard-response","194","275106","0.0-1.0-258.0-0.0","0","0","97287","","null","","","null","28","","","","","","","","","","","","","","","",""
"","ITI","","html-keyboard-response","195","276112","0.0-1.0-261.0","0","0","97287","","null","","","null","28","","","","","","","","","","","","","","","NaN",""
"","S1","","html-keyboard-response","196","276372","0.0-1.0-263.0","0","0","97287","","null","","","null","29","","","","","","","","","","","","","","","",""
"","ISI","","html-keyboard-response","197","277376","0.0-1.0-264.0","0","0","97287","","null","","","null","29","NaN","","","","","","","","","","","","","","",""
"","S2","","html-keyboard-response","198","277632","0.0-1.0-265.0","0","0","97287","","null","","","null","29","","NaN","","","","","","","","","","","","","",""
"","response","","html-keyboard-response","199","277885","0.0-1.0-266.0-0.0","0","0","97287","","252","","","75","29","","","1","29","training","adjacent","ED","5","4","M.jpg","R.jpg","1","0","0","",""
"","feedback","","html-keyboard-response","200","278896","0.0-1.0-267.0-0.0","0","0","97287","","null","","","null","29","","","","","","","","","","","","","","","",""
"","time_out","","html-keyboard-response","201","280908","0.0-1.0-269.0-0.0","0","0","97287","","null","","","null","29","","","","","","","","","","","","","","","",""
"","ITI","","html-keyboard-response","202","281921","0.0-1.0-270.0","0","0","97287","","null","","","null","29","","","","","","","","","","","","","","","NaN",""
"","S1","","html-keyboard-response","203","282187","0.0-1.0-272.0","0","0","97287","","null","","","null","30","","","","","","","","","","","","","","","",""
"","ISI","","html-keyboard-response","204","283203","0.0-1.0-273.0","0","0","97287","","null","","","null","30","NaN","","","","","","","","","","","","","","",""
"","S2","","html-keyboard-response","205","283468","0.0-1.0-274.0","0","0","97287","","null","","","null","30","","NaN","","","","","","","","","","","","","",""
"","response","","html-keyboard-response","206","283770","0.0-1.0-275.0-0.0","0","0","97287","","299","","","75","30","","","1","30","training","adjacent","GF","7","6","L.jpg","N.jpg","1","0","0","",""
"","feedback","","html-keyboard-response","207","284777","0.0-1.0-276.0-0.0","0","0","97287","","null","","","null","30","","","","","","","","","","","","","","","",""
"","time_out","","html-keyboard-response","208","286781","0.0-1.0-278.0-0.0","0","0","97287","","null","","","null","30","","","","","","","","","","","","","","","",""
"","ITI","","html-keyboard-response","209","287792","0.0-1.0-279.0","0","0","97287","","null","","","null","30","","","","","","","","","","","","","","","NaN",""
"","S1","","html-keyboard-response","210","288047","0.0-1.0-281.0","0","0","97287","","null","","","null","31","","","","","","","","","","","","","","","",""
"","ISI","","html-keyboard-response","211","289050","0.0-1.0-282.0","0","0","97287","","null","","","null","31","NaN","","","","","","","","","","","","","","",""
"","S2","","html-keyboard-response","212","289306","0.0-1.0-283.0","0","0","97287","","null","","","null","31","","NaN","","","","","","","","","","","","","",""
"","response","","html-keyboard-response","213","289441","0.0-1.0-284.0-0.0","0","0","97287","","132","","","68","31","","","1","31","training","adjacent","EF","5","6","M.jpg","N.jpg","0","1","0","",""
"","feedback","","html-keyboard-response","214","290450","0.0-1.0-285.0-0.0","0","0","97287","","null","","","null","31","","","","","","","","","","","","","","","",""
"","time_out","","html-keyboard-response","215","292456","0.0-1.0-287.0-0.0","0","0","97287","","null","","","null","31","","","","","","","","","","","","","","","",""
"","ITI","","html-keyboard-response","216","293468","0.0-1.0-288.0","0","0","97287","","null","","","null","31","","","","","","","","","","","","","","","NaN",""
"","S1","","html-keyboard-response","217","293726","0.0-1.0-290.0","0","0","97287","","null","","","null","32","","","","","","","","","","","","","","","",""
"","ISI","","html-keyboard-response","218","294730","0.0-1.0-291.0","0","0","97287","","null","","","null","32","NaN","","","","","","","","","","","","","","",""
"","S2","","html-keyboard-response","219","294987","0.0-1.0-292.0","0","0","97287","","null","","","null","32","","NaN","","","","","","","","","","","","","",""
"","response","","html-keyboard-response","220","295000","0.0-1.0-293.0-0.0","0","0","97287","","11","","","75","32","","","1","32","training","adjacent","CB","3","2","Q.jpg","P.jpg","1","0","0","",""
"","feedback","","html-keyboard-response","221","296010","0.0-1.0-294.0-0.0","0","0","97287","","null","","","null","32","","","","","","","","","","","","","","","",""
"","time_out","","html-keyboard-response","222","298013","0.0-1.0-296.0-0.0","0","0","97287","","null","","","null","32","","","","","","","","","","","","","","","",""
"","ITI","","html-keyboard-response","223","299019","0.0-1.0-297.0","0","0","97287","","null","","","null","32","","","","","","","","","","","","","","","NaN",""
"","S1","","html-keyboard-response","224","299279","0.0-1.0-299.0","0","0","97287","","null","","","null","33","","","","","","","","","","","","","","","",""
"","ISI","","html-keyboard-response","225","300287","0.0-1.0-300.0","0","0","97287","","null","","","null","33","NaN","","","","","","","","","","","","","","",""
"","S2","","html-keyboard-response","226","300545","0.0-1.0-301.0","0","0","97287","","null","","","null","33","","NaN","","","","","","","","","","","","","",""
"","response","","html-keyboard-response","227","300934","0.0-1.0-302.0-0.0","0","0","97287","","386","","","75","33","","","1","33","training","adjacent","EF","5","6","M.jpg","N.jpg","1","1","1","",""
"","feedback","","html-keyboard-response","228","301944","0.0-1.0-303.0-0.0","0","0","97287","","null","","","null","33","","","","","","","","","","","","","","","",""
"","ITI","","html-keyboard-response","229","302952","0.0-1.0-306.0","0","0","97287","","null","","","null","33","","","","","","","","","","","","","","","NaN",""
"","S1","","html-keyboard-response","230","303213","0.0-1.0-308.0","0","0","97287","","null","","","null","34","","","","","","","","","","","","","","","",""
"","ISI","","html-keyboard-response","231","304217","0.0-1.0-309.0","0","0","97287","","null","","","null","34","NaN","","","","","","","","","","","","","","",""
"","S2","","html-keyboard-response","232","304471","0.0-1.0-310.0","0","0","97287","","null","","","null","34","","NaN","","","","","","","","","","","","","",""
"","response","","html-keyboard-response","233","304675","0.0-1.0-311.0-0.0","0","0","97287","","200","","","68","34","","","1","34","training","adjacent","CD","3","4","Q.jpg","R.jpg","0","1","0","",""
"","feedback","","html-keyboard-response","234","305684","0.0-1.0-312.0-0.0","0","0","97287","","null","","","null","34","","","","","","","","","","","","","","","",""
"","time_out","","html-keyboard-response","235","307693","0.0-1.0-314.0-0.0","0","0","97287","","null","","","null","34","","","","","","","","","","","","","","","",""
"","ITI","","html-keyboard-response","236","308703","0.0-1.0-315.0","0","0","97287","","null","","","null","34","","","","","","","","","","","","","","","NaN",""
"","S1","","html-keyboard-response","237","308964","0.0-1.0-317.0","0","0","97287","","null","","","null","35","","","","","","","","","","","","","","","",""
"","ISI","","html-keyboard-response","238","309976","0.0-1.0-318.0","0","0","97287","","57","","","75","35","k","","","","","","","","","","","","","","",""
"","S2","","html-keyboard-response","239","310231","0.0-1.0-319.0","0","0","97287","","null","","","null","35","","NaN","","","","","","","","","","","","","",""
"","response","","html-keyboard-response","240","310528","0.0-1.0-320.0-0.0","0","0","97287","","295","","","75","35","","","1","35","training","adjacent","AB","1","2","O.jpg","P.jpg","1","1","1","",""
"","feedback","","html-keyboard-response","241","311539","0.0-1.0-321.0-0.0","0","0","97287","","null","","","null","35","","","","","","","","","","","","","","","",""
"","ITI","","html-keyboard-response","242","312551","0.0-1.0-324.0","0","0","97287","","null","","","null","35","","","","","","","","","","","","","","","NaN",""
"","S1","","html-keyboard-response","243","312819","0.0-1.0-326.0","0","0","97287","","null","","","null","36","","","","","","","","","","","","","","","",""
"","ISI","","html-keyboard-response","244","313826","0.0-1.0-327.0","0","0","97287","","null","","","null","36","NaN","","","","","","","","","","","","","","",""
"","S2","","html-keyboard-response","245","314091","0.0-1.0-328.0","0","0","97287","","null","","","null","36","","NaN","","","","","","","","","","","","","",""
"","response","","html-keyboard-response","246","314360","0.0-1.0-329.0-0.0","0","0","97287","","267","","","75","36","","","1","36","training","adjacent","FG","6","7","N.jpg","L.jpg","1","1","1","",""
"","feedback","","html-keyboard-response","247","315369","0.0-1.0-330.0-0.0","0","0","97287","","null","","","null","36","","","","","","","","","","","","","","","",""
"","ITI","","html-keyboard-response","248","316377","0.0-1.0-333.0","0","0","97287","","null","","","null","36","","","","","","","","","","","","","","","NaN",""
"","S1","","html-keyboard-response","249","316640","0.0-1.0-335.0","0","0","97287","","null","","","null","37","","","","","","","","","","","","","","","",""
"","ISI","","html-keyboard-response","250","317643","0.0-1.0-336.0","0","0","97287","","null","","","null","37","NaN","","","","","","","","","","","","","","",""
"","S2","","html-keyboard-response","251","317912","0.0-1.0-337.0","0","0","97287","","null","","","null","37","","NaN","","","","","","","","","","","","","",""
"","response","","html-keyboard-response","252","318378","0.0-1.0-338.0-0.0","0","0","97287","","464","","","75","37","","","1","37","training","adjacent","CB","3","2","Q.jpg","P.jpg","1","0","0","",""
"","feedback","","html-keyboard-response","253","319381","0.0-1.0-339.0-0.0","0","0","97287","","null","","","null","37","","","","","","","","","","","","","","","",""
"","time_out","","html-keyboard-response","254","321395","0.0-1.0-341.0-0.0","0","0","97287","","null","","","null","37","","","","","","","","","","","","","","","",""
"","ITI","","html-keyboard-response","255","322404","0.0-1.0-342.0","0","0","97287","","null","","","null","37","","","","","","","","","","","","","","","NaN",""
"","S1","","html-keyboard-response","256","322659","0.0-1.0-344.0","0","0","97287","","null","","","null","38","","","","","","","","","","","","","","","",""
"","ISI","","html-keyboard-response","257","323672","0.0-1.0-345.0","0","0","97287","","null","","","null","38","NaN","","","","","","","","","","","","","","",""
"","S2","","html-keyboard-response","258","323939","0.0-1.0-346.0","0","0","97287","","null","","","null","38","","NaN","","","","","","","","","","","","","",""
"","response","","html-keyboard-response","259","324128","0.0-1.0-347.0-0.0","0","0","97287","","187","","","75","38","","","1","38","training","adjacent","DE","4","5","R.jpg","M.jpg","1","1","1","",""
"","feedback","","html-keyboard-response","260","325139","0.0-1.0-348.0-0.0","0","0","97287","","null","","","null","38","","","","","","","","","","","","","","","",""
"","ITI","","html-keyboard-response","261","326154","0.0-1.0-351.0","0","0","97287","","null","","","null","38","","","","","","","","","","","","","","","NaN",""
"","S1","","html-keyboard-response","262","326410","0.0-1.0-353.0","0","0","97287","","null","","","null","39","","","","","","","","","","","","","","","",""
"","ISI","","html-keyboard-response","263","327419","0.0-1.0-354.0","0","0","97287","","null","","","null","39","NaN","","","","","","","","","","","","","","",""
"","S2","","html-keyboard-response","264","327671","0.0-1.0-355.0","0","0","97287","","249","","","75","39","","k","1","39","training","adjacent","FG","6","7","N.jpg","L.jpg","1","1","1","",""
"","feedback","","html-keyboard-response","265","328680","0.0-1.0-357.0-0.0","0","0","97287","","null","","","null","39","","","","","","","","","","","","","","","",""
"","ITI","","html-keyboard-response","266","329688","0.0-1.0-360.0","0","0","97287","","null","","","null","39","","","","","","","","","","","","","","","NaN",""
"","S1","","html-keyboard-response","267","329942","0.0-1.0-362.0","0","0","97287","","null","","","null","40","","","","","","","","","","","","","","","",""
"","ISI","","html-keyboard-response","268","330948","0.0-1.0-363.0","0","0","97287","","null","","","null","40","NaN","","","","","","","","","","","","","","",""
"","S2","","html-keyboard-response","269","331207","0.0-1.0-364.0","0","0","97287","","null","","","null","40","","NaN","","","","","","","","","","","","","",""
"","response","","html-keyboard-response","270","331394","0.0-1.0-365.0-0.0","0","0","97287","","186","","","68","40","","","1","40","training","adjacent","CB","3","2","Q.jpg","P.jpg","0","0","1","",""
"","feedback","","html-keyboard-response","271","332399","0.0-1.0-366.0-0.0","0","0","97287","","null","","","null","40","","","","","","","","","","","","","","","",""
"","ITI","","html-keyboard-response","272","333412","0.0-1.0-369.0","0","0","97287","","null","","","null","40","","","","","","","","","","","","","","","NaN",""
"","S1","","html-keyboard-response","273","333670","0.0-1.0-371.0","0","0","97287","","null","","","null","41","","","","","","","","","","","","","","","",""
"","ISI","","html-keyboard-response","274","334679","0.0-1.0-372.0","0","0","97287","","null","","","null","41","NaN","","","","","","","","","","","","","","",""
"","S2","","html-keyboard-response","275","334937","0.0-1.0-373.0","0","0","97287","","null","","","null","41","","NaN","","","","","","","","","","","","","",""
"","response","","html-keyboard-response","276","335025","0.0-1.0-374.0-0.0","0","0","97287","","85","","","68","41","","","1","41","training","adjacent","EF","5","6","M.jpg","N.jpg","0","1","0","",""
"","feedback","","html-keyboard-response","277","336042","0.0-1.0-375.0-0.0","0","0","97287","","null","","","null","41","","","","","","","","","","","","","","","",""
"","time_out","","html-keyboard-response","278","338048","0.0-1.0-377.0-0.0","0","0","97287","","null","","","null","41","","","","","","","","","","","","","","","",""
"","ITI","","html-keyboard-response","279","339057","0.0-1.0-378.0","0","0","97287","","null","","","null","41","","","","","","","","","","","","","","","NaN",""
"","S1","","html-keyboard-response","280","339323","0.0-1.0-380.0","0","0","97287","","null","","","null","42","","","","","","","","","","","","","","","",""
"","ISI","","html-keyboard-response","281","340333","0.0-1.0-381.0","0","0","97287","","19","","","75","42","k","","","","","","","","","","","","","","",""
"","S2","","html-keyboard-response","282","340599","0.0-1.0-382.0","0","0","97287","","null","","","null","42","","NaN","","","","","","","","","","","","","",""
"","response","","html-keyboard-response","283","340665","0.0-1.0-383.0-0.0","0","0","97287","","65","","","75","42","","","1","42","training","adjacent","AB","1","2","O.jpg","P.jpg","1","1","1","",""
"","feedback","","html-keyboard-response","284","341670","0.0-1.0-384.0-0.0","0","0","97287","","null","","","null","42","","","","","","","","","","","","","","","",""
"","ITI","","html-keyboard-response","285","342689","0.0-1.0-387.0","0","0","97287","","null","","","null","42","","","","","","","","","","","","","","","NaN",""
"","S1","","html-keyboard-response","286","342942","0.0-1.0-389.0","0","0","97287","","null","","","null","43","","","","","","","","","","","","","","","",""
"","ISI","","html-keyboard-response","287","343948","0.0-1.0-390.0","0","0","97287","","null","","","null","43","NaN","","","","","","","","","","","","","","",""
"","S2","","html-keyboard-response","288","344208","0.0-1.0-391.0","0","0","97287","","null","","","null","43","","NaN","","","","","","","","","","","","","",""
"","response","","html-keyboard-response","289","344362","0.0-1.0-392.0-0.0","0","0","97287","","153","","","75","43","","","1","43","training","adjacent","DE","4","5","R.jpg","M.jpg","1","1","1","",""
"","feedback","","html-keyboard-response","290","345372","0.0-1.0-393.0-0.0","0","0","97287","","null","","","null","43","","","","","","","","","","","","","","","",""
"","ITI","","html-keyboard-response","291","346378","0.0-1.0-396.0","0","0","97287","","null","","","null","43","","","","","","","","","","","","","","","NaN",""
"","S1","","html-keyboard-response","292","346637","0.0-1.0-398.0","0","0","97287","","null","","","null","44","","","","","","","","","","","","","","","",""
"","ISI","","html-keyboard-response","293","347652","0.0-1.0-399.0","0","0","97287","","null","","","null","44","NaN","","","","","","","","","","","","","","",""
"","S2","","html-keyboard-response","294","347911","0.0-1.0-400.0","0","0","97287","","null","","","null","44","","NaN","","","","","","","","","","","","","",""
"","response","","html-keyboard-response","295","348312","0.0-1.0-401.0-0.0","0","0","97287","","399","","","68","44","","","1","44","training","adjacent","EF","5","6","M.jpg","N.jpg","0","1","0","",""
"","feedback","","html-keyboard-response","296","349320","0.0-1.0-402.0-0.0","0","0","97287","","null","","","null","44","","","","","","","","","","","","","","","",""
"","time_out","","html-keyboard-response","297","351332","0.0-1.0-404.0-0.0","0","0","97287","","null","","","null","44","","","","","","","","","","","","","","","",""
"","ITI","","html-keyboard-response","298","352339","0.0-1.0-405.0","0","0","97287","","null","","","null","44","","","","","","","","","","","","","","","NaN",""
"","S1","","html-keyboard-response","299","352599","0.0-1.0-407.0","0","0","97287","","null","","","null","45","","","","","","","","","","","","","","","",""
"","ISI","","html-keyboard-response","300","353607","0.0-1.0-408.0","0","0","97287","","null","","","null","45","NaN","","","","","","","","","","","","","","",""
"","S2","","html-keyboard-response","301","353873","0.0-1.0-409.0","0","0","97287","","null","","","null","45","","NaN","","","","","","","","","","","","","",""
"","response","","html-keyboard-response","302","353884","0.0-1.0-410.0-0.0","0","0","97287","","10","","","75","45","","","1","45","training","adjacent","DC","4","3","R.jpg","Q.jpg","1","0","0","",""
"","feedback","","html-keyboard-response","303","354902","0.0-1.0-411.0-0.0","0","0","97287","","null","","","null","45","","","","","","","","","","","","","","","",""
"","time_out","","html-keyboard-response","304","356908","0.0-1.0-413.0-0.0","0","0","97287","","null","","","null","45","","","","","","","","","","","","","","","",""
"","ITI","","html-keyboard-response","305","357926","0.0-1.0-414.0","0","0","97287","","null","","","null","45","","","","","","","","","","","","","","","NaN",""
"","S1","","html-keyboard-response","306","358185","0.0-1.0-416.0","0","0","97287","","null","","","null","46","","","","","","","","","","","","","","","",""
"","ISI","","html-keyboard-response","307","359190","0.0-1.0-417.0","0","0","97287","","null","","","null","46","NaN","","","","","","","","","","","","","","",""
"","S2","","html-keyboard-response","308","359446","0.0-1.0-418.0","0","0","97287","","null","","","null","46","","NaN","","","","","","","","","","","","","",""
"","response","","html-keyboard-response","309","359478","0.0-1.0-419.0-0.0","0","0","97287","","30","","","68","46","","","1","46","training","adjacent","CD","3","4","Q.jpg","R.jpg","0","1","0","",""
"","feedback","","html-keyboard-response","310","360488","0.0-1.0-420.0-0.0","0","0","97287","","null","","","null","46","","","","","","","","","","","","","","","",""
"","time_out","","html-keyboard-response","311","362498","0.0-1.0-422.0-0.0","0","0","97287","","null","","","null","46","","","","","","","","","","","","","","","",""
"","ITI","","html-keyboard-response","312","363510","0.0-1.0-423.0","0","0","97287","","null","","","null","46","","","","","","","","","","","","","","","NaN",""
"","S1","","html-keyboard-response","313","363770","0.0-1.0-425.0","0","0","97287","","null","","","null","47","","","","","","","","","","","","","","","",""
"","ISI","","html-keyboard-response","314","364776","0.0-1.0-426.0","0","0","97287","","21","","","75","47","k","","","","","","","","","","","","","","",""
"","S2","","html-keyboard-response","315","365035","0.0-1.0-427.0","0","0","97287","","null","","","null","47","","NaN","","","","","","","","","","","","","",""
"","response","","html-keyboard-response","316","365297","0.0-1.0-428.0-0.0","0","0","97287","","260","","","75","47","","","1","47","training","adjacent","DC","4","3","R.jpg","Q.jpg","1","0","0","",""
"","feedback","","html-keyboard-response","317","366307","0.0-1.0-429.0-0.0","0","0","97287","","null","","","null","47","","","","","","","","","","","","","","","",""
"","time_out","","html-keyboard-response","318","368310","0.0-1.0-431.0-0.0","0","0","97287","","null","","","null","47","","","","","","","","","","","","","","","",""
"","ITI","","html-keyboard-response","319","369327","0.0-1.0-432.0","0","0","97287","","null","","","null","47","","","","","","","","","","","","","","","NaN",""
"","block_over","","html-keyboard-response","320","376895","0.0-1.0-433.0-0.0","0","0","97287","","7563","","","32","47","","","","","","","","","","","","","","","",""
"","S1","","html-keyboard-response","321","377155","0.0-1.0-434.0","0","0","97287","","null","","","null","48","","","","","","","","","","","","","","","",""
"","ISI","","html-keyboard-response","322","378169","0.0-1.0-435.0","0","0","97287","","null","","","null","48","NaN","","","","","","","","","","","","","","",""
"","S2","","html-keyboard-response","323","378424","0.0-1.0-436.0","0","0","97287","","null","","","null","48","","NaN","","","","","","","","","","","","","",""
"","response","","html-keyboard-response","324","378721","0.0-1.0-437.0-0.0","0","0","97287","","294","","","75","48","","","2","48","training","adjacent","AB","1","2","O.jpg","P.jpg","1","1","1","",""
"","feedback","","html-keyboard-response","325","379732","0.0-1.0-438.0-0.0","0","0","97287","","null","","","null","48","","","","","","","","","","","","","","","",""
"","ITI","","html-keyboard-response","326","380744","0.0-1.0-441.0","0","0","97287","","null","","","null","48","","","","","","","","","","","","","","","NaN",""
"","S1","","html-keyboard-response","327","380999","0.0-1.0-443.0","0","0","97287","","null","","","null","49","","","","","","","","","","","","","","","",""
"","ISI","","html-keyboard-response","328","382019","0.0-1.0-444.0","0","0","97287","","null","","","null","49","NaN","","","","","","","","","","","","","","",""
"","S2","","html-keyboard-response","329","382281","0.0-1.0-445.0","0","0","97287","","null","","","null","49","","NaN","","","","","","","","","","","","","",""
"","response","","html-keyboard-response","330","382338","0.0-1.0-446.0-0.0","0","0","97287","","54","","","75","49","","","2","49","training","adjacent","BA","2","1","P.jpg","O.jpg","1","0","0","",""
"","feedback","","html-keyboard-response","331","383343","0.0-1.0-447.0-0.0","0","0","97287","","null","","","null","49","","","","","","","","","","","","","","","",""
"","time_out","","html-keyboard-response","332","385348","0.0-1.0-449.0-0.0","0","0","97287","","null","","","null","49","","","","","","","","","","","","","","","",""
"","ITI","","html-keyboard-response","333","386354","0.0-1.0-450.0","0","0","97287","","null","","","null","49","","","","","","","","","","","","","","","NaN",""
"","S1","","html-keyboard-response","334","386611","0.0-1.0-452.0","0","0","97287","","null","","","null","50","","","","","","","","","","","","","","","",""
"","ISI","","html-keyboard-response","335","387622","0.0-1.0-453.0","0","0","97287","","null","","","null","50","NaN","","","","","","","","","","","","","","",""
"","S2","","html-keyboard-response","336","387878","0.0-1.0-454.0","0","0","97287","","null","","","null","50","","NaN","","","","","","","","","","","","","",""
"","response","","html-keyboard-response","337","388168","0.0-1.0-455.0-0.0","0","0","97287","","287","","","68","50","","","2","50","training","adjacent","CD","3","4","Q.jpg","R.jpg","0","1","0","",""
"","feedback","","html-keyboard-response","338","389178","0.0-1.0-456.0-0.0","0","0","97287","","null","","","null","50","","","","","","","","","","","","","","","",""
"","time_out","","html-keyboard-response","339","391185","0.0-1.0-458.0-0.0","0","0","97287","","null","","","null","50","","","","","","","","","","","","","","","",""
"","ITI","","html-keyboard-response","340","392190","0.0-1.0-459.0","0","0","97287","","null","","","null","50","","","","","","","","","","","","","","","NaN",""
"","S1","","html-keyboard-response","341","392455","0.0-1.0-461.0","0","0","97287","","null","","","null","51","","","","","","","","","","","","","","","",""
"","ISI","","html-keyboard-response","342","393470","0.0-1.0-462.0","0","0","97287","","null","","","null","51","NaN","","","","","","","","","","","","","","",""
"","S2","","html-keyboard-response","343","393729","0.0-1.0-463.0","0","0","97287","","null","","","null","51","","NaN","","","","","","","","","","","","","",""
"","response","","html-keyboard-response","344","393996","0.0-1.0-464.0-0.0","0","0","97287","","265","","","75","51","","","2","51","training","adjacent","DC","4","3","R.jpg","Q.jpg","1","0","0","",""
"","feedback","","html-keyboard-response","345","395004","0.0-1.0-465.0-0.0","0","0","97287","","null","","","null","51","","","","","","","","","","","","","","","",""
"","time_out","","html-keyboard-response","346","397011","0.0-1.0-467.0-0.0","0","0","97287","","null","","","null","51","","","","","","","","","","","","","","","",""
"","ITI","","html-keyboard-response","347","398019","0.0-1.0-468.0","0","0","97287","","null","","","null","51","","","","","","","","","","","","","","","NaN",""
"","S1","","html-keyboard-response","348","398276","0.0-1.0-470.0","0","0","97287","","null","","","null","52","","","","","","","","","","","","","","","",""
"","ISI","","html-keyboard-response","349","399283","0.0-1.0-471.0","0","0","97287","","null","","","null","52","NaN","","","","","","","","","","","","","","",""
"","S2","","html-keyboard-response","350","399544","0.0-1.0-472.0","0","0","97287","","null","","","null","52","","NaN","","","","","","","","","","","","","",""
"","response","","html-keyboard-response","351","399979","0.0-1.0-473.0-0.0","0","0","97287","","434","","","68","52","","","2","52","training","adjacent","DE","4","5","R.jpg","M.jpg","0","1","0","",""
"","feedback","","html-keyboard-response","352","400991","0.0-1.0-474.0-0.0","0","0","97287","","null","","","null","52","","","","","","","","","","","","","","","",""
"","time_out","","html-keyboard-response","353","402994","0.0-1.0-476.0-0.0","0","0","97287","","null","","","null","52","","","","","","","","","","","","","","","",""
"","ITI","","html-keyboard-response","354","404010","0.0-1.0-477.0","0","0","97287","","null","","","null","52","","","","","","","","","","","","","","","NaN",""
"","S1","","html-keyboard-response","355","404271","0.0-1.0-479.0","0","0","97287","","null","","","null","53","","","","","","","","","","","","","","","",""
"","ISI","","html-keyboard-response","356","405282","0.0-1.0-480.0","0","0","97287","","71","","","75","53","k","","","","","","","","","","","","","","",""
"","S2","","html-keyboard-response","357","405539","0.0-1.0-481.0","0","0","97287","","null","","","null","53","","NaN","","","","","","","","","","","","","",""
"","response","","html-keyboard-response","358","405594","0.0-1.0-482.0-0.0","0","0","97287","","52","","","75","53","","","2","53","training","adjacent","BA","2","1","P.jpg","O.jpg","1","0","0","",""
"","feedback","","html-keyboard-response","359","406608","0.0-1.0-483.0-0.0","0","0","97287","","null","","","null","53","","","","","","","","","","","","","","","",""
"","time_out","","html-keyboard-response","360","408617","0.0-1.0-485.0-0.0","0","0","97287","","null","","","null","53","","","","","","","","","","","","","","","",""
"","ITI","","html-keyboard-response","361","409624","0.0-1.0-486.0","0","0","97287","","null","","","null","53","","","","","","","","","","","","","","","NaN",""
"","S1","","html-keyboard-response","362","409883","0.0-1.0-488.0","0","0","97287","","null","","","null","54","","","","","","","","","","","","","","","",""
"","ISI","","html-keyboard-response","363","410899","0.0-1.0-489.0","0","0","97287","","null","","","null","54","NaN","","","","","","","","","","","","","","",""
"","S2","","html-keyboard-response","364","411154","0.0-1.0-490.0","0","0","97287","","null","","","null","54","","NaN","","","","","","","","","","","","","",""
"","response","","html-keyboard-response","365","411211","0.0-1.0-491.0-0.0","0","0","97287","","53","","","68","54","","","2","54","training","adjacent","EF","5","6","M.jpg","N.jpg","0","1","0","",""
"","feedback","","html-keyboard-response","366","412215","0.0-1.0-492.0-0.0","0","0","97287","","null","","","null","54","","","","","","","","","","","","","","","",""
"","time_out","","html-keyboard-response","367","414225","0.0-1.0-494.0-0.0","0","0","97287","","null","","","null","54","","","","","","","","","","","","","","","",""
"","ITI","","html-keyboard-response","368","415229","0.0-1.0-495.0","0","0","97287","","null","","","null","54","","","","","","","","","","","","","","","NaN",""
"","S1","","html-keyboard-response","369","415484","0.0-1.0-497.0","0","0","97287","","null","","","null","55","","","","","","","","","","","","","","","",""
"","ISI","","html-keyboard-response","370","416491","0.0-1.0-498.0","0","0","97287","","null","","","null","55","NaN","","","","","","","","","","","","","","",""
"","S2","","html-keyboard-response","371","416752","0.0-1.0-499.0","0","0","97287","","null","","","null","55","","NaN","","","","","","","","","","","","","",""
"","response","","html-keyboard-response","372","416770","0.0-1.0-500.0-0.0","0","0","97287","","15","","","75","55","","","2","55","training","adjacent","CB","3","2","Q.jpg","P.jpg","1","0","0","",""
"","feedback","","html-keyboard-response","373","417778","0.0-1.0-501.0-0.0","0","0","97287","","null","","","null","55","","","","","","","","","","","","","","","",""
"","time_out","","html-keyboard-response","374","419787","0.0-1.0-503.0-0.0","0","0","97287","","null","","","null","55","","","","","","","","","","","","","","","",""
"","ITI","","html-keyboard-response","375","420797","0.0-1.0-504.0","0","0","97287","","null","","","null","55","","","","","","","","","","","","","","","NaN",""
"","S1","","html-keyboard-response","376","421051","0.0-1.0-506.0","0","0","97287","","null","","","null","56","","","","","","","","","","","","","","","",""
"","ISI","","html-keyboard-response","377","422056","0.0-1.0-507.0","0","0","97287","","null","","","null","56","NaN","","","","","","","","","","","","","","",""
"","S2","","html-keyboard-response","378","422316","0.0-1.0-508.0","0","0","97287","","null","","","null","56","","NaN","","","","","","","","","","","","","",""
"","response","","html-keyboard-response","379","422551","0.0-1.0-509.0-0.0","0","0","97287","","233","","","75","56","","","2","56","training","adjacent","BC","2","3","P.jpg","Q.jpg","1","1","1","",""
"","feedback","","html-keyboard-response","380","423563","0.0-1.0-510.0-0.0","0","0","97287","","null","","","null","56","","","","","","","","","","","","","","","",""
"","ITI","","html-keyboard-response","381","424572","0.0-1.0-513.0","0","0","97287","","null","","","null","56","","","","","","","","","","","","","","","NaN",""
"","S1","","html-keyboard-response","382","424826","0.0-1.0-515.0","0","0","97287","","null","","","null","57","","","","","","","","","","","","","","","",""
"","ISI","","html-keyboard-response","383","425833","0.0-1.0-516.0","0","0","97287","","null","","","null","57","NaN","","","","","","","","","","","","","","",""
"","S2","","html-keyboard-response","384","426081","0.0-1.0-517.0","0","0","97287","","247","","","75","57","","k","2","57","training","adjacent","FE","6","5","N.jpg","M.jpg","1","0","0","",""
"","feedback","","html-keyboard-response","385","427093","0.0-1.0-519.0-0.0","0","0","97287","","null","","","null","57","","","","","","","","","","","","","","","",""
"","time_out","","html-keyboard-response","386","429100","0.0-1.0-521.0-0.0","0","0","97287","","null","","","null","57","","","","","","","","","","","","","","","",""
"","ITI","","html-keyboard-response","387","430109","0.0-1.0-522.0","0","0","97287","","null","","","null","57","","","","","","","","","","","","","","","NaN",""
"","S1","","html-keyboard-response","388","430365","0.0-1.0-524.0","0","0","97287","","null","","","null","58","","","","","","","","","","","","","","","",""
"","ISI","","html-keyboard-response","389","431379","0.0-1.0-525.0","0","0","97287","","null","","","null","58","NaN","","","","","","","","","","","","","","",""
"","S2","","html-keyboard-response","390","431641","0.0-1.0-526.0","0","0","97287","","null","","","null","58","","NaN","","","","","","","","","","","","","",""
"","response","","html-keyboard-response","391","431863","0.0-1.0-527.0-0.0","0","0","97287","","217","","","68","58","","","2","58","training","adjacent","FG","6","7","N.jpg","L.jpg","0","1","0","",""
"","feedback","","html-keyboard-response","392","432869","0.0-1.0-528.0-0.0","0","0","97287","","null","","","null","58","","","","","","","","","","","","","","","",""
"","time_out","","html-keyboard-response","393","434873","0.0-1.0-530.0-0.0","0","0","97287","","null","","","null","58","","","","","","","","","","","","","","","",""
"","ITI","","html-keyboard-response","394","435886","0.0-1.0-531.0","0","0","97287","","null","","","null","58","","","","","","","","","","","","","","","NaN",""
"","S1","","html-keyboard-response","395","436142","0.0-1.0-533.0","0","0","97287","","null","","","null","59","","","","","","","","","","","","","","","",""
"","ISI","","html-keyboard-response","396","437151","0.0-1.0-534.0","0","0","97287","","19","","","75","59","k","","","","","","","","","","","","","","",""
"","S2","","html-keyboard-response","397","437409","0.0-1.0-535.0","0","0","97287","","null","","","null","59","","NaN","","","","","","","","","","","","","",""
"","response","","html-keyboard-response","398","437632","0.0-1.0-536.0-0.0","0","0","97287","","221","","","75","59","","","2","59","training","adjacent","BA","2","1","P.jpg","O.jpg","1","0","0","",""
"","feedback","","html-keyboard-response","399","438640","0.0-1.0-537.0-0.0","0","0","97287","","null","","","null","59","","","","","","","","","","","","","","","",""
"","time_out","","html-keyboard-response","400","440646","0.0-1.0-539.0-0.0","0","0","97287","","null","","","null","59","","","","","","","","","","","","","","","",""
"","ITI","","html-keyboard-response","401","441652","0.0-1.0-540.0","0","0","97287","","null","","","null","59","","","","","","","","","","","","","","","NaN",""
"","S1","","html-keyboard-response","402","441908","0.0-1.0-542.0","0","0","97287","","null","","","null","60","","","","","","","","","","","","","","","",""
"","ISI","","html-keyboard-response","403","442917","0.0-1.0-543.0","0","0","97287","","null","","","null","60","NaN","","","","","","","","","","","","","","",""
"","S2","","html-keyboard-response","404","443184","0.0-1.0-544.0","0","0","97287","","null","","","null","60","","NaN","","","","","","","","","","","","","",""
"","response","","html-keyboard-response","405","443375","0.0-1.0-545.0-0.0","0","0","97287","","190","","","75","60","","","2","60","training","adjacent","AB","1","2","O.jpg","P.jpg","1","1","1","",""
"","feedback","","html-keyboard-response","406","444391","0.0-1.0-546.0-0.0","0","0","97287","","null","","","null","60","","","","","","","","","","","","","","","",""
"","ITI","","html-keyboard-response","407","445401","0.0-1.0-549.0","0","0","97287","","null","","","null","60","","","","","","","","","","","","","","","NaN",""
"","S1","","html-keyboard-response","408","445658","0.0-1.0-551.0","0","0","97287","","null","","","null","61","","","","","","","","","","","","","","","",""
"","ISI","","html-keyboard-response","409","446665","0.0-1.0-552.0","0","0","97287","","null","","","null","61","NaN","","","","","","","","","","","","","","",""
"","S2","","html-keyboard-response","410","446930","0.0-1.0-553.0","0","0","97287","","null","","","null","61","","NaN","","","","","","","","","","","","","",""
"","response","","html-keyboard-response","411","447361","0.0-1.0-554.0-0.0","0","0","97287","","429","","","68","61","","","2","61","training","adjacent","FG","6","7","N.jpg","L.jpg","0","1","0","",""
"","feedback","","html-keyboard-response","412","448374","0.0-1.0-555.0-0.0","0","0","97287","","null","","","null","61","","","","","","","","","","","","","","","",""
"","time_out","","html-keyboard-response","413","450380","0.0-1.0-557.0-0.0","0","0","97287","","null","","","null","61","","","","","","","","","","","","","","","",""
"","ITI","","html-keyboard-response","414","451387","0.0-1.0-558.0","0","0","97287","","null","","","null","61","","","","","","","","","","","","","","","NaN",""
"","S1","","html-keyboard-response","415","451643","0.0-1.0-560.0","0","0","97287","","null","","","null","62","","","","","","","","","","","","","","","",""
"","ISI","","html-keyboard-response","416","452651","0.0-1.0-561.0","0","0","97287","","null","","","null","62","NaN","","","","","","","","","","","","","","",""
"","S2","","html-keyboard-response","417","452920","0.0-1.0-562.0","0","0","97287","","null","","","null","62","","NaN","","","","","","","","","","","","","",""
"","response","","html-keyboard-response","418","452970","0.0-1.0-563.0-0.0","0","0","97287","","48","","","75","62","","","2","62","training","adjacent","BC","2","3","P.jpg","Q.jpg","1","1","1","",""
"","feedback","","html-keyboard-response","419","453978","0.0-1.0-564.0-0.0","0","0","97287","","null","","","null","62","","","","","","","","","","","","","","","",""
"","ITI","","html-keyboard-response","420","454983","0.0-1.0-567.0","0","0","97287","","null","","","null","62","","","","","","","","","","","","","","","NaN",""
"","S1","","html-keyboard-response","421","455247","0.0-1.0-569.0","0","0","97287","","null","","","null","63","","","","","","","","","","","","","","","",""
"","ISI","","html-keyboard-response","422","456258","0.0-1.0-570.0","0","0","97287","","null","","","null","63","NaN","","","","","","","","","","","","","","",""
"","S2","","html-keyboard-response","423","456519","0.0-1.0-571.0","0","0","97287","","null","","","null","63","","NaN","","","","","","","","","","","","","",""
"","response","","html-keyboard-response","424","456753","0.0-1.0-572.0-0.0","0","0","97287","","232","","","75","63","","","2","63","training","adjacent","CD","3","4","Q.jpg","R.jpg","1","1","1","",""
"","feedback","","html-keyboard-response","425","457756","0.0-1.0-573.0-0.0","0","0","97287","","null","","","null","63","","","","","","","","","","","","","","","",""
"","ITI","","html-keyboard-response","426","458770","0.0-1.0-576.0","0","0","97287","","null","","","null","63","","","","","","","","","","","","","","","NaN",""
"","S1","","html-keyboard-response","427","459026","0.0-1.0-578.0","0","0","97287","","null","","","null","64","","","","","","","","","","","","","","","",""
"","ISI","","html-keyboard-response","428","460038","0.0-1.0-579.0","0","0","97287","","null","","","null","64","NaN","","","","","","","","","","","","","","",""
"","S2","","html-keyboard-response","429","460297","0.0-1.0-580.0","0","0","97287","","null","","","null","64","","NaN","","","","","","","","","","","","","",""
"","response","","html-keyboard-response","430","460976","0.0-1.0-581.0-0.0","0","0","97287","","677","","","75","64","","","2","64","training","adjacent","BA","2","1","P.jpg","O.jpg","1","0","0","",""
"","feedback","","html-keyboard-response","431","461985","0.0-1.0-582.0-0.0","0","0","97287","","null","","","null","64","","","","","","","","","","","","","","","",""
"","time_out","","html-keyboard-response","432","464002","0.0-1.0-584.0-0.0","0","0","97287","","null","","","null","64","","","","","","","","","","","","","","","",""
"","ITI","","html-keyboard-response","433","465013","0.0-1.0-585.0","0","0","97287","","null","","","null","64","","","","","","","","","","","","","","","NaN",""
"","S1","","html-keyboard-response","434","465270","0.0-1.0-587.0","0","0","97287","","null","","","null","65","","","","","","","","","","","","","","","",""
"","ISI","","html-keyboard-response","435","466279","0.0-1.0-588.0","0","0","97287","","565","","","68","65","d","","","","","","","","","","","","","","",""
"","S2","","html-keyboard-response","436","466537","0.0-1.0-589.0","0","0","97287","","null","","","null","65","","NaN","","","","","","","","","","","","","",""
"","response","","html-keyboard-response","437","467266","0.0-1.0-590.0-0.0","0","0","97287","","725","","","68","65","","","2","65","training","adjacent","BC","2","3","P.jpg","Q.jpg","0","1","0","",""
"","feedback","","html-keyboard-response","438","468277","0.0-1.0-591.0-0.0","0","0","97287","","null","","","null","65","","","","","","","","","","","","","","","",""
"","time_out","","html-keyboard-response","439","470283","0.0-1.0-593.0-0.0","0","0","97287","","null","","","null","65","","","","","","","","","","","","","","","",""
"","ITI","","html-keyboard-response","440","471291","0.0-1.0-594.0","0","0","97287","","null","","","null","65","","","","","","","","","","","","","","","NaN",""
"","S1","","html-keyboard-response","441","471549","0.0-1.0-596.0","0","0","97287","","null","","","null","66","","","","","","","","","","","","","","","",""
"","ISI","","html-keyboard-response","442","472556","0.0-1.0-597.0","0","0","97287","","null","","","null","66","NaN","","","","","","","","","","","","","","",""
"","S2","","html-keyboard-response","443","472820","0.0-1.0-598.0","0","0","97287","","null","","","null","66","","NaN","","","","","","","","","","","","","",""
"","response","","html-keyboard-response","444","473356","0.0-1.0-599.0-0.0","0","0","97287","","531","","","75","66","","","2","66","training","adjacent","EF","5","6","M.jpg","N.jpg","1","1","1","",""
"","feedback","","html-keyboard-response","445","474369","0.0-1.0-600.0-0.0","0","0","97287","","null","","","null","66","","","","","","","","","","","","","","","",""
"","ITI","","html-keyboard-response","446","475380","0.0-1.0-603.0","0","0","97287","","null","","","null","66","","","","","","","","","","","","","","","NaN",""
"","S1","","html-keyboard-response","447","475640","0.0-1.0-605.0","0","0","97287","","null","","","null","67","","","","","","","","","","","","","","","",""
"","ISI","","html-keyboard-response","448","476653","0.0-1.0-606.0","0","0","97287","","null","","","null","67","NaN","","","","","","","","","","","","","","",""
"","S2","","html-keyboard-response","449","476907","0.0-1.0-607.0","0","0","97287","","null","","","null","67","","NaN","","","","","","","","","","","","","",""
"","response","","html-keyboard-response","450","477140","0.0-1.0-608.0-0.0","0","0","97287","","230","","","75","67","","","2","67","training","adjacent","CB","3","2","Q.jpg","P.jpg","1","0","0","",""
"","feedback","","html-keyboard-response","451","478146","0.0-1.0-609.0-0.0","0","0","97287","","null","","","null","67","","","","","","","","","","","","","","","",""
"","time_out","","html-keyboard-response","452","480153","0.0-1.0-611.0-0.0","0","0","97287","","null","","","null","67","","","","","","","","","","","","","","","",""
"","ITI","","html-keyboard-response","453","481165","0.0-1.0-612.0","0","0","97287","","null","","","null","67","","","","","","","","","","","","","","","NaN",""
"","S1","","html-keyboard-response","454","481427","0.0-1.0-614.0","0","0","97287","","null","","","null","68","","","","","","","","","","","","","","","",""
"","ISI","","html-keyboard-response","455","482441","0.0-1.0-615.0","0","0","97287","","null","","","null","68","NaN","","","","","","","","","","","","","","",""
"","S2","","html-keyboard-response","456","482701","0.0-1.0-616.0","0","0","97287","","null","","","null","68","","NaN","","","","","","","","","","","","","",""
"","response","","html-keyboard-response","457","482950","0.0-1.0-617.0-0.0","0","0","97287","","246","","","75","68","","","2","68","training","adjacent","GF","7","6","L.jpg","N.jpg","1","0","0","",""
"","feedback","","html-keyboard-response","458","483961","0.0-1.0-618.0-0.0","0","0","97287","","null","","","null","68","","","","","","","","","","","","","","","",""
"","time_out","","html-keyboard-response","459","485967","0.0-1.0-620.0-0.0","0","0","97287","","null","","","null","68","","","","","","","","","","","","","","","",""
"","ITI","","html-keyboard-response","460","486978","0.0-1.0-621.0","0","0","97287","","null","","","null","68","","","","","","","","","","","","","","","NaN",""
"","S1","","html-keyboard-response","461","487246","0.0-1.0-623.0","0","0","97287","","null","","","null","69","","","","","","","","","","","","","","","",""
"","ISI","","html-keyboard-response","462","488257","0.0-1.0-624.0","0","0","97287","","null","","","null","69","NaN","","","","","","","","","","","","","","",""
"","S2","","html-keyboard-response","463","488527","0.0-1.0-625.0","0","0","97287","","null","","","null","69","","NaN","","","","","","","","","","","","","",""
"","response","","html-keyboard-response","464","488804","0.0-1.0-626.0-0.0","0","0","97287","","275","","","68","69","","","2","69","training","adjacent","ED","5","4","M.jpg","R.jpg","0","0","1","",""
"","feedback","","html-keyboard-response","465","489812","0.0-1.0-627.0-0.0","0","0","97287","","null","","","null","69","","","","","","","","","","","","","","","",""
"","ITI","","html-keyboard-response","466","490821","0.0-1.0-630.0","0","0","97287","","null","","","null","69","","","","","","","","","","","","","","","NaN",""
"","S1","","html-keyboard-response","467","491083","0.0-1.0-632.0","0","0","97287","","null","","","null","70","","","","","","","","","","","","","","","",""
"","ISI","","html-keyboard-response","468","492091","0.0-1.0-633.0","0","0","97287","","null","","","null","70","NaN","","","","","","","","","","","","","","",""
"","S2","","html-keyboard-response","469","492349","0.0-1.0-634.0","0","0","97287","","null","","","null","70","","NaN","","","","","","","","","","","","","",""
"","response","","html-keyboard-response","470","492624","0.0-1.0-635.0-0.0","0","0","97287","","271","","","68","70","","","2","70","training","adjacent","GF","7","6","L.jpg","N.jpg","0","0","1","",""
"","feedback","","html-keyboard-response","471","493631","0.0-1.0-636.0-0.0","0","0","97287","","null","","","null","70","","","","","","","","","","","","","","","",""
"","ITI","","html-keyboard-response","472","494636","0.0-1.0-639.0","0","0","97287","","null","","","null","70","","","","","","","","","","","","","","","NaN",""
"","S1","","html-keyboard-response","473","494900","0.0-1.0-641.0","0","0","97287","","null","","","null","71","","","","","","","","","","","","","","","",""
"","ISI","","html-keyboard-response","474","495907","0.0-1.0-642.0","0","0","97287","","null","","","null","71","NaN","","","","","","","","","","","","","","",""
"","S2","","html-keyboard-response","475","496176","0.0-1.0-643.0","0","0","97287","","null","","","null","71","","NaN","","","","","","","","","","","","","",""
"","response","","html-keyboard-response","476","496492","0.0-1.0-644.0-0.0","0","0","97287","","313","","","68","71","","","2","71","training","adjacent","DC","4","3","R.jpg","Q.jpg","0","0","1","",""
"","feedback","","html-keyboard-response","477","497501","0.0-1.0-645.0-0.0","0","0","97287","","null","","","null","71","","","","","","","","","","","","","","","",""
"","ITI","","html-keyboard-response","478","498508","0.0-1.0-648.0","0","0","97287","","null","","","null","71","","","","","","","","","","","","","","","NaN",""
"","S1","","html-keyboard-response","479","498762","0.0-1.0-650.0","0","0","97287","","null","","","null","72","","","","","","","","","","","","","","","",""
"","ISI","","html-keyboard-response","480","499770","0.0-1.0-651.0","0","0","97287","","null","","","null","72","NaN","","","","","","","","","","","","","","",""
"","S2","","html-keyboard-response","481","500026","0.0-1.0-652.0","0","0","97287","","null","","","null","72","","NaN","","","","","","","","","","","","","",""
"","response","","html-keyboard-response","482","501134","0.0-1.0-653.0-0.0","0","0","97287","","1106","","","68","72","","","2","72","training","adjacent","DE","4","5","R.jpg","M.jpg","0","1","0","",""
"","feedback","","html-keyboard-response","483","502141","0.0-1.0-654.0-0.0","0","0","97287","","null","","","null","72","","","","","","","","","","","","","","","",""
"","time_out","","html-keyboard-response","484","504152","0.0-1.0-656.0-0.0","0","0","97287","","null","","","null","72","","","","","","","","","","","","","","","",""
"","ITI","","html-keyboard-response","485","505158","0.0-1.0-657.0","0","0","97287","","null","","","null","72","","","","","","","","","","","","","","","NaN",""
"","S1","","html-keyboard-response","486","505416","0.0-1.0-659.0","0","0","97287","","null","","","null","73","","","","","","","","","","","","","","","",""
"","ISI","","html-keyboard-response","487","506430","0.0-1.0-660.0","0","0","97287","","null","","","null","73","NaN","","","","","","","","","","","","","","",""
"","S2","","html-keyboard-response","488","506698","0.0-1.0-661.0","0","0","97287","","null","","","null","73","","NaN","","","","","","","","","","","","","",""
"","response","","html-keyboard-response","489","507112","0.0-1.0-662.0-0.0","0","0","97287","","410","","","75","73","","","2","73","training","adjacent","CD","3","4","Q.jpg","R.jpg","1","1","1","",""
"","feedback","","html-keyboard-response","490","508125","0.0-1.0-663.0-0.0","0","0","97287","","null","","","null","73","","","","","","","","","","","","","","","",""
"","ITI","","html-keyboard-response","491","509133","0.0-1.0-666.0","0","0","97287","","null","","","null","73","","","","","","","","","","","","","","","NaN",""
"","S1","","html-keyboard-response","492","509389","0.0-1.0-668.0","0","0","97287","","null","","","null","74","","","","","","","","","","","","","","","",""
"","ISI","","html-keyboard-response","493","510402","0.0-1.0-669.0","0","0","97287","","null","","","null","74","NaN","","","","","","","","","","","","","","",""
"","S2","","html-keyboard-response","494","510662","0.0-1.0-670.0","0","0","97287","","null","","","null","74","","NaN","","","","","","","","","","","","","",""
"","response","","html-keyboard-response","495","511501","0.0-1.0-671.0-0.0","0","0","97287","","837","","","75","74","","","2","74","training","adjacent","DC","4","3","R.jpg","Q.jpg","1","0","0","",""
"","feedback","","html-keyboard-response","496","512507","0.0-1.0-672.0-0.0","0","0","97287","","null","","","null","74","","","","","","","","","","","","","","","",""
"","time_out","","html-keyboard-response","497","514515","0.0-1.0-674.0-0.0","0","0","97287","","null","","","null","74","","","","","","","","","","","","","","","",""
"","ITI","","html-keyboard-response","498","515520","0.0-1.0-675.0","0","0","97287","","null","","","null","74","","","","","","","","","","","","","","","NaN",""
"","S1","","html-keyboard-response","499","515774","0.0-1.0-677.0","0","0","97287","","null","","","null","75","","","","","","","","","","","","","","","",""
"","ISI","","html-keyboard-response","500","516786","0.0-1.0-678.0","0","0","97287","","null","","","null","75","NaN","","","","","","","","","","","","","","",""
"","S2","","html-keyboard-response","501","517042","0.0-1.0-679.0","0","0","97287","","null","","","null","75","","NaN","","","","","","","","","","","","","",""
"","response","","html-keyboard-response","502","517956","0.0-1.0-680.0-0.0","0","0","97287","","913","","","68","75","","","2","75","training","adjacent","FE","6","5","N.jpg","M.jpg","0","0","1","",""
"","feedback","","html-keyboard-response","503","518962","0.0-1.0-681.0-0.0","0","0","97287","","null","","","null","75","","","","","","","","","","","","","","","",""
"","ITI","","html-keyboard-response","504","519968","0.0-1.0-684.0","0","0","97287","","null","","","null","75","","","","","","","","","","","","","","","NaN",""
"","S1","","html-keyboard-response","505","520226","0.0-1.0-686.0","0","0","97287","","null","","","null","76","","","","","","","","","","","","","","","",""
"","ISI","","html-keyboard-response","506","521237","0.0-1.0-687.0","0","0","97287","","null","","","null","76","NaN","","","","","","","","","","","","","","",""
"","S2","","html-keyboard-response","507","521497","0.0-1.0-688.0","0","0","97287","","null","","","null","76","","NaN","","","","","","","","","","","","","",""
"","response","","html-keyboard-response","508","522120","0.0-1.0-689.0-0.0","0","0","97287","","618","","","68","76","","","2","76","training","adjacent","CB","3","2","Q.jpg","P.jpg","0","0","1","",""
"","feedback","","html-keyboard-response","509","523126","0.0-1.0-690.0-0.0","0","0","97287","","null","","","null","76","","","","","","","","","","","","","","","",""
"","ITI","","html-keyboard-response","510","524136","0.0-1.0-693.0","0","0","97287","","null","","","null","76","","","","","","","","","","","","","","","NaN",""
"","S1","","html-keyboard-response","511","524402","0.0-1.0-695.0","0","0","97287","","null","","","null","77","","","","","","","","","","","","","","","",""
"","ISI","","html-keyboard-response","512","525407","0.0-1.0-696.0","0","0","97287","","null","","","null","77","NaN","","","","","","","","","","","","","","",""
"","S2","","html-keyboard-response","513","525670","0.0-1.0-697.0","0","0","97287","","null","","","null","77","","NaN","","","","","","","","","","","","","",""
"","response","","html-keyboard-response","514","526473","0.0-1.0-698.0-0.0","0","0","97287","","799","","","75","77","","","2","77","training","adjacent","ED","5","4","M.jpg","R.jpg","1","0","0","",""
"","feedback","","html-keyboard-response","515","527484","0.0-1.0-699.0-0.0","0","0","97287","","null","","","null","77","","","","","","","","","","","","","","","",""
"","time_out","","html-keyboard-response","516","529495","0.0-1.0-701.0-0.0","0","0","97287","","null","","","null","77","","","","","","","","","","","","","","","",""
"","ITI","","html-keyboard-response","517","530506","0.0-1.0-702.0","0","0","97287","","null","","","null","77","","","","","","","","","","","","","","","NaN",""
"","S1","","html-keyboard-response","518","530762","0.0-1.0-704.0","0","0","97287","","null","","","null","78","","","","","","","","","","","","","","","",""
"","ISI","","html-keyboard-response","519","531781","0.0-1.0-705.0","0","0","97287","","null","","","null","78","NaN","","","","","","","","","","","","","","",""
"","S2","","html-keyboard-response","520","532040","0.0-1.0-706.0","0","0","97287","","null","","","null","78","","NaN","","","","","","","","","","","","","",""
"","response","","html-keyboard-response","521","532516","0.0-1.0-707.0-0.0","0","0","97287","","474","","","75","78","","","2","78","training","adjacent","FG","6","7","N.jpg","L.jpg","1","1","1","",""
"","feedback","","html-keyboard-response","522","533532","0.0-1.0-708.0-0.0","0","0","97287","","null","","","null","78","","","","","","","","","","","","","","","",""
"","ITI","","html-keyboard-response","523","534539","0.0-1.0-711.0","0","0","97287","","null","","","null","78","","","","","","","","","","","","","","","NaN",""
"","S1","","html-keyboard-response","524","534794","0.0-1.0-713.0","0","0","97287","","null","","","null","79","","","","","","","","","","","","","","","",""
"","ISI","","html-keyboard-response","525","535800","0.0-1.0-714.0","0","0","97287","","null","","","null","79","NaN","","","","","","","","","","","","","","",""
"","S2","","html-keyboard-response","526","536058","0.0-1.0-715.0","0","0","97287","","null","","","null","79","","NaN","","","","","","","","","","","","","",""
"","response","","html-keyboard-response","527","536494","0.0-1.0-716.0-0.0","0","0","97287","","432","","","75","79","","","2","79","training","adjacent","DE","4","5","R.jpg","M.jpg","1","1","1","",""
"","feedback","","html-keyboard-response","528","537500","0.0-1.0-717.0-0.0","0","0","97287","","null","","","null","79","","","","","","","","","","","","","","","",""
"","ITI","","html-keyboard-response","529","538517","0.0-1.0-720.0","0","0","97287","","null","","","null","79","","","","","","","","","","","","","","","NaN",""
"","S1","","html-keyboard-response","530","538786","0.0-1.0-722.0","0","0","97287","","null","","","null","80","","","","","","","","","","","","","","","",""
"","ISI","","html-keyboard-response","531","539788","0.0-1.0-723.0","0","0","97287","","null","","","null","80","NaN","","","","","","","","","","","","","","",""
"","S2","","html-keyboard-response","532","540050","0.0-1.0-724.0","0","0","97287","","null","","","null","80","","NaN","","","","","","","","","","","","","",""
"","response","","html-keyboard-response","533","540655","0.0-1.0-725.0-0.0","0","0","97287","","603","","","68","80","","","2","80","training","adjacent","FE","6","5","N.jpg","M.jpg","0","0","1","",""
"","feedback","","html-keyboard-response","534","541667","0.0-1.0-726.0-0.0","0","0","97287","","null","","","null","80","","","","","","","","","","","","","","","",""
"","ITI","","html-keyboard-response","535","542674","0.0-1.0-729.0","0","0","97287","","null","","","null","80","","","","","","","","","","","","","","","NaN",""
"","S1","","html-keyboard-response","536","542928","0.0-1.0-731.0","0","0","97287","","null","","","null","81","","","","","","","","","","","","","","","",""
"","ISI","","html-keyboard-response","537","543938","0.0-1.0-732.0","0","0","97287","","null","","","null","81","NaN","","","","","","","","","","","","","","",""
"","S2","","html-keyboard-response","538","544195","0.0-1.0-733.0","0","0","97287","","null","","","null","81","","NaN","","","","","","","","","","","","","",""
"","response","","html-keyboard-response","539","544900","0.0-1.0-734.0-0.0","0","0","97287","","704","","","68","81","","","2","81","training","adjacent","CD","3","4","Q.jpg","R.jpg","0","1","0","",""
"","feedback","","html-keyboard-response","540","545911","0.0-1.0-735.0-0.0","0","0","97287","","null","","","null","81","","","","","","","","","","","","","","","",""
"","time_out","","html-keyboard-response","541","547921","0.0-1.0-737.0-0.0","0","0","97287","","null","","","null","81","","","","","","","","","","","","","","","",""
"","ITI","","html-keyboard-response","542","548929","0.0-1.0-738.0","0","0","97287","","null","","","null","81","","","","","","","","","","","","","","","NaN",""
"","S1","","html-keyboard-response","543","549185","0.0-1.0-740.0","0","0","97287","","null","","","null","82","","","","","","","","","","","","","","","",""
"","ISI","","html-keyboard-response","544","550206","0.0-1.0-741.0","0","0","97287","","null","","","null","82","NaN","","","","","","","","","","","","","","",""
"","S2","","html-keyboard-response","545","550475","0.0-1.0-742.0","0","0","97287","","null","","","null","82","","NaN","","","","","","","","","","","","","",""
"","response","","html-keyboard-response","546","551241","0.0-1.0-743.0-0.0","0","0","97287","","763","","","75","82","","","2","82","training","adjacent","AB","1","2","O.jpg","P.jpg","1","1","1","",""
"","feedback","","html-keyboard-response","547","552247","0.0-1.0-744.0-0.0","0","0","97287","","null","","","null","82","","","","","","","","","","","","","","","",""
"","ITI","","html-keyboard-response","548","553254","0.0-1.0-747.0","0","0","97287","","null","","","null","82","","","","","","","","","","","","","","","NaN",""
"","S1","","html-keyboard-response","549","553510","0.0-1.0-749.0","0","0","97287","","null","","","null","83","","","","","","","","","","","","","","","",""
"","ISI","","html-keyboard-response","550","554518","0.0-1.0-750.0","0","0","97287","","null","","","null","83","NaN","","","","","","","","","","","","","","",""
"","S2","","html-keyboard-response","551","554778","0.0-1.0-751.0","0","0","97287","","null","","","null","83","","NaN","","","","","","","","","","","","","",""
"","response","","html-keyboard-response","552","555528","0.0-1.0-752.0-0.0","0","0","97287","","748","","","75","83","","","2","83","training","adjacent","GF","7","6","L.jpg","N.jpg","1","0","0","",""
"","feedback","","html-keyboard-response","553","556533","0.0-1.0-753.0-0.0","0","0","97287","","null","","","null","83","","","","","","","","","","","","","","","",""
"","time_out","","html-keyboard-response","554","558542","0.0-1.0-755.0-0.0","0","0","97287","","null","","","null","83","","","","","","","","","","","","","","","",""
"","ITI","","html-keyboard-response","555","559547","0.0-1.0-756.0","0","0","97287","","null","","","null","83","","","","","","","","","","","","","","","NaN",""
"","S1","","html-keyboard-response","556","559813","0.0-1.0-758.0","0","0","97287","","null","","","null","84","","","","","","","","","","","","","","","",""
"","ISI","","html-keyboard-response","557","560819","0.0-1.0-759.0","0","0","97287","","null","","","null","84","NaN","","","","","","","","","","","","","","",""
"","S2","","html-keyboard-response","558","561079","0.0-1.0-760.0","0","0","97287","","null","","","null","84","","NaN","","","","","","","","","","","","","",""
"","response","","html-keyboard-response","559","561917","0.0-1.0-761.0-0.0","0","0","97287","","836","","","68","84","","","2","84","training","adjacent","GF","7","6","L.jpg","N.jpg","0","0","1","",""
"","feedback","","html-keyboard-response","560","562925","0.0-1.0-762.0-0.0","0","0","97287","","null","","","null","84","","","","","","","","","","","","","","","",""
"","ITI","","html-keyboard-response","561","563941","0.0-1.0-765.0","0","0","97287","","null","","","null","84","","","","","","","","","","","","","","","NaN",""
"","S1","","html-keyboard-response","562","564196","0.0-1.0-767.0","0","0","97287","","null","","","null","85","","","","","","","","","","","","","","","",""
"","ISI","","html-keyboard-response","563","565200","0.0-1.0-768.0","0","0","97287","","null","","","null","85","NaN","","","","","","","","","","","","","","",""
"","S2","","html-keyboard-response","564","565454","0.0-1.0-769.0","0","0","97287","","null","","","null","85","","NaN","","","","","","","","","","","","","",""
"","response","","html-keyboard-response","565","566047","0.0-1.0-770.0-0.0","0","0","97287","","590","","","75","85","","","2","85","training","adjacent","EF","5","6","M.jpg","N.jpg","1","1","1","",""
"","feedback","","html-keyboard-response","566","567065","0.0-1.0-771.0-0.0","0","0","97287","","null","","","null","85","","","","","","","","","","","","","","","",""
"","ITI","","html-keyboard-response","567","568070","0.0-1.0-774.0","0","0","97287","","null","","","null","85","","","","","","","","","","","","","","","NaN",""
"","S1","","html-keyboard-response","568","568326","0.0-1.0-776.0","0","0","97287","","null","","","null","86","","","","","","","","","","","","","","","",""
"","ISI","","html-keyboard-response","569","569331","0.0-1.0-777.0","0","0","97287","","null","","","null","86","NaN","","","","","","","","","","","","","","",""
"","S2","","html-keyboard-response","570","569586","0.0-1.0-778.0","0","0","97287","","null","","","null","86","","NaN","","","","","","","","","","","","","",""
"","response","","html-keyboard-response","571","570102","0.0-1.0-779.0-0.0","0","0","97287","","514","","","75","86","","","2","86","training","adjacent","AB","1","2","O.jpg","P.jpg","1","1","1","",""
"","feedback","","html-keyboard-response","572","571107","0.0-1.0-780.0-0.0","0","0","97287","","null","","","null","86","","","","","","","","","","","","","","","",""
"","ITI","","html-keyboard-response","573","572124","0.0-1.0-783.0","0","0","97287","","null","","","null","86","","","","","","","","","","","","","","","NaN",""
"","S1","","html-keyboard-response","574","572381","0.0-1.0-785.0","0","0","97287","","null","","","null","87","","","","","","","","","","","","","","","",""
"","ISI","","html-keyboard-response","575","573388","0.0-1.0-786.0","0","0","97287","","null","","","null","87","NaN","","","","","","","","","","","","","","",""
"","S2","","html-keyboard-response","576","573655","0.0-1.0-787.0","0","0","97287","","null","","","null","87","","NaN","","","","","","","","","","","","","",""
"","response","","html-keyboard-response","577","574045","0.0-1.0-788.0-0.0","0","0","97287","","386","","","68","87","","","2","87","training","adjacent","CB","3","2","Q.jpg","P.jpg","0","0","1","",""
"","feedback","","html-keyboard-response","578","575055","0.0-1.0-789.0-0.0","0","0","97287","","null","","","null","87","","","","","","","","","","","","","","","",""
"","ITI","","html-keyboard-response","579","576067","0.0-1.0-792.0","0","0","97287","","null","","","null","87","","","","","","","","","","","","","","","NaN",""
"","S1","","html-keyboard-response","580","576333","0.0-1.0-794.0","0","0","97287","","null","","","null","88","","","","","","","","","","","","","","","",""
"","ISI","","html-keyboard-response","581","577339","0.0-1.0-795.0","0","0","97287","","null","","","null","88","NaN","","","","","","","","","","","","","","",""
"","S2","","html-keyboard-response","582","577595","0.0-1.0-796.0","0","0","97287","","null","","","null","88","","NaN","","","","","","","","","","","","","",""
