"success","ttype","start_time","trial_type","trial_index","time_elapsed","internal_node_id","warning","missed_checkup","PID","view_history","rt","responses","repeat_instructions","key_press","index","keypress_isi","keypress_S2","block","trial_num","phase","group_type","pair_type","S1_stim","S2_stim","S1_img","S2_img","S1_chosen","S1_higher","accuracy","keypress_iti","total_bonus_tally"
"true","full_screen","d08052022hr1627","fullscreen","0","5109","0.0-0.0","0","0","79908","","","","","","","","","","","","","","","","","","","","","",""
"","instructions","","instructions","1","14307","0.0-1.0-0.0-0.0","0","0","79908","[{""page_index"":0,""viewing_time"":1996},{""page_index"":1,""viewing_time"":3031},{""page_index"":2,""viewing_time"":2769},{""page_index"":3,""viewing_time"":1399}]","9196","","","","","","","","","","","","","","","","","","","",""
"","comprehension_check","","survey-multi-choice","2","29229","0.0-1.0-0.0-1.0","0","0","79908","","14917","{""Q0"":""True"",""Q1"":""D"",""Q2"":""Only when the screen 'MAKE A CHOICE' is shown"",""Q3"":""Green mark"",""Q4"":""either D or K""}","1","","","","","","","","","","","","","","","","","",""
"","missed_instruction_checkup","","html-keyboard-response","3","30339","0.0-1.0-0.0-2.0-0.0","0","1","79908","","1107","","","32","","","","","","","","","","","","","","","","",""
"","instructions","","instructions","4","39363","0.0-1.0-0.1-0.1","0","0","79908","[{""page_index"":0,""viewing_time"":1583},{""page_index"":1,""viewing_time"":5632},{""page_index"":2,""viewing_time"":968},{""page_index"":3,""viewing_time"":840}]","9023","","","","","","","","","","","","","","","","","","","",""
"","comprehension_check","","survey-multi-choice","5","45867","0.0-1.0-0.1-1.1","0","0","79908","","6500","{""Q0"":""True"",""Q1"":""D"",""Q2"":""Once the second image appears and while the screen 'MAKE A CHOICE' is shown"",""Q3"":""Green mark"",""Q4"":""either D or K""}","0","","","","","","","","","","","","","","","","","",""
"","start_exp","","html-keyboard-response","6","46562","0.0-1.0-1.0","0","0","79908","","692","","","32","","","","","","","","","","","","","","","","",""
"","S1","","html-keyboard-response","7","46814","0.0-1.0-2.0","0","0","79908","","null","","","null","0","","","","","","","","","","","","","","","",""
"","ISI","","html-keyboard-response","8","48815","0.0-1.0-3.0","0","0","79908","","null","","","null","0","NaN","","","","","","","","","","","","","","",""
"","S2","","html-keyboard-response","9","49067","0.0-1.0-4.0","0","0","79908","","null","","","null","0","","NaN","","","","","","","","","","","","","",""
"","response","","html-keyboard-response","10","49658","0.0-1.0-5.0-0.0","0","0","79908","","590","","","75","0","","","1","0","training","adjacent","ED","5","4","O.jpg","R.jpg","0","0","1","",""
"","feedback","","html-keyboard-response","11","50660","0.0-1.0-6.0-0.0","0","0","79908","","null","","","null","0","","","","","","","","","","","","","","","",""
"","ITI","","html-keyboard-response","12","51662","0.0-1.0-9.0","0","0","79908","","null","","","null","0","","","","","","","","","","","","","","","NaN",""
"","S1","","html-keyboard-response","13","51914","0.0-1.0-11.0","0","0","79908","","null","","","null","1","","","","","","","","","","","","","","","",""
"","ISI","","html-keyboard-response","14","53916","0.0-1.0-12.0","0","0","79908","","null","","","null","1","NaN","","","","","","","","","","","","","","",""
"","S2","","html-keyboard-response","15","54170","0.0-1.0-13.0","0","0","79908","","null","","","null","1","","NaN","","","","","","","","","","","","","",""
"","response","","html-keyboard-response","16","54698","0.0-1.0-14.0-0.0","0","0","79908","","527","","","75","1","","","1","1","training","adjacent","EF","5","6","O.jpg","P.jpg","0","1","0","",""
"","feedback","","html-keyboard-response","17","55701","0.0-1.0-15.0-0.0","0","0","79908","","null","","","null","1","","","","","","","","","","","","","","","",""
"","time_out","","html-keyboard-response","18","57703","0.0-1.0-17.0-0.0","0","0","79908","","null","","","null","1","","","","","","","","","","","","","","","",""
"","ITI","","html-keyboard-response","19","58704","0.0-1.0-18.0","0","0","79908","","null","","","null","1","","","","","","","","","","","","","","","NaN",""
"","S1","","html-keyboard-response","20","58957","0.0-1.0-20.0","0","0","79908","","null","","","null","2","","","","","","","","","","","","","","","",""
"","ISI","","html-keyboard-response","21","60960","0.0-1.0-21.0","0","0","79908","","null","","","null","2","NaN","","","","","","","","","","","","","","",""
"","S2","","html-keyboard-response","22","61212","0.0-1.0-22.0","0","0","79908","","null","","","null","2","","NaN","","","","","","","","","","","","","",""
"","response","","html-keyboard-response","23","61763","0.0-1.0-23.0-0.0","0","0","79908","","550","","","75","2","","","1","2","training","adjacent","BA","2","1","N.jpg","L.jpg","0","0","1","",""
"","feedback","","html-keyboard-response","24","62764","0.0-1.0-24.0-0.0","0","0","79908","","null","","","null","2","","","","","","","","","","","","","","","",""
"","ITI","","html-keyboard-response","25","63766","0.0-1.0-27.0","0","0","79908","","null","","","null","2","","","","","","","","","","","","","","","NaN",""
"","S1","","html-keyboard-response","26","64018","0.0-1.0-29.0","0","0","79908","","null","","","null","3","","","","","","","","","","","","","","","",""
"","ISI","","html-keyboard-response","27","66020","0.0-1.0-30.0","0","0","79908","","null","","","null","3","NaN","","","","","","","","","","","","","","",""
"","S2","","html-keyboard-response","28","66272","0.0-1.0-31.0","0","0","79908","","null","","","null","3","","NaN","","","","","","","","","","","","","",""
"","response","","html-keyboard-response","29","66675","0.0-1.0-32.0-0.0","0","0","79908","","401","","","75","3","","","1","3","training","adjacent","CD","3","4","M.jpg","R.jpg","0","1","0","",""
"","feedback","","html-keyboard-response","30","67677","0.0-1.0-33.0-0.0","0","0","79908","","null","","","null","3","","","","","","","","","","","","","","","",""
"","time_out","","html-keyboard-response","31","69679","0.0-1.0-35.0-0.0","0","0","79908","","null","","","null","3","","","","","","","","","","","","","","","",""
"","ITI","","html-keyboard-response","32","70681","0.0-1.0-36.0","0","0","79908","","null","","","null","3","","","","","","","","","","","","","","","NaN",""
"","S1","","html-keyboard-response","33","70933","0.0-1.0-38.0","0","0","79908","","null","","","null","4","","","","","","","","","","","","","","","",""
"","ISI","","html-keyboard-response","34","72935","0.0-1.0-39.0","0","0","79908","","null","","","null","4","NaN","","","","","","","","","","","","","","",""
"","S2","","html-keyboard-response","35","73188","0.0-1.0-40.0","0","0","79908","","null","","","null","4","","NaN","","","","","","","","","","","","","",""
"","response","","html-keyboard-response","36","74195","0.0-1.0-41.0-0.0","0","0","79908","","1006","","","75","4","","","1","4","training","adjacent","FG","6","7","P.jpg","Q.jpg","0","1","0","",""
"","feedback","","html-keyboard-response","37","75197","0.0-1.0-42.0-0.0","0","0","79908","","null","","","null","4","","","","","","","","","","","","","","","",""
"","time_out","","html-keyboard-response","38","77199","0.0-1.0-44.0-0.0","0","0","79908","","null","","","null","4","","","","","","","","","","","","","","","",""
"","ITI","","html-keyboard-response","39","78201","0.0-1.0-45.0","0","0","79908","","null","","","null","4","","","","","","","","","","","","","","","NaN",""
"","S1","","html-keyboard-response","40","78454","0.0-1.0-47.0","0","0","79908","","null","","","null","5","","","","","","","","","","","","","","","",""
"","ISI","","html-keyboard-response","41","80456","0.0-1.0-48.0","0","0","79908","","null","","","null","5","NaN","","","","","","","","","","","","","","",""
"","S2","","html-keyboard-response","42","80708","0.0-1.0-49.0","0","0","79908","","null","","","null","5","","NaN","","","","","","","","","","","","","",""
"","response","","html-keyboard-response","43","80970","0.0-1.0-50.0-0.0","0","0","79908","","262","","","75","5","","","1","5","training","adjacent","GF","7","6","Q.jpg","P.jpg","0","0","1","",""
"","feedback","","html-keyboard-response","44","81972","0.0-1.0-51.0-0.0","0","0","79908","","null","","","null","5","","","","","","","","","","","","","","","",""
"","ITI","","html-keyboard-response","45","82974","0.0-1.0-54.0","0","0","79908","","null","","","null","5","","","","","","","","","","","","","","","NaN",""
"","S1","","html-keyboard-response","46","83226","0.0-1.0-56.0","0","0","79908","","null","","","null","6","","","","","","","","","","","","","","","",""
"","ISI","","html-keyboard-response","47","85227","0.0-1.0-57.0","0","0","79908","","null","","","null","6","NaN","","","","","","","","","","","","","","",""
"","S2","","html-keyboard-response","48","85480","0.0-1.0-58.0","0","0","79908","","null","","","null","6","","NaN","","","","","","","","","","","","","",""
"","response","","html-keyboard-response","49","86050","0.0-1.0-59.0-0.0","0","0","79908","","570","","","75","6","","","1","6","training","adjacent","BA","2","1","N.jpg","L.jpg","0","0","1","",""
"","feedback","","html-keyboard-response","50","87052","0.0-1.0-60.0-0.0","0","0","79908","","null","","","null","6","","","","","","","","","","","","","","","",""
"","ITI","","html-keyboard-response","51","88054","0.0-1.0-63.0","0","0","79908","","null","","","null","6","","","","","","","","","","","","","","","NaN",""
"","S1","","html-keyboard-response","52","88307","0.0-1.0-65.0","0","0","79908","","null","","","null","7","","","","","","","","","","","","","","","",""
"","ISI","","html-keyboard-response","53","90309","0.0-1.0-66.0","0","0","79908","","null","","","null","7","NaN","","","","","","","","","","","","","","",""
"","S2","","html-keyboard-response","54","90561","0.0-1.0-67.0","0","0","79908","","null","","","null","7","","NaN","","","","","","","","","","","","","",""
"","response","","html-keyboard-response","55","91035","0.0-1.0-68.0-0.0","0","0","79908","","473","","","75","7","","","1","7","training","adjacent","ED","5","4","O.jpg","R.jpg","0","0","1","",""
"","feedback","","html-keyboard-response","56","92037","0.0-1.0-69.0-0.0","0","0","79908","","null","","","null","7","","","","","","","","","","","","","","","",""
"","ITI","","html-keyboard-response","57","93039","0.0-1.0-72.0","0","0","79908","","null","","","null","7","","","","","","","","","","","","","","","NaN",""
"","S1","","html-keyboard-response","58","93290","0.0-1.0-74.0","0","0","79908","","null","","","null","8","","","","","","","","","","","","","","","",""
"","ISI","","html-keyboard-response","59","95292","0.0-1.0-75.0","0","0","79908","","null","","","null","8","NaN","","","","","","","","","","","","","","",""
"","S2","","html-keyboard-response","60","95544","0.0-1.0-76.0","0","0","79908","","null","","","null","8","","NaN","","","","","","","","","","","","","",""
"","response","","html-keyboard-response","61","96235","0.0-1.0-77.0-0.0","0","0","79908","","690","","","75","8","","","1","8","training","adjacent","DC","4","3","R.jpg","M.jpg","0","0","1","",""
"","feedback","","html-keyboard-response","62","97237","0.0-1.0-78.0-0.0","0","0","79908","","null","","","null","8","","","","","","","","","","","","","","","",""
"","ITI","","html-keyboard-response","63","98239","0.0-1.0-81.0","0","0","79908","","null","","","null","8","","","","","","","","","","","","","","","NaN",""
"","S1","","html-keyboard-response","64","98491","0.0-1.0-83.0","0","0","79908","","null","","","null","9","","","","","","","","","","","","","","","",""
"","ISI","","html-keyboard-response","65","100493","0.0-1.0-84.0","0","0","79908","","null","","","null","9","NaN","","","","","","","","","","","","","","",""
"","S2","","html-keyboard-response","66","100746","0.0-1.0-85.0","0","0","79908","","null","","","null","9","","NaN","","","","","","","","","","","","","",""
"","response","","html-keyboard-response","67","101163","0.0-1.0-86.0-0.0","0","0","79908","","416","","","68","9","","","1","9","training","adjacent","CB","3","2","M.jpg","N.jpg","1","0","0","",""
"","feedback","","html-keyboard-response","68","102166","0.0-1.0-87.0-0.0","0","0","79908","","null","","","null","9","","","","","","","","","","","","","","","",""
"","time_out","","html-keyboard-response","69","104169","0.0-1.0-89.0-0.0","0","0","79908","","null","","","null","9","","","","","","","","","","","","","","","",""
"","ITI","","html-keyboard-response","70","105170","0.0-1.0-90.0","0","0","79908","","null","","","null","9","","","","","","","","","","","","","","","NaN",""
"","S1","","html-keyboard-response","71","105422","0.0-1.0-92.0","0","0","79908","","null","","","null","10","","","","","","","","","","","","","","","",""
"","ISI","","html-keyboard-response","72","107425","0.0-1.0-93.0","0","0","79908","","null","","","null","10","NaN","","","","","","","","","","","","","","",""
"","S2","","html-keyboard-response","73","107678","0.0-1.0-94.0","0","0","79908","","null","","","null","10","","NaN","","","","","","","","","","","","","",""
"","response","","html-keyboard-response","74","108107","0.0-1.0-95.0-0.0","0","0","79908","","428","","","75","10","","","1","10","training","adjacent","EF","5","6","O.jpg","P.jpg","0","1","0","",""
"","feedback","","html-keyboard-response","75","109109","0.0-1.0-96.0-0.0","0","0","79908","","null","","","null","10","","","","","","","","","","","","","","","",""
"","time_out","","html-keyboard-response","76","111110","0.0-1.0-98.0-0.0","0","0","79908","","null","","","null","10","","","","","","","","","","","","","","","",""
"","ITI","","html-keyboard-response","77","112113","0.0-1.0-99.0","0","0","79908","","null","","","null","10","","","","","","","","","","","","","","","NaN",""
"","S1","","html-keyboard-response","78","112365","0.0-1.0-101.0","0","0","79908","","null","","","null","11","","","","","","","","","","","","","","","",""
"","ISI","","html-keyboard-response","79","114367","0.0-1.0-102.0","0","0","79908","","null","","","null","11","NaN","","","","","","","","","","","","","","",""
"","S2","","html-keyboard-response","80","114629","0.0-1.0-103.0","0","0","79908","","null","","","null","11","","NaN","","","","","","","","","","","","","",""
"","response","","html-keyboard-response","81","115018","0.0-1.0-104.0-0.0","0","0","79908","","388","","","75","11","","","1","11","training","adjacent","BC","2","3","N.jpg","M.jpg","0","1","0","",""
"","feedback","","html-keyboard-response","82","116020","0.0-1.0-105.0-0.0","0","0","79908","","null","","","null","11","","","","","","","","","","","","","","","",""
"","time_out","","html-keyboard-response","83","118023","0.0-1.0-107.0-0.0","0","0","79908","","null","","","null","11","","","","","","","","","","","","","","","",""
"","ITI","","html-keyboard-response","84","119024","0.0-1.0-108.0","0","0","79908","","null","","","null","11","","","","","","","","","","","","","","","NaN",""
"","S1","","html-keyboard-response","85","119277","0.0-1.0-110.0","0","0","79908","","null","","","null","12","","","","","","","","","","","","","","","",""
"","ISI","","html-keyboard-response","86","121279","0.0-1.0-111.0","0","0","79908","","null","","","null","12","NaN","","","","","","","","","","","","","","",""
"","S2","","html-keyboard-response","87","121531","0.0-1.0-112.0","0","0","79908","","null","","","null","12","","NaN","","","","","","","","","","","","","",""
"","response","","html-keyboard-response","88","122003","0.0-1.0-113.0-0.0","0","0","79908","","471","","","75","12","","","1","12","training","adjacent","GF","7","6","Q.jpg","P.jpg","0","0","1","",""
"","feedback","","html-keyboard-response","89","123006","0.0-1.0-114.0-0.0","0","0","79908","","null","","","null","12","","","","","","","","","","","","","","","",""
"","ITI","","html-keyboard-response","90","124008","0.0-1.0-117.0","0","0","79908","","null","","","null","12","","","","","","","","","","","","","","","NaN",""
"","S1","","html-keyboard-response","91","124260","0.0-1.0-119.0","0","0","79908","","null","","","null","13","","","","","","","","","","","","","","","",""
"","ISI","","html-keyboard-response","92","126262","0.0-1.0-120.0","0","0","79908","","null","","","null","13","NaN","","","","","","","","","","","","","","",""
"","S2","","html-keyboard-response","93","126514","0.0-1.0-121.0","0","0","79908","","null","","","null","13","","NaN","","","","","","","","","","","","","",""
"","response","","html-keyboard-response","94","127107","0.0-1.0-122.0-0.0","0","0","79908","","591","","","68","13","","","1","13","training","adjacent","FG","6","7","P.jpg","Q.jpg","1","1","1","",""
"","feedback","","html-keyboard-response","95","128108","0.0-1.0-123.0-0.0","0","0","79908","","null","","","null","13","","","","","","","","","","","","","","","",""
"","ITI","","html-keyboard-response","96","129110","0.0-1.0-126.0","0","0","79908","","null","","","null","13","","","","","","","","","","","","","","","NaN",""
"","S1","","html-keyboard-response","97","129363","0.0-1.0-128.0","0","0","79908","","null","","","null","14","","","","","","","","","","","","","","","",""
"","ISI","","html-keyboard-response","98","131364","0.0-1.0-129.0","0","0","79908","","null","","","null","14","NaN","","","","","","","","","","","","","","",""
"","S2","","html-keyboard-response","99","131616","0.0-1.0-130.0","0","0","79908","","null","","","null","14","","NaN","","","","","","","","","","","","","",""
"","response","","html-keyboard-response","100","132067","0.0-1.0-131.0-0.0","0","0","79908","","449","","","75","14","","","1","14","training","adjacent","CD","3","4","M.jpg","R.jpg","0","1","0","",""
"","feedback","","html-keyboard-response","101","133068","0.0-1.0-132.0-0.0","0","0","79908","","null","","","null","14","","","","","","","","","","","","","","","",""
"","time_out","","html-keyboard-response","102","135069","0.0-1.0-134.0-0.0","0","0","79908","","null","","","null","14","","","","","","","","","","","","","","","",""
"","ITI","","html-keyboard-response","103","136072","0.0-1.0-135.0","0","0","79908","","null","","","null","14","","","","","","","","","","","","","","","NaN",""
"","S1","","html-keyboard-response","104","136324","0.0-1.0-137.0","0","0","79908","","null","","","null","15","","","","","","","","","","","","","","","",""
"","ISI","","html-keyboard-response","105","138325","0.0-1.0-138.0","0","0","79908","","null","","","null","15","NaN","","","","","","","","","","","","","","",""
"","S2","","html-keyboard-response","106","138577","0.0-1.0-139.0","0","0","79908","","null","","","null","15","","NaN","","","","","","","","","","","","","",""
"","response","","html-keyboard-response","107","139083","0.0-1.0-140.0-0.0","0","0","79908","","504","","","75","15","","","1","15","training","adjacent","DE","4","5","R.jpg","O.jpg","0","1","0","",""
"","feedback","","html-keyboard-response","108","140085","0.0-1.0-141.0-0.0","0","0","79908","","null","","","null","15","","","","","","","","","","","","","","","",""
"","time_out","","html-keyboard-response","109","142087","0.0-1.0-143.0-0.0","0","0","79908","","null","","","null","15","","","","","","","","","","","","","","","",""
"","ITI","","html-keyboard-response","110","143090","0.0-1.0-144.0","0","0","79908","","null","","","null","15","","","","","","","","","","","","","","","NaN",""
"","S1","","html-keyboard-response","111","143342","0.0-1.0-146.0","0","0","79908","","null","","","null","16","","","","","","","","","","","","","","","",""
"","ISI","","html-keyboard-response","112","145344","0.0-1.0-147.0","0","0","79908","","null","","","null","16","NaN","","","","","","","","","","","","","","",""
"","S2","","html-keyboard-response","113","145595","0.0-1.0-148.0","0","0","79908","","null","","","null","16","","NaN","","","","","","","","","","","","","",""
"","response","","html-keyboard-response","114","146091","0.0-1.0-149.0-0.0","0","0","79908","","495","","","75","16","","","1","16","training","adjacent","DC","4","3","R.jpg","M.jpg","0","0","1","",""
"","feedback","","html-keyboard-response","115","147092","0.0-1.0-150.0-0.0","0","0","79908","","null","","","null","16","","","","","","","","","","","","","","","",""
"","ITI","","html-keyboard-response","116","148095","0.0-1.0-153.0","0","0","79908","","null","","","null","16","","","","","","","","","","","","","","","NaN",""
"","S1","","html-keyboard-response","117","148347","0.0-1.0-155.0","0","0","79908","","null","","","null","17","","","","","","","","","","","","","","","",""
"","ISI","","html-keyboard-response","118","150349","0.0-1.0-156.0","0","0","79908","","null","","","null","17","NaN","","","","","","","","","","","","","","",""
"","S2","","html-keyboard-response","119","150601","0.0-1.0-157.0","0","0","79908","","null","","","null","17","","NaN","","","","","","","","","","","","","",""
"","response","","html-keyboard-response","120","150963","0.0-1.0-158.0-0.0","0","0","79908","","360","","","75","17","","","1","17","training","adjacent","GF","7","6","Q.jpg","P.jpg","0","0","1","",""
"","feedback","","html-keyboard-response","121","151965","0.0-1.0-159.0-0.0","0","0","79908","","null","","","null","17","","","","","","","","","","","","","","","",""
"","ITI","","html-keyboard-response","122","152966","0.0-1.0-162.0","0","0","79908","","null","","","null","17","","","","","","","","","","","","","","","NaN",""
"","S1","","html-keyboard-response","123","153224","0.0-1.0-164.0","0","0","79908","","null","","","null","18","","","","","","","","","","","","","","","",""
"","ISI","","html-keyboard-response","124","155226","0.0-1.0-165.0","0","0","79908","","null","","","null","18","NaN","","","","","","","","","","","","","","",""
"","S2","","html-keyboard-response","125","155478","0.0-1.0-166.0","0","0","79908","","null","","","null","18","","NaN","","","","","","","","","","","","","",""
"","response","","html-keyboard-response","126","155819","0.0-1.0-167.0-0.0","0","0","79908","","339","","","68","18","","","1","18","training","adjacent","FE","6","5","P.jpg","O.jpg","1","0","0","",""
"","feedback","","html-keyboard-response","127","156821","0.0-1.0-168.0-0.0","0","0","79908","","null","","","null","18","","","","","","","","","","","","","","","",""
"","time_out","","html-keyboard-response","128","158822","0.0-1.0-170.0-0.0","0","0","79908","","null","","","null","18","","","","","","","","","","","","","","","",""
"","ITI","","html-keyboard-response","129","159824","0.0-1.0-171.0","0","0","79908","","null","","","null","18","","","","","","","","","","","","","","","NaN",""
"","S1","","html-keyboard-response","130","160076","0.0-1.0-173.0","0","0","79908","","null","","","null","19","","","","","","","","","","","","","","","",""
"","ISI","","html-keyboard-response","131","162079","0.0-1.0-174.0","0","0","79908","","null","","","null","19","NaN","","","","","","","","","","","","","","",""
"","S2","","html-keyboard-response","132","162331","0.0-1.0-175.0","0","0","79908","","null","","","null","19","","NaN","","","","","","","","","","","","","",""
"","response","","html-keyboard-response","133","163148","0.0-1.0-176.0-0.0","0","0","79908","","815","","","75","19","","","1","19","training","adjacent","FE","6","5","P.jpg","O.jpg","0","0","1","",""
"","feedback","","html-keyboard-response","134","164150","0.0-1.0-177.0-0.0","0","0","79908","","null","","","null","19","","","","","","","","","","","","","","","",""
"","ITI","","html-keyboard-response","135","165152","0.0-1.0-180.0","0","0","79908","","null","","","null","19","","","","","","","","","","","","","","","NaN",""
"","S1","","html-keyboard-response","136","165404","0.0-1.0-182.0","0","0","79908","","null","","","null","20","","","","","","","","","","","","","","","",""
"","ISI","","html-keyboard-response","137","167405","0.0-1.0-183.0","0","0","79908","","null","","","null","20","NaN","","","","","","","","","","","","","","",""
"","S2","","html-keyboard-response","138","167658","0.0-1.0-184.0","0","0","79908","","null","","","null","20","","NaN","","","","","","","","","","","","","",""
"","response","","html-keyboard-response","139","169410","0.0-1.0-185.0-0.0","0","0","79908","","null","","","null","20","","","1","20","training","adjacent","AB","1","2","L.jpg","N.jpg","NaN","1","0","",""
"","too_slow_prompt","","html-keyboard-response","140","170413","0.0-1.0-187.0-0.0","1","0","79908","","null","","","null","","","","","","","","","","","","","","","","",""
"","time_out","","html-keyboard-response","141","172416","0.0-1.0-188.0-0.0","0","0","79908","","null","","","null","20","","","","","","","","","","","","","","","",""
"","ITI","","html-keyboard-response","142","173417","0.0-1.0-189.0","0","0","79908","","null","","","null","20","","","","","","","","","","","","","","","NaN",""
"","S1","","html-keyboard-response","143","173670","0.0-1.0-191.0","0","0","79908","","null","","","null","21","","","","","","","","","","","","","","","",""
"","ISI","","html-keyboard-response","144","175672","0.0-1.0-192.0","0","0","79908","","null","","","null","21","NaN","","","","","","","","","","","","","","",""
"","S2","","html-keyboard-response","145","175924","0.0-1.0-193.0","0","0","79908","","null","","","null","21","","NaN","","","","","","","","","","","","","",""
"","response","","html-keyboard-response","146","176387","0.0-1.0-194.0-0.0","0","0","79908","","462","","","75","21","","","1","21","training","adjacent","CB","3","2","M.jpg","N.jpg","0","0","1","",""
"","feedback","","html-keyboard-response","147","177390","0.0-1.0-195.0-0.0","0","0","79908","","null","","","null","21","","","","","","","","","","","","","","","",""
"","ITI","","html-keyboard-response","148","178391","0.0-1.0-198.0","0","0","79908","","null","","","null","21","","","","","","","","","","","","","","","NaN",""
"","S1","","html-keyboard-response","149","178644","0.0-1.0-200.0","0","0","79908","","null","","","null","22","","","","","","","","","","","","","","","",""
"","ISI","","html-keyboard-response","150","180646","0.0-1.0-201.0","0","0","79908","","null","","","null","22","NaN","","","","","","","","","","","","","","",""
"","S2","","html-keyboard-response","151","180898","0.0-1.0-202.0","0","0","79908","","null","","","null","22","","NaN","","","","","","","","","","","","","",""
"","response","","html-keyboard-response","152","181571","0.0-1.0-203.0-0.0","0","0","79908","","672","","","68","22","","","1","22","training","adjacent","AB","1","2","L.jpg","N.jpg","1","1","1","",""
"","feedback","","html-keyboard-response","153","182573","0.0-1.0-204.0-0.0","0","0","79908","","null","","","null","22","","","","","","","","","","","","","","","",""
"","ITI","","html-keyboard-response","154","183574","0.0-1.0-207.0","0","0","79908","","null","","","null","22","","","","","","","","","","","","","","","NaN",""
"","S1","","html-keyboard-response","155","183827","0.0-1.0-209.0","0","0","79908","","null","","","null","23","","","","","","","","","","","","","","","",""
"","ISI","","html-keyboard-response","156","185828","0.0-1.0-210.0","0","0","79908","","null","","","null","23","NaN","","","","","","","","","","","","","","",""
"","S2","","html-keyboard-response","157","186081","0.0-1.0-211.0","0","0","79908","","null","","","null","23","","NaN","","","","","","","","","","","","","",""
"","response","","html-keyboard-response","158","186131","0.0-1.0-212.0-0.0","0","0","79908","","49","","","68","23","","","1","23","training","adjacent","BA","2","1","N.jpg","L.jpg","1","0","0","",""
"","feedback","","html-keyboard-response","159","187132","0.0-1.0-213.0-0.0","0","0","79908","","null","","","null","23","","","","","","","","","","","","","","","",""
"","time_out","","html-keyboard-response","160","189133","0.0-1.0-215.0-0.0","0","0","79908","","null","","","null","23","","","","","","","","","","","","","","","",""
"","ITI","","html-keyboard-response","161","190137","0.0-1.0-216.0","0","0","79908","","null","","","null","23","","","","","","","","","","","","","","","NaN",""
"","S1","","html-keyboard-response","162","190389","0.0-1.0-218.0","0","0","79908","","null","","","null","24","","","","","","","","","","","","","","","",""
"","ISI","","html-keyboard-response","163","192390","0.0-1.0-219.0","0","0","79908","","null","","","null","24","NaN","","","","","","","","","","","","","","",""
"","S2","","html-keyboard-response","164","192642","0.0-1.0-220.0","0","0","79908","","null","","","null","24","","NaN","","","","","","","","","","","","","",""
"","response","","html-keyboard-response","165","193011","0.0-1.0-221.0-0.0","0","0","79908","","368","","","68","24","","","1","24","training","adjacent","FE","6","5","P.jpg","O.jpg","1","0","0","",""
"","feedback","","html-keyboard-response","166","194013","0.0-1.0-222.0-0.0","0","0","79908","","null","","","null","24","","","","","","","","","","","","","","","",""
"","time_out","","html-keyboard-response","167","196015","0.0-1.0-224.0-0.0","0","0","79908","","null","","","null","24","","","","","","","","","","","","","","","",""
"","ITI","","html-keyboard-response","168","197016","0.0-1.0-225.0","0","0","79908","","null","","","null","24","","","","","","","","","","","","","","","NaN",""
"","S1","","html-keyboard-response","169","197269","0.0-1.0-227.0","0","0","79908","","null","","","null","25","","","","","","","","","","","","","","","",""
"","ISI","","html-keyboard-response","170","199271","0.0-1.0-228.0","0","0","79908","","null","","","null","25","NaN","","","","","","","","","","","","","","",""
"","S2","","html-keyboard-response","171","199523","0.0-1.0-229.0","0","0","79908","","null","","","null","25","","NaN","","","","","","","","","","","","","",""
"","response","","html-keyboard-response","172","200115","0.0-1.0-230.0-0.0","0","0","79908","","590","","","75","25","","","1","25","training","adjacent","BA","2","1","N.jpg","L.jpg","0","0","1","",""
"","feedback","","html-keyboard-response","173","201117","0.0-1.0-231.0-0.0","0","0","79908","","null","","","null","25","","","","","","","","","","","","","","","",""
"","ITI","","html-keyboard-response","174","202119","0.0-1.0-234.0","0","0","79908","","null","","","null","25","","","","","","","","","","","","","","","NaN",""
"","S1","","html-keyboard-response","175","202372","0.0-1.0-236.0","0","0","79908","","null","","","null","26","","","","","","","","","","","","","","","",""
"","ISI","","html-keyboard-response","176","204374","0.0-1.0-237.0","0","0","79908","","null","","","null","26","NaN","","","","","","","","","","","","","","",""
"","S2","","html-keyboard-response","177","204627","0.0-1.0-238.0","0","0","79908","","null","","","null","26","","NaN","","","","","","","","","","","","","",""
"","response","","html-keyboard-response","178","205883","0.0-1.0-239.0-0.0","0","0","79908","","1255","","","68","26","","","1","26","training","adjacent","BC","2","3","N.jpg","M.jpg","1","1","1","",""
"","feedback","","html-keyboard-response","179","206885","0.0-1.0-240.0-0.0","0","0","79908","","null","","","null","26","","","","","","","","","","","","","","","",""
"","ITI","","html-keyboard-response","180","207887","0.0-1.0-243.0","0","0","79908","","null","","","null","26","","","","","","","","","","","","","","","NaN",""
"","S1","","html-keyboard-response","181","208140","0.0-1.0-245.0","0","0","79908","","null","","","null","27","","","","","","","","","","","","","","","",""
"","ISI","","html-keyboard-response","182","210142","0.0-1.0-246.0","0","0","79908","","null","","","null","27","NaN","","","","","","","","","","","","","","",""
"","S2","","html-keyboard-response","183","210394","0.0-1.0-247.0","0","0","79908","","null","","","null","27","","NaN","","","","","","","","","","","","","",""
"","response","","html-keyboard-response","184","210723","0.0-1.0-248.0-0.0","0","0","79908","","328","","","68","27","","","1","27","training","adjacent","CB","3","2","M.jpg","N.jpg","1","0","0","",""
"","feedback","","html-keyboard-response","185","211725","0.0-1.0-249.0-0.0","0","0","79908","","null","","","null","27","","","","","","","","","","","","","","","",""
"","time_out","","html-keyboard-response","186","213727","0.0-1.0-251.0-0.0","0","0","79908","","null","","","null","27","","","","","","","","","","","","","","","",""
"","ITI","","html-keyboard-response","187","214729","0.0-1.0-252.0","0","0","79908","","null","","","null","27","","","","","","","","","","","","","","","NaN",""
"","S1","","html-keyboard-response","188","214981","0.0-1.0-254.0","0","0","79908","","null","","","null","28","","","","","","","","","","","","","","","",""
"","ISI","","html-keyboard-response","189","216984","0.0-1.0-255.0","0","0","79908","","null","","","null","28","NaN","","","","","","","","","","","","","","",""
"","S2","","html-keyboard-response","190","217236","0.0-1.0-256.0","0","0","79908","","null","","","null","28","","NaN","","","","","","","","","","","","","",""
"","response","","html-keyboard-response","191","217787","0.0-1.0-257.0-0.0","0","0","79908","","550","","","75","28","","","1","28","training","adjacent","ED","5","4","O.jpg","R.jpg","0","0","1","",""
"","feedback","","html-keyboard-response","192","218789","0.0-1.0-258.0-0.0","0","0","79908","","null","","","null","28","","","","","","","","","","","","","","","",""
"","ITI","","html-keyboard-response","193","219791","0.0-1.0-261.0","0","0","79908","","null","","","null","28","","","","","","","","","","","","","","","NaN",""
"","S1","","html-keyboard-response","194","220043","0.0-1.0-263.0","0","0","79908","","null","","","null","29","","","","","","","","","","","","","","","",""
"","ISI","","html-keyboard-response","195","222044","0.0-1.0-264.0","0","0","79908","","null","","","null","29","NaN","","","","","","","","","","","","","","",""
"","S2","","html-keyboard-response","196","222297","0.0-1.0-265.0","0","0","79908","","null","","","null","29","","NaN","","","","","","","","","","","","","",""
"","response","","html-keyboard-response","197","222763","0.0-1.0-266.0-0.0","0","0","79908","","465","","","75","29","","","1","29","training","adjacent","ED","5","4","O.jpg","R.jpg","0","0","1","",""
"","feedback","","html-keyboard-response","198","223766","0.0-1.0-267.0-0.0","0","0","79908","","null","","","null","29","","","","","","","","","","","","","","","",""
"","ITI","","html-keyboard-response","199","224769","0.0-1.0-270.0","0","0","79908","","null","","","null","29","","","","","","","","","","","","","","","NaN",""
"","S1","","html-keyboard-response","200","225022","0.0-1.0-272.0","0","0","79908","","null","","","null","30","","","","","","","","","","","","","","","",""
"","ISI","","html-keyboard-response","201","227024","0.0-1.0-273.0","0","0","79908","","null","","","null","30","NaN","","","","","","","","","","","","","","",""
"","S2","","html-keyboard-response","202","227276","0.0-1.0-274.0","0","0","79908","","null","","","null","30","","NaN","","","","","","","","","","","","","",""
"","response","","html-keyboard-response","203","227499","0.0-1.0-275.0-0.0","0","0","79908","","222","","","75","30","","","1","30","training","adjacent","DC","4","3","R.jpg","M.jpg","0","0","1","",""
"","feedback","","html-keyboard-response","204","228501","0.0-1.0-276.0-0.0","0","0","79908","","null","","","null","30","","","","","","","","","","","","","","","",""
"","ITI","","html-keyboard-response","205","229503","0.0-1.0-279.0","0","0","79908","","null","","","null","30","","","","","","","","","","","","","","","NaN",""
"","S1","","html-keyboard-response","206","229756","0.0-1.0-281.0","0","0","79908","","null","","","null","31","","","","","","","","","","","","","","","",""
"","ISI","","html-keyboard-response","207","231758","0.0-1.0-282.0","0","0","79908","","null","","","null","31","NaN","","","","","","","","","","","","","","",""
"","S2","","html-keyboard-response","208","232010","0.0-1.0-283.0","0","0","79908","","null","","","null","31","","NaN","","","","","","","","","","","","","",""
"","response","","html-keyboard-response","209","232179","0.0-1.0-284.0-0.0","0","0","79908","","168","","","75","31","","","1","31","training","adjacent","BC","2","3","N.jpg","M.jpg","0","1","0","",""
"","feedback","","html-keyboard-response","210","233180","0.0-1.0-285.0-0.0","0","0","79908","","null","","","null","31","","","","","","","","","","","","","","","",""
"","time_out","","html-keyboard-response","211","235182","0.0-1.0-287.0-0.0","0","0","79908","","null","","","null","31","","","","","","","","","","","","","","","",""
"","ITI","","html-keyboard-response","212","236184","0.0-1.0-288.0","0","0","79908","","null","","","null","31","","","","","","","","","","","","","","","NaN",""
"","S1","","html-keyboard-response","213","236436","0.0-1.0-290.0","0","0","79908","","null","","","null","32","","","","","","","","","","","","","","","",""
"","ISI","","html-keyboard-response","214","238438","0.0-1.0-291.0","0","0","79908","","null","","","null","32","NaN","","","","","","","","","","","","","","",""
"","S2","","html-keyboard-response","215","238690","0.0-1.0-292.0","0","0","79908","","null","","","null","32","","NaN","","","","","","","","","","","","","",""
"","response","","html-keyboard-response","216","239179","0.0-1.0-293.0-0.0","0","0","79908","","488","","","75","32","","","1","32","training","adjacent","AB","1","2","L.jpg","N.jpg","0","1","0","",""
"","feedback","","html-keyboard-response","217","240182","0.0-1.0-294.0-0.0","0","0","79908","","null","","","null","32","","","","","","","","","","","","","","","",""
"","time_out","","html-keyboard-response","218","242183","0.0-1.0-296.0-0.0","0","0","79908","","null","","","null","32","","","","","","","","","","","","","","","",""
"","ITI","","html-keyboard-response","219","243186","0.0-1.0-297.0","0","0","79908","","null","","","null","32","","","","","","","","","","","","","","","NaN",""
"","S1","","html-keyboard-response","220","243439","0.0-1.0-299.0","0","0","79908","","null","","","null","33","","","","","","","","","","","","","","","",""
"","ISI","","html-keyboard-response","221","245441","0.0-1.0-300.0","0","0","79908","","null","","","null","33","NaN","","","","","","","","","","","","","","",""
"","S2","","html-keyboard-response","222","245676","0.0-1.0-301.0","0","0","79908","","233","","","75","33","","k","1","33","training","adjacent","DC","4","3","R.jpg","M.jpg","0","0","1","",""
"","feedback","","html-keyboard-response","223","246680","0.0-1.0-303.0-0.0","0","0","79908","","null","","","null","33","","","","","","","","","","","","","","","",""
"","ITI","","html-keyboard-response","224","247681","0.0-1.0-306.0","0","0","79908","","null","","","null","33","","","","","","","","","","","","","","","NaN",""
"","S1","","html-keyboard-response","225","247934","0.0-1.0-308.0","0","0","79908","","null","","","null","34","","","","","","","","","","","","","","","",""
"","ISI","","html-keyboard-response","226","249937","0.0-1.0-309.0","0","0","79908","","null","","","null","34","NaN","","","","","","","","","","","","","","",""
"","S2","","html-keyboard-response","227","250195","0.0-1.0-310.0","0","0","79908","","null","","","null","34","","NaN","","","","","","","","","","","","","",""
"","response","","html-keyboard-response","228","250731","0.0-1.0-311.0-0.0","0","0","79908","","534","","","75","34","","","1","34","training","adjacent","FG","6","7","P.jpg","Q.jpg","0","1","0","",""
"","feedback","","html-keyboard-response","229","251733","0.0-1.0-312.0-0.0","0","0","79908","","null","","","null","34","","","","","","","","","","","","","","","",""
"","time_out","","html-keyboard-response","230","253735","0.0-1.0-314.0-0.0","0","0","79908","","null","","","null","34","","","","","","","","","","","","","","","",""
"","ITI","","html-keyboard-response","231","254736","0.0-1.0-315.0","0","0","79908","","null","","","null","34","","","","","","","","","","","","","","","NaN",""
"","S1","","html-keyboard-response","232","254988","0.0-1.0-317.0","0","0","79908","","null","","","null","35","","","","","","","","","","","","","","","",""
"","ISI","","html-keyboard-response","233","256991","0.0-1.0-318.0","0","0","79908","","null","","","null","35","NaN","","","","","","","","","","","","","","",""
"","S2","","html-keyboard-response","234","257243","0.0-1.0-319.0","0","0","79908","","null","","","null","35","","NaN","","","","","","","","","","","","","",""
"","response","","html-keyboard-response","235","257643","0.0-1.0-320.0-0.0","0","0","79908","","399","","","75","35","","","1","35","training","adjacent","CD","3","4","M.jpg","R.jpg","0","1","0","",""
"","feedback","","html-keyboard-response","236","258646","0.0-1.0-321.0-0.0","0","0","79908","","null","","","null","35","","","","","","","","","","","","","","","",""
"","time_out","","html-keyboard-response","237","260649","0.0-1.0-323.0-0.0","0","0","79908","","null","","","null","35","","","","","","","","","","","","","","","",""
"","ITI","","html-keyboard-response","238","261650","0.0-1.0-324.0","0","0","79908","","null","","","null","35","","","","","","","","","","","","","","","NaN",""
"","S1","","html-keyboard-response","239","261902","0.0-1.0-326.0","0","0","79908","","null","","","null","36","","","","","","","","","","","","","","","",""
"","ISI","","html-keyboard-response","240","263904","0.0-1.0-327.0","0","0","79908","","1540","","","68","36","d","","","","","","","","","","","","","","",""
"","S2","","html-keyboard-response","241","264156","0.0-1.0-328.0","0","0","79908","","null","","","null","36","","NaN","","","","","","","","","","","","","",""
"","response","","html-keyboard-response","242","264891","0.0-1.0-329.0-0.0","0","0","79908","","734","","","68","36","","","1","36","training","adjacent","DE","4","5","R.jpg","O.jpg","1","1","1","",""
"","feedback","","html-keyboard-response","243","265893","0.0-1.0-330.0-0.0","0","0","79908","","null","","","null","36","","","","","","","","","","","","","","","",""
"","ITI","","html-keyboard-response","244","266894","0.0-1.0-333.0","0","0","79908","","null","","","null","36","","","","","","","","","","","","","","","NaN",""
"","S1","","html-keyboard-response","245","267146","0.0-1.0-335.0","0","0","79908","","null","","","null","37","","","","","","","","","","","","","","","",""
"","ISI","","html-keyboard-response","246","269149","0.0-1.0-336.0","0","0","79908","","null","","","null","37","NaN","","","","","","","","","","","","","","",""
"","S2","","html-keyboard-response","247","269401","0.0-1.0-337.0","0","0","79908","","null","","","null","37","","NaN","","","","","","","","","","","","","",""
"","response","","html-keyboard-response","248","269915","0.0-1.0-338.0-0.0","0","0","79908","","513","","","75","37","","","1","37","training","adjacent","CD","3","4","M.jpg","R.jpg","0","1","0","",""
"","feedback","","html-keyboard-response","249","270918","0.0-1.0-339.0-0.0","0","0","79908","","null","","","null","37","","","","","","","","","","","","","","","",""
"","time_out","","html-keyboard-response","250","272924","0.0-1.0-341.0-0.0","0","0","79908","","null","","","null","37","","","","","","","","","","","","","","","",""
"","ITI","","html-keyboard-response","251","273926","0.0-1.0-342.0","0","0","79908","","null","","","null","37","","","","","","","","","","","","","","","NaN",""
"","S1","","html-keyboard-response","252","274187","0.0-1.0-344.0","0","0","79908","","null","","","null","38","","","","","","","","","","","","","","","",""
"","ISI","","html-keyboard-response","253","276189","0.0-1.0-345.0","0","0","79908","","null","","","null","38","NaN","","","","","","","","","","","","","","",""
"","S2","","html-keyboard-response","254","276440","0.0-1.0-346.0","0","0","79908","","null","","","null","38","","NaN","","","","","","","","","","","","","",""
"","response","","html-keyboard-response","255","277315","0.0-1.0-347.0-0.0","0","0","79908","","874","","","68","38","","","1","38","training","adjacent","FE","6","5","P.jpg","O.jpg","1","0","0","",""
"","feedback","","html-keyboard-response","256","278318","0.0-1.0-348.0-0.0","0","0","79908","","null","","","null","38","","","","","","","","","","","","","","","",""
"","time_out","","html-keyboard-response","257","280319","0.0-1.0-350.0-0.0","0","0","79908","","null","","","null","38","","","","","","","","","","","","","","","",""
"","ITI","","html-keyboard-response","258","281321","0.0-1.0-351.0","0","0","79908","","null","","","null","38","","","","","","","","","","","","","","","NaN",""
"","S1","","html-keyboard-response","259","281573","0.0-1.0-353.0","0","0","79908","","null","","","null","39","","","","","","","","","","","","","","","",""
"","ISI","","html-keyboard-response","260","283575","0.0-1.0-354.0","0","0","79908","","null","","","null","39","NaN","","","","","","","","","","","","","","",""
"","S2","","html-keyboard-response","261","283828","0.0-1.0-355.0","0","0","79908","","null","","","null","39","","NaN","","","","","","","","","","","","","",""
"","response","","html-keyboard-response","262","284131","0.0-1.0-356.0-0.0","0","0","79908","","302","","","68","39","","","1","39","training","adjacent","DE","4","5","R.jpg","O.jpg","1","1","1","",""
"","feedback","","html-keyboard-response","263","285133","0.0-1.0-357.0-0.0","0","0","79908","","null","","","null","39","","","","","","","","","","","","","","","",""
"","ITI","","html-keyboard-response","264","286135","0.0-1.0-360.0","0","0","79908","","null","","","null","39","","","","","","","","","","","","","","","NaN",""
"","S1","","html-keyboard-response","265","286388","0.0-1.0-362.0","0","0","79908","","null","","","null","40","","","","","","","","","","","","","","","",""
"","ISI","","html-keyboard-response","266","288390","0.0-1.0-363.0","0","0","79908","","null","","","null","40","NaN","","","","","","","","","","","","","","",""
"","S2","","html-keyboard-response","267","288642","0.0-1.0-364.0","0","0","79908","","null","","","null","40","","NaN","","","","","","","","","","","","","",""
"","response","","html-keyboard-response","268","289819","0.0-1.0-365.0-0.0","0","0","79908","","1176","","","68","40","","","1","40","training","adjacent","FG","6","7","P.jpg","Q.jpg","1","1","1","",""
"","feedback","","html-keyboard-response","269","290822","0.0-1.0-366.0-0.0","0","0","79908","","null","","","null","40","","","","","","","","","","","","","","","",""
"","ITI","","html-keyboard-response","270","291829","0.0-1.0-369.0","0","0","79908","","null","","","null","40","","","","","","","","","","","","","","","NaN",""
"","S1","","html-keyboard-response","271","292081","0.0-1.0-371.0","0","0","79908","","null","","","null","41","","","","","","","","","","","","","","","",""
"","ISI","","html-keyboard-response","272","294082","0.0-1.0-372.0","0","0","79908","","null","","","null","41","NaN","","","","","","","","","","","","","","",""
"","S2","","html-keyboard-response","273","294335","0.0-1.0-373.0","0","0","79908","","null","","","null","41","","NaN","","","","","","","","","","","","","",""
"","response","","html-keyboard-response","274","294979","0.0-1.0-374.0-0.0","0","0","79908","","642","","","75","41","","","1","41","training","adjacent","DE","4","5","R.jpg","O.jpg","0","1","0","",""
"","feedback","","html-keyboard-response","275","295981","0.0-1.0-375.0-0.0","0","0","79908","","null","","","null","41","","","","","","","","","","","","","","","",""
"","time_out","","html-keyboard-response","276","297983","0.0-1.0-377.0-0.0","0","0","79908","","null","","","null","41","","","","","","","","","","","","","","","",""
"","ITI","","html-keyboard-response","277","298984","0.0-1.0-378.0","0","0","79908","","null","","","null","41","","","","","","","","","","","","","","","NaN",""
"","S1","","html-keyboard-response","278","299236","0.0-1.0-380.0","0","0","79908","","null","","","null","42","","","","","","","","","","","","","","","",""
"","ISI","","html-keyboard-response","279","301239","0.0-1.0-381.0","0","0","79908","","null","","","null","42","NaN","","","","","","","","","","","","","","",""
"","S2","","html-keyboard-response","280","301490","0.0-1.0-382.0","0","0","79908","","null","","","null","42","","NaN","","","","","","","","","","","","","",""
"","response","","html-keyboard-response","281","302203","0.0-1.0-383.0-0.0","0","0","79908","","711","","","75","42","","","1","42","training","adjacent","BC","2","3","N.jpg","M.jpg","0","1","0","",""
"","feedback","","html-keyboard-response","282","303205","0.0-1.0-384.0-0.0","0","0","79908","","null","","","null","42","","","","","","","","","","","","","","","",""
"","time_out","","html-keyboard-response","283","305207","0.0-1.0-386.0-0.0","0","0","79908","","null","","","null","42","","","","","","","","","","","","","","","",""
"","ITI","","html-keyboard-response","284","306208","0.0-1.0-387.0","0","0","79908","","null","","","null","42","","","","","","","","","","","","","","","NaN",""
"","S1","","html-keyboard-response","285","306460","0.0-1.0-389.0","0","0","79908","","null","","","null","43","","","","","","","","","","","","","","","",""
"","ISI","","html-keyboard-response","286","308462","0.0-1.0-390.0","0","0","79908","","null","","","null","43","NaN","","","","","","","","","","","","","","",""
"","S2","","html-keyboard-response","287","308715","0.0-1.0-391.0","0","0","79908","","null","","","null","43","","NaN","","","","","","","","","","","","","",""
"","response","","html-keyboard-response","288","309140","0.0-1.0-392.0-0.0","0","0","79908","","424","","","75","43","","","1","43","training","adjacent","EF","5","6","O.jpg","P.jpg","0","1","0","",""
"","feedback","","html-keyboard-response","289","310143","0.0-1.0-393.0-0.0","0","0","79908","","null","","","null","43","","","","","","","","","","","","","","","",""
"","time_out","","html-keyboard-response","290","312144","0.0-1.0-395.0-0.0","0","0","79908","","null","","","null","43","","","","","","","","","","","","","","","",""
"","ITI","","html-keyboard-response","291","313146","0.0-1.0-396.0","0","0","79908","","null","","","null","43","","","","","","","","","","","","","","","NaN",""
"","S1","","html-keyboard-response","292","313398","0.0-1.0-398.0","0","0","79908","","null","","","null","44","","","","","","","","","","","","","","","",""
"","ISI","","html-keyboard-response","293","315400","0.0-1.0-399.0","0","0","79908","","null","","","null","44","NaN","","","","","","","","","","","","","","",""
"","S2","","html-keyboard-response","294","315652","0.0-1.0-400.0","0","0","79908","","null","","","null","44","","NaN","","","","","","","","","","","","","",""
"","response","","html-keyboard-response","295","317331","0.0-1.0-401.0-0.0","0","0","79908","","1678","","","68","44","","","1","44","training","adjacent","GF","7","6","Q.jpg","P.jpg","1","0","0","",""
"","feedback","","html-keyboard-response","296","318332","0.0-1.0-402.0-0.0","0","0","79908","","null","","","null","44","","","","","","","","","","","","","","","",""
"","time_out","","html-keyboard-response","297","320334","0.0-1.0-404.0-0.0","0","0","79908","","null","","","null","44","","","","","","","","","","","","","","","",""
"","ITI","","html-keyboard-response","298","321336","0.0-1.0-405.0","0","0","79908","","null","","","null","44","","","","","","","","","","","","","","","NaN",""
"","S1","","html-keyboard-response","299","321589","0.0-1.0-407.0","0","0","79908","","null","","","null","45","","","","","","","","","","","","","","","",""
"","ISI","","html-keyboard-response","300","323591","0.0-1.0-408.0","0","0","79908","","null","","","null","45","NaN","","","","","","","","","","","","","","",""
"","S2","","html-keyboard-response","301","323843","0.0-1.0-409.0","0","0","79908","","null","","","null","45","","NaN","","","","","","","","","","","","","",""
"","response","","html-keyboard-response","302","324491","0.0-1.0-410.0-0.0","0","0","79908","","647","","","68","45","","","1","45","training","adjacent","AB","1","2","L.jpg","N.jpg","1","1","1","",""
"","feedback","","html-keyboard-response","303","325493","0.0-1.0-411.0-0.0","0","0","79908","","null","","","null","45","","","","","","","","","","","","","","","",""
"","ITI","","html-keyboard-response","304","326495","0.0-1.0-414.0","0","0","79908","","null","","","null","45","","","","","","","","","","","","","","","NaN",""
"","S1","","html-keyboard-response","305","326747","0.0-1.0-416.0","0","0","79908","","null","","","null","46","","","","","","","","","","","","","","","",""
"","ISI","","html-keyboard-response","306","328749","0.0-1.0-417.0","0","0","79908","","null","","","null","46","NaN","","","","","","","","","","","","","","",""
"","S2","","html-keyboard-response","307","329002","0.0-1.0-418.0","0","0","79908","","null","","","null","46","","NaN","","","","","","","","","","","","","",""
"","response","","html-keyboard-response","308","330299","0.0-1.0-419.0-0.0","0","0","79908","","1296","","","68","46","","","1","46","training","adjacent","CB","3","2","M.jpg","N.jpg","1","0","0","",""
"","feedback","","html-keyboard-response","309","331301","0.0-1.0-420.0-0.0","0","0","79908","","null","","","null","46","","","","","","","","","","","","","","","",""
"","time_out","","html-keyboard-response","310","333303","0.0-1.0-422.0-0.0","0","0","79908","","null","","","null","46","","","","","","","","","","","","","","","",""
"","ITI","","html-keyboard-response","311","334305","0.0-1.0-423.0","0","0","79908","","null","","","null","46","","","","","","","","","","","","","","","NaN",""
"","S1","","html-keyboard-response","312","334572","0.0-1.0-425.0","0","0","79908","","null","","","null","47","","","","","","","","","","","","","","","",""
"","ISI","","html-keyboard-response","313","336575","0.0-1.0-426.0","0","0","79908","","null","","","null","47","NaN","","","","","","","","","","","","","","",""
"","S2","","html-keyboard-response","314","336826","0.0-1.0-427.0","0","0","79908","","null","","","null","47","","NaN","","","","","","","","","","","","","",""
"","response","","html-keyboard-response","315","337523","0.0-1.0-428.0-0.0","0","0","79908","","696","","","75","47","","","1","47","training","adjacent","EF","5","6","O.jpg","P.jpg","0","1","0","",""
"","feedback","","html-keyboard-response","316","338526","0.0-1.0-429.0-0.0","0","0","79908","","null","","","null","47","","","","","","","","","","","","","","","",""
"","time_out","","html-keyboard-response","317","340528","0.0-1.0-431.0-0.0","0","0","79908","","null","","","null","47","","","","","","","","","","","","","","","",""
"","ITI","","html-keyboard-response","318","341530","0.0-1.0-432.0","0","0","79908","","null","","","null","47","","","","","","","","","","","","","","","NaN",""
"","block_over","","html-keyboard-response","319","358380","0.0-1.0-433.0-0.0","0","0","79908","","16849","","","32","47","","","","","","","","","","","","","","","",""
"","S1","","html-keyboard-response","320","358632","0.0-1.0-434.0","0","0","79908","","null","","","null","48","","","","","","","","","","","","","","","",""
"","ISI","","html-keyboard-response","321","360634","0.0-1.0-435.0","0","0","79908","","null","","","null","48","NaN","","","","","","","","","","","","","","",""
"","S2","","html-keyboard-response","322","360886","0.0-1.0-436.0","0","0","79908","","null","","","null","48","","NaN","","","","","","","","","","","","","",""
"","response","","html-keyboard-response","323","362268","0.0-1.0-437.0-0.0","0","0","79908","","1380","","","75","48","","","2","48","training","adjacent","EF","5","6","O.jpg","P.jpg","0","1","0","",""
"","feedback","","html-keyboard-response","324","363271","0.0-1.0-438.0-0.0","0","0","79908","","null","","","null","48","","","","","","","","","","","","","","","",""
"","time_out","","html-keyboard-response","325","365273","0.0-1.0-440.0-0.0","0","0","79908","","null","","","null","48","","","","","","","","","","","","","","","",""
"","ITI","","html-keyboard-response","326","366274","0.0-1.0-441.0","0","0","79908","","null","","","null","48","","","","","","","","","","","","","","","NaN",""
"","S1","","html-keyboard-response","327","366526","0.0-1.0-443.0","0","0","79908","","null","","","null","49","","","","","","","","","","","","","","","",""
"","ISI","","html-keyboard-response","328","368529","0.0-1.0-444.0","0","0","79908","","null","","","null","49","NaN","","","","","","","","","","","","","","",""
"","S2","","html-keyboard-response","329","368782","0.0-1.0-445.0","0","0","79908","","null","","","null","49","","NaN","","","","","","","","","","","","","",""
"","response","","html-keyboard-response","330","369757","0.0-1.0-446.0-0.0","0","0","79908","","974","","","75","49","","","2","49","training","adjacent","AB","1","2","L.jpg","N.jpg","0","1","0","",""
"","feedback","","html-keyboard-response","331","370760","0.0-1.0-447.0-0.0","0","0","79908","","null","","","null","49","","","","","","","","","","","","","","","",""
"","time_out","","html-keyboard-response","332","372762","0.0-1.0-449.0-0.0","0","0","79908","","null","","","null","49","","","","","","","","","","","","","","","",""
"","ITI","","html-keyboard-response","333","373766","0.0-1.0-450.0","0","0","79908","","null","","","null","49","","","","","","","","","","","","","","","NaN",""
"","S1","","html-keyboard-response","334","374019","0.0-1.0-452.0","0","0","79908","","null","","","null","50","","","","","","","","","","","","","","","",""
"","ISI","","html-keyboard-response","335","376020","0.0-1.0-453.0","0","0","79908","","null","","","null","50","NaN","","","","","","","","","","","","","","",""
"","S2","","html-keyboard-response","336","376273","0.0-1.0-454.0","0","0","79908","","null","","","null","50","","NaN","","","","","","","","","","","","","",""
"","response","","html-keyboard-response","337","377300","0.0-1.0-455.0-0.0","0","0","79908","","1026","","","75","50","","","2","50","training","adjacent","CD","3","4","M.jpg","R.jpg","0","1","0","",""
"","feedback","","html-keyboard-response","338","378303","0.0-1.0-456.0-0.0","0","0","79908","","null","","","null","50","","","","","","","","","","","","","","","",""
"","time_out","","html-keyboard-response","339","380305","0.0-1.0-458.0-0.0","0","0","79908","","null","","","null","50","","","","","","","","","","","","","","","",""
"","ITI","","html-keyboard-response","340","381307","0.0-1.0-459.0","0","0","79908","","null","","","null","50","","","","","","","","","","","","","","","NaN",""
"","S1","","html-keyboard-response","341","381560","0.0-1.0-461.0","0","0","79908","","null","","","null","51","","","","","","","","","","","","","","","",""
"","ISI","","html-keyboard-response","342","383561","0.0-1.0-462.0","0","0","79908","","null","","","null","51","NaN","","","","","","","","","","","","","","",""
"","S2","","html-keyboard-response","343","383813","0.0-1.0-463.0","0","0","79908","","null","","","null","51","","NaN","","","","","","","","","","","","","",""
"","response","","html-keyboard-response","344","384412","0.0-1.0-464.0-0.0","0","0","79908","","598","","","75","51","","","2","51","training","adjacent","DC","4","3","R.jpg","M.jpg","0","0","1","",""
"","feedback","","html-keyboard-response","345","385414","0.0-1.0-465.0-0.0","0","0","79908","","null","","","null","51","","","","","","","","","","","","","","","",""
"","ITI","","html-keyboard-response","346","386416","0.0-1.0-468.0","0","0","79908","","null","","","null","51","","","","","","","","","","","","","","","NaN",""
"","S1","","html-keyboard-response","347","386669","0.0-1.0-470.0","0","0","79908","","null","","","null","52","","","","","","","","","","","","","","","",""
"","ISI","","html-keyboard-response","348","388671","0.0-1.0-471.0","0","0","79908","","null","","","null","52","NaN","","","","","","","","","","","","","","",""
"","S2","","html-keyboard-response","349","388923","0.0-1.0-472.0","0","0","79908","","null","","","null","52","","NaN","","","","","","","","","","","","","",""
"","response","","html-keyboard-response","350","389396","0.0-1.0-473.0-0.0","0","0","79908","","472","","","75","52","","","2","52","training","adjacent","DE","4","5","R.jpg","O.jpg","0","1","0","",""
"","feedback","","html-keyboard-response","351","390399","0.0-1.0-474.0-0.0","0","0","79908","","null","","","null","52","","","","","","","","","","","","","","","",""
"","time_out","","html-keyboard-response","352","392400","0.0-1.0-476.0-0.0","0","0","79908","","null","","","null","52","","","","","","","","","","","","","","","",""
"","ITI","","html-keyboard-response","353","393403","0.0-1.0-477.0","0","0","79908","","null","","","null","52","","","","","","","","","","","","","","","NaN",""
"","S1","","html-keyboard-response","354","393655","0.0-1.0-479.0","0","0","79908","","null","","","null","53","","","","","","","","","","","","","","","",""
"","ISI","","html-keyboard-response","355","395657","0.0-1.0-480.0","0","0","79908","","null","","","null","53","NaN","","","","","","","","","","","","","","",""
"","S2","","html-keyboard-response","356","395909","0.0-1.0-481.0","0","0","79908","","null","","","null","53","","NaN","","","","","","","","","","","","","",""
"","response","","html-keyboard-response","357","396644","0.0-1.0-482.0-0.0","0","0","79908","","734","","","75","53","","","2","53","training","adjacent","FE","6","5","P.jpg","O.jpg","0","0","1","",""
"","feedback","","html-keyboard-response","358","397647","0.0-1.0-483.0-0.0","0","0","79908","","null","","","null","53","","","","","","","","","","","","","","","",""
"","ITI","","html-keyboard-response","359","398650","0.0-1.0-486.0","0","0","79908","","null","","","null","53","","","","","","","","","","","","","","","NaN",""
"","S1","","html-keyboard-response","360","398902","0.0-1.0-488.0","0","0","79908","","null","","","null","54","","","","","","","","","","","","","","","",""
"","ISI","","html-keyboard-response","361","400904","0.0-1.0-489.0","0","0","79908","","null","","","null","54","NaN","","","","","","","","","","","","","","",""
"","S2","","html-keyboard-response","362","401157","0.0-1.0-490.0","0","0","79908","","null","","","null","54","","NaN","","","","","","","","","","","","","",""
"","response","","html-keyboard-response","363","401917","0.0-1.0-491.0-0.0","0","0","79908","","760","","","68","54","","","2","54","training","adjacent","CD","3","4","M.jpg","R.jpg","1","1","1","",""
"","feedback","","html-keyboard-response","364","402921","0.0-1.0-492.0-0.0","0","0","79908","","null","","","null","54","","","","","","","","","","","","","","","",""
"","ITI","","html-keyboard-response","365","403923","0.0-1.0-495.0","0","0","79908","","null","","","null","54","","","","","","","","","","","","","","","NaN",""
"","S1","","html-keyboard-response","366","404175","0.0-1.0-497.0","0","0","79908","","null","","","null","55","","","","","","","","","","","","","","","",""
"","ISI","","html-keyboard-response","367","406177","0.0-1.0-498.0","0","0","79908","","null","","","null","55","NaN","","","","","","","","","","","","","","",""
"","S2","","html-keyboard-response","368","406429","0.0-1.0-499.0","0","0","79908","","null","","","null","55","","NaN","","","","","","","","","","","","","",""
"","response","","html-keyboard-response","369","407060","0.0-1.0-500.0-0.0","0","0","79908","","630","","","75","55","","","2","55","training","adjacent","GF","7","6","Q.jpg","P.jpg","0","0","1","",""
"","feedback","","html-keyboard-response","370","408064","0.0-1.0-501.0-0.0","0","0","79908","","null","","","null","55","","","","","","","","","","","","","","","",""
"","ITI","","html-keyboard-response","371","409066","0.0-1.0-504.0","0","0","79908","","null","","","null","55","","","","","","","","","","","","","","","NaN",""
"","S1","","html-keyboard-response","372","409318","0.0-1.0-506.0","0","0","79908","","null","","","null","56","","","","","","","","","","","","","","","",""
"","ISI","","html-keyboard-response","373","411320","0.0-1.0-507.0","0","0","79908","","null","","","null","56","NaN","","","","","","","","","","","","","","",""
"","S2","","html-keyboard-response","374","411573","0.0-1.0-508.0","0","0","79908","","null","","","null","56","","NaN","","","","","","","","","","","","","",""
"","response","","html-keyboard-response","375","412692","0.0-1.0-509.0-0.0","0","0","79908","","1118","","","68","56","","","2","56","training","adjacent","EF","5","6","O.jpg","P.jpg","1","1","1","",""
"","feedback","","html-keyboard-response","376","413694","0.0-1.0-510.0-0.0","0","0","79908","","null","","","null","56","","","","","","","","","","","","","","","",""
"","ITI","","html-keyboard-response","377","414697","0.0-1.0-513.0","0","0","79908","","null","","","null","56","","","","","","","","","","","","","","","NaN",""
"","S1","","html-keyboard-response","378","414950","0.0-1.0-515.0","0","0","79908","","null","","","null","57","","","","","","","","","","","","","","","",""
"","ISI","","html-keyboard-response","379","416951","0.0-1.0-516.0","0","0","79908","","null","","","null","57","NaN","","","","","","","","","","","","","","",""
"","S2","","html-keyboard-response","380","417203","0.0-1.0-517.0","0","0","79908","","null","","","null","57","","NaN","","","","","","","","","","","","","",""
"","response","","html-keyboard-response","381","418403","0.0-1.0-518.0-0.0","0","0","79908","","1199","","","75","57","","","2","57","training","adjacent","GF","7","6","Q.jpg","P.jpg","0","0","1","",""
"","feedback","","html-keyboard-response","382","419406","0.0-1.0-519.0-0.0","0","0","79908","","null","","","null","57","","","","","","","","","","","","","","","",""
"","ITI","","html-keyboard-response","383","420408","0.0-1.0-522.0","0","0","79908","","null","","","null","57","","","","","","","","","","","","","","","NaN",""
"","S1","","html-keyboard-response","384","420659","0.0-1.0-524.0","0","0","79908","","null","","","null","58","","","","","","","","","","","","","","","",""
"","ISI","","html-keyboard-response","385","422662","0.0-1.0-525.0","0","0","79908","","null","","","null","58","NaN","","","","","","","","","","","","","","",""
"","S2","","html-keyboard-response","386","422915","0.0-1.0-526.0","0","0","79908","","null","","","null","58","","NaN","","","","","","","","","","","","","",""
"","response","","html-keyboard-response","387","423420","0.0-1.0-527.0-0.0","0","0","79908","","504","","","68","58","","","2","58","training","adjacent","BC","2","3","N.jpg","M.jpg","1","1","1","",""
"","feedback","","html-keyboard-response","388","424422","0.0-1.0-528.0-0.0","0","0","79908","","null","","","null","58","","","","","","","","","","","","","","","",""
"","ITI","","html-keyboard-response","389","425424","0.0-1.0-531.0","0","0","79908","","null","","","null","58","","","","","","","","","","","","","","","NaN",""
"","S1","","html-keyboard-response","390","425677","0.0-1.0-533.0","0","0","79908","","null","","","null","59","","","","","","","","","","","","","","","",""
"","ISI","","html-keyboard-response","391","427679","0.0-1.0-534.0","0","0","79908","","null","","","null","59","NaN","","","","","","","","","","","","","","",""
"","S2","","html-keyboard-response","392","427931","0.0-1.0-535.0","0","0","79908","","null","","","null","59","","NaN","","","","","","","","","","","","","",""
"","response","","html-keyboard-response","393","428564","0.0-1.0-536.0-0.0","0","0","79908","","632","","","68","59","","","2","59","training","adjacent","ED","5","4","O.jpg","R.jpg","1","0","0","",""
"","feedback","","html-keyboard-response","394","429566","0.0-1.0-537.0-0.0","0","0","79908","","null","","","null","59","","","","","","","","","","","","","","","",""
"","time_out","","html-keyboard-response","395","431568","0.0-1.0-539.0-0.0","0","0","79908","","null","","","null","59","","","","","","","","","","","","","","","",""
"","ITI","","html-keyboard-response","396","432569","0.0-1.0-540.0","0","0","79908","","null","","","null","59","","","","","","","","","","","","","","","NaN",""
"","S1","","html-keyboard-response","397","432822","0.0-1.0-542.0","0","0","79908","","null","","","null","60","","","","","","","","","","","","","","","",""
"","ISI","","html-keyboard-response","398","434823","0.0-1.0-543.0","0","0","79908","","null","","","null","60","NaN","","","","","","","","","","","","","","",""
"","S2","","html-keyboard-response","399","435076","0.0-1.0-544.0","0","0","79908","","null","","","null","60","","NaN","","","","","","","","","","","","","",""
"","response","","html-keyboard-response","400","435619","0.0-1.0-545.0-0.0","0","0","79908","","542","","","75","60","","","2","60","training","adjacent","DE","4","5","R.jpg","O.jpg","0","1","0","",""
"","feedback","","html-keyboard-response","401","436621","0.0-1.0-546.0-0.0","0","0","79908","","null","","","null","60","","","","","","","","","","","","","","","",""
"","time_out","","html-keyboard-response","402","438624","0.0-1.0-548.0-0.0","0","0","79908","","null","","","null","60","","","","","","","","","","","","","","","",""
"","ITI","","html-keyboard-response","403","439626","0.0-1.0-549.0","0","0","79908","","null","","","null","60","","","","","","","","","","","","","","","NaN",""
"","S1","","html-keyboard-response","404","439878","0.0-1.0-551.0","0","0","79908","","null","","","null","61","","","","","","","","","","","","","","","",""
"","ISI","","html-keyboard-response","405","441880","0.0-1.0-552.0","0","0","79908","","null","","","null","61","NaN","","","","","","","","","","","","","","",""
"","S2","","html-keyboard-response","406","442132","0.0-1.0-553.0","0","0","79908","","null","","","null","61","","NaN","","","","","","","","","","","","","",""
"","response","","html-keyboard-response","407","443611","0.0-1.0-554.0-0.0","0","0","79908","","1478","","","75","61","","","2","61","training","adjacent","FG","6","7","P.jpg","Q.jpg","0","1","0","",""
"","feedback","","html-keyboard-response","408","444613","0.0-1.0-555.0-0.0","0","0","79908","","null","","","null","61","","","","","","","","","","","","","","","",""
"","time_out","","html-keyboard-response","409","446616","0.0-1.0-557.0-0.0","0","0","79908","","null","","","null","61","","","","","","","","","","","","","","","",""
"","ITI","","html-keyboard-response","410","447618","0.0-1.0-558.0","0","0","79908","","null","","","null","61","","","","","","","","","","","","","","","NaN",""
"","S1","","html-keyboard-response","411","447870","0.0-1.0-560.0","0","0","79908","","null","","","null","62","","","","","","","","","","","","","","","",""
"","ISI","","html-keyboard-response","412","449871","0.0-1.0-561.0","0","0","79908","","null","","","null","62","NaN","","","","","","","","","","","","","","",""
"","S2","","html-keyboard-response","413","450123","0.0-1.0-562.0","0","0","79908","","null","","","null","62","","NaN","","","","","","","","","","","","","",""
"","response","","html-keyboard-response","414","451083","0.0-1.0-563.0-0.0","0","0","79908","","959","","","75","62","","","2","62","training","adjacent","GF","7","6","Q.jpg","P.jpg","0","0","1","",""
"","feedback","","html-keyboard-response","415","452085","0.0-1.0-564.0-0.0","0","0","79908","","null","","","null","62","","","","","","","","","","","","","","","",""
"","ITI","","html-keyboard-response","416","453088","0.0-1.0-567.0","0","0","79908","","null","","","null","62","","","","","","","","","","","","","","","NaN",""
"","S1","","html-keyboard-response","417","453339","0.0-1.0-569.0","0","0","79908","","null","","","null","63","","","","","","","","","","","","","","","",""
"","ISI","","html-keyboard-response","418","455341","0.0-1.0-570.0","0","0","79908","","null","","","null","63","NaN","","","","","","","","","","","","","","",""
"","S2","","html-keyboard-response","419","455594","0.0-1.0-571.0","0","0","79908","","null","","","null","63","","NaN","","","","","","","","","","","","","",""
"","response","","html-keyboard-response","420","456276","0.0-1.0-572.0-0.0","0","0","79908","","680","","","68","63","","","2","63","training","adjacent","ED","5","4","O.jpg","R.jpg","1","0","0","",""
"","feedback","","html-keyboard-response","421","457278","0.0-1.0-573.0-0.0","0","0","79908","","null","","","null","63","","","","","","","","","","","","","","","",""
"","time_out","","html-keyboard-response","422","459283","0.0-1.0-575.0-0.0","0","0","79908","","null","","","null","63","","","","","","","","","","","","","","","",""
"","ITI","","html-keyboard-response","423","460285","0.0-1.0-576.0","0","0","79908","","null","","","null","63","","","","","","","","","","","","","","","NaN",""
"","S1","","html-keyboard-response","424","460537","0.0-1.0-578.0","0","0","79908","","null","","","null","64","","","","","","","","","","","","","","","",""
"","ISI","","html-keyboard-response","425","462539","0.0-1.0-579.0","0","0","79908","","null","","","null","64","NaN","","","","","","","","","","","","","","",""
"","S2","","html-keyboard-response","426","462791","0.0-1.0-580.0","0","0","79908","","null","","","null","64","","NaN","","","","","","","","","","","","","",""
"","response","","html-keyboard-response","427","463083","0.0-1.0-581.0-0.0","0","0","79908","","292","","","75","64","","","2","64","training","adjacent","GF","7","6","Q.jpg","P.jpg","0","0","1","",""
"","feedback","","html-keyboard-response","428","464086","0.0-1.0-582.0-0.0","0","0","79908","","null","","","null","64","","","","","","","","","","","","","","","",""
"","ITI","","html-keyboard-response","429","465089","0.0-1.0-585.0","0","0","79908","","null","","","null","64","","","","","","","","","","","","","","","NaN",""
"","S1","","html-keyboard-response","430","465341","0.0-1.0-587.0","0","0","79908","","null","","","null","65","","","","","","","","","","","","","","","",""
"","ISI","","html-keyboard-response","431","467343","0.0-1.0-588.0","0","0","79908","","null","","","null","65","NaN","","","","","","","","","","","","","","",""
"","S2","","html-keyboard-response","432","467594","0.0-1.0-589.0","0","0","79908","","null","","","null","65","","NaN","","","","","","","","","","","","","",""
"","response","","html-keyboard-response","433","469164","0.0-1.0-590.0-0.0","0","0","79908","","1568","","","75","65","","","2","65","training","adjacent","BA","2","1","N.jpg","L.jpg","0","0","1","",""
"","feedback","","html-keyboard-response","434","470166","0.0-1.0-591.0-0.0","0","0","79908","","null","","","null","65","","","","","","","","","","","","","","","",""
"","ITI","","html-keyboard-response","435","471168","0.0-1.0-594.0","0","0","79908","","null","","","null","65","","","","","","","","","","","","","","","NaN",""
"","S1","","html-keyboard-response","436","471421","0.0-1.0-596.0","0","0","79908","","null","","","null","66","","","","","","","","","","","","","","","",""
"","ISI","","html-keyboard-response","437","473422","0.0-1.0-597.0","0","0","79908","","null","","","null","66","NaN","","","","","","","","","","","","","","",""
"","S2","","html-keyboard-response","438","473675","0.0-1.0-598.0","0","0","79908","","null","","","null","66","","NaN","","","","","","","","","","","","","",""
"","response","","html-keyboard-response","439","474075","0.0-1.0-599.0-0.0","0","0","79908","","398","","","75","66","","","2","66","training","adjacent","BA","2","1","N.jpg","L.jpg","0","0","1","",""
"","feedback","","html-keyboard-response","440","475078","0.0-1.0-600.0-0.0","0","0","79908","","null","","","null","66","","","","","","","","","","","","","","","",""
"","ITI","","html-keyboard-response","441","476080","0.0-1.0-603.0","0","0","79908","","null","","","null","66","","","","","","","","","","","","","","","NaN",""
"","S1","","html-keyboard-response","442","476332","0.0-1.0-605.0","0","0","79908","","null","","","null","67","","","","","","","","","","","","","","","",""
"","ISI","","html-keyboard-response","443","478334","0.0-1.0-606.0","0","0","79908","","null","","","null","67","NaN","","","","","","","","","","","","","","",""
"","S2","","html-keyboard-response","444","478586","0.0-1.0-607.0","0","0","79908","","null","","","null","67","","NaN","","","","","","","","","","","","","",""
"","response","","html-keyboard-response","445","478835","0.0-1.0-608.0-0.0","0","0","79908","","248","","","68","67","","","2","67","training","adjacent","AB","1","2","L.jpg","N.jpg","1","1","1","",""
"","feedback","","html-keyboard-response","446","479837","0.0-1.0-609.0-0.0","0","0","79908","","null","","","null","67","","","","","","","","","","","","","","","",""
"","ITI","","html-keyboard-response","447","480840","0.0-1.0-612.0","0","0","79908","","null","","","null","67","","","","","","","","","","","","","","","NaN",""
"","S1","","html-keyboard-response","448","481093","0.0-1.0-614.0","0","0","79908","","null","","","null","68","","","","","","","","","","","","","","","",""
"","ISI","","html-keyboard-response","449","483096","0.0-1.0-615.0","0","0","79908","","null","","","null","68","NaN","","","","","","","","","","","","","","",""
"","S2","","html-keyboard-response","450","483348","0.0-1.0-616.0","0","0","79908","","null","","","null","68","","NaN","","","","","","","","","","","","","",""
"","response","","html-keyboard-response","451","484116","0.0-1.0-617.0-0.0","0","0","79908","","766","","","68","68","","","2","68","training","adjacent","DC","4","3","R.jpg","M.jpg","1","0","0","",""
"","feedback","","html-keyboard-response","452","485119","0.0-1.0-618.0-0.0","0","0","79908","","null","","","null","68","","","","","","","","","","","","","","","",""
"","time_out","","html-keyboard-response","453","487121","0.0-1.0-620.0-0.0","0","0","79908","","null","","","null","68","","","","","","","","","","","","","","","",""
"","ITI","","html-keyboard-response","454","488123","0.0-1.0-621.0","0","0","79908","","null","","","null","68","","","","","","","","","","","","","","","NaN",""
"","S1","","html-keyboard-response","455","488376","0.0-1.0-623.0","0","0","79908","","null","","","null","69","","","","","","","","","","","","","","","",""
"","ISI","","html-keyboard-response","456","490379","0.0-1.0-624.0","0","0","79908","","null","","","null","69","NaN","","","","","","","","","","","","","","",""
"","S2","","html-keyboard-response","457","490632","0.0-1.0-625.0","0","0","79908","","null","","","null","69","","NaN","","","","","","","","","","","","","",""
"","response","","html-keyboard-response","458","491204","0.0-1.0-626.0-0.0","0","0","79908","","570","","","68","69","","","2","69","training","adjacent","ED","5","4","O.jpg","R.jpg","1","0","0","",""
"","feedback","","html-keyboard-response","459","492205","0.0-1.0-627.0-0.0","0","0","79908","","null","","","null","69","","","","","","","","","","","","","","","",""
"","time_out","","html-keyboard-response","460","494207","0.0-1.0-629.0-0.0","0","0","79908","","null","","","null","69","","","","","","","","","","","","","","","",""
"","ITI","","html-keyboard-response","461","495209","0.0-1.0-630.0","0","0","79908","","null","","","null","69","","","","","","","","","","","","","","","NaN",""
"","S1","","html-keyboard-response","462","495461","0.0-1.0-632.0","0","0","79908","","null","","","null","70","","","","","","","","","","","","","","","",""
"","ISI","","html-keyboard-response","463","497463","0.0-1.0-633.0","0","0","79908","","null","","","null","70","NaN","","","","","","","","","","","","","","",""
"","S2","","html-keyboard-response","464","497715","0.0-1.0-634.0","0","0","79908","","null","","","null","70","","NaN","","","","","","","","","","","","","",""
"","response","","html-keyboard-response","465","498252","0.0-1.0-635.0-0.0","0","0","79908","","535","","","68","70","","","2","70","training","adjacent","CB","3","2","M.jpg","N.jpg","1","0","0","",""
"","feedback","","html-keyboard-response","466","499255","0.0-1.0-636.0-0.0","0","0","79908","","null","","","null","70","","","","","","","","","","","","","","","",""
"","time_out","","html-keyboard-response","467","501257","0.0-1.0-638.0-0.0","0","0","79908","","null","","","null","70","","","","","","","","","","","","","","","",""
"","ITI","","html-keyboard-response","468","502258","0.0-1.0-639.0","0","0","79908","","null","","","null","70","","","","","","","","","","","","","","","NaN",""
"","S1","","html-keyboard-response","469","502511","0.0-1.0-641.0","0","0","79908","","null","","","null","71","","","","","","","","","","","","","","","",""
"","ISI","","html-keyboard-response","470","504514","0.0-1.0-642.0","0","0","79908","","null","","","null","71","NaN","","","","","","","","","","","","","","",""
"","S2","","html-keyboard-response","471","504766","0.0-1.0-643.0","0","0","79908","","null","","","null","71","","NaN","","","","","","","","","","","","","",""
"","response","","html-keyboard-response","472","504931","0.0-1.0-644.0-0.0","0","0","79908","","164","","","75","71","","","2","71","training","adjacent","CB","3","2","M.jpg","N.jpg","0","0","1","",""
"","feedback","","html-keyboard-response","473","505933","0.0-1.0-645.0-0.0","0","0","79908","","null","","","null","71","","","","","","","","","","","","","","","",""
"","ITI","","html-keyboard-response","474","506936","0.0-1.0-648.0","0","0","79908","","null","","","null","71","","","","","","","","","","","","","","","NaN",""
"","S1","","html-keyboard-response","475","507189","0.0-1.0-650.0","0","0","79908","","null","","","null","72","","","","","","","","","","","","","","","",""
"","ISI","","html-keyboard-response","476","509190","0.0-1.0-651.0","0","0","79908","","null","","","null","72","NaN","","","","","","","","","","","","","","",""
"","S2","","html-keyboard-response","477","509442","0.0-1.0-652.0","0","0","79908","","null","","","null","72","","NaN","","","","","","","","","","","","","",""
"","response","","html-keyboard-response","478","509892","0.0-1.0-653.0-0.0","0","0","79908","","448","","","68","72","","","2","72","training","adjacent","BC","2","3","N.jpg","M.jpg","1","1","1","",""
"","feedback","","html-keyboard-response","479","510894","0.0-1.0-654.0-0.0","0","0","79908","","null","","","null","72","","","","","","","","","","","","","","","",""
"","ITI","","html-keyboard-response","480","511896","0.0-1.0-657.0","0","0","79908","","null","","","null","72","","","","","","","","","","","","","","","NaN",""
"","S1","","html-keyboard-response","481","512148","0.0-1.0-659.0","0","0","79908","","null","","","null","73","","","","","","","","","","","","","","","",""
"","ISI","","html-keyboard-response","482","514150","0.0-1.0-660.0","0","0","79908","","null","","","null","73","NaN","","","","","","","","","","","","","","",""
"","S2","","html-keyboard-response","483","514402","0.0-1.0-661.0","0","0","79908","","null","","","null","73","","NaN","","","","","","","","","","","","","",""
"","response","","html-keyboard-response","484","514716","0.0-1.0-662.0-0.0","0","0","79908","","312","","","68","73","","","2","73","training","adjacent","BC","2","3","N.jpg","M.jpg","1","1","1","",""
"","feedback","","html-keyboard-response","485","515718","0.0-1.0-663.0-0.0","0","0","79908","","null","","","null","73","","","","","","","","","","","","","","","",""
"","ITI","","html-keyboard-response","486","516720","0.0-1.0-666.0","0","0","79908","","null","","","null","73","","","","","","","","","","","","","","","NaN",""
"","S1","","html-keyboard-response","487","516973","0.0-1.0-668.0","0","0","79908","","null","","","null","74","","","","","","","","","","","","","","","",""
"","ISI","","html-keyboard-response","488","518974","0.0-1.0-669.0","0","0","79908","","null","","","null","74","NaN","","","","","","","","","","","","","","",""
"","S2","","html-keyboard-response","489","519226","0.0-1.0-670.0","0","0","79908","","null","","","null","74","","NaN","","","","","","","","","","","","","",""
"","response","","html-keyboard-response","490","520978","0.0-1.0-671.0-0.0","0","0","79908","","null","","","null","74","","","2","74","training","adjacent","DC","4","3","R.jpg","M.jpg","NaN","0","0","",""
"","too_slow_prompt","","html-keyboard-response","491","521980","0.0-1.0-673.0-0.0","1","0","79908","","null","","","null","","","","","","","","","","","","","","","","",""
"","time_out","","html-keyboard-response","492","523983","0.0-1.0-674.0-0.0","0","0","79908","","null","","","null","74","","","","","","","","","","","","","","","",""
"","ITI","","html-keyboard-response","493","524985","0.0-1.0-675.0","0","0","79908","","null","","","null","74","","","","","","","","","","","","","","","NaN",""
"","S1","","html-keyboard-response","494","525237","0.0-1.0-677.0","0","0","79908","","null","","","null","75","","","","","","","","","","","","","","","",""
"","ISI","","html-keyboard-response","495","527239","0.0-1.0-678.0","0","0","79908","","null","","","null","75","NaN","","","","","","","","","","","","","","",""
"","S2","","html-keyboard-response","496","527491","0.0-1.0-679.0","0","0","79908","","null","","","null","75","","NaN","","","","","","","","","","","","","",""
"","response","","html-keyboard-response","497","528860","0.0-1.0-680.0-0.0","0","0","79908","","1367","","","75","75","","","2","75","training","adjacent","CD","3","4","M.jpg","R.jpg","0","1","0","",""
"","feedback","","html-keyboard-response","498","529863","0.0-1.0-681.0-0.0","0","0","79908","","null","","","null","75","","","","","","","","","","","","","","","",""
"","time_out","","html-keyboard-response","499","531866","0.0-1.0-683.0-0.0","0","0","79908","","null","","","null","75","","","","","","","","","","","","","","","",""
"","ITI","","html-keyboard-response","500","532867","0.0-1.0-684.0","0","0","79908","","null","","","null","75","","","","","","","","","","","","","","","NaN",""
"","S1","","html-keyboard-response","501","533120","0.0-1.0-686.0","0","0","79908","","null","","","null","76","","","","","","","","","","","","","","","",""
"","ISI","","html-keyboard-response","502","535122","0.0-1.0-687.0","0","0","79908","","null","","","null","76","NaN","","","","","","","","","","","","","","",""
"","S2","","html-keyboard-response","503","535374","0.0-1.0-688.0","0","0","79908","","null","","","null","76","","NaN","","","","","","","","","","","","","",""
"","response","","html-keyboard-response","504","536916","0.0-1.0-689.0-0.0","0","0","79908","","1541","","","75","76","","","2","76","training","adjacent","BA","2","1","N.jpg","L.jpg","0","0","1","",""
"","feedback","","html-keyboard-response","505","537919","0.0-1.0-690.0-0.0","0","0","79908","","null","","","null","76","","","","","","","","","","","","","","","",""
"","ITI","","html-keyboard-response","506","538921","0.0-1.0-693.0","0","0","79908","","null","","","null","76","","","","","","","","","","","","","","","NaN",""
"","S1","","html-keyboard-response","507","539173","0.0-1.0-695.0","0","0","79908","","null","","","null","77","","","","","","","","","","","","","","","",""
"","ISI","","html-keyboard-response","508","541175","0.0-1.0-696.0","0","0","79908","","null","","","null","77","NaN","","","","","","","","","","","","","","",""
"","S2","","html-keyboard-response","509","541427","0.0-1.0-697.0","0","0","79908","","null","","","null","77","","NaN","","","","","","","","","","","","","",""
"","response","","html-keyboard-response","510","542539","0.0-1.0-698.0-0.0","0","0","79908","","1112","","","75","77","","","2","77","training","adjacent","CB","3","2","M.jpg","N.jpg","0","0","1","",""
"","feedback","","html-keyboard-response","511","543541","0.0-1.0-699.0-0.0","0","0","79908","","null","","","null","77","","","","","","","","","","","","","","","",""
"","ITI","","html-keyboard-response","512","544543","0.0-1.0-702.0","0","0","79908","","null","","","null","77","","","","","","","","","","","","","","","NaN",""
"","S1","","html-keyboard-response","513","544797","0.0-1.0-704.0","0","0","79908","","null","","","null","78","","","","","","","","","","","","","","","",""
"","ISI","","html-keyboard-response","514","546800","0.0-1.0-705.0","0","0","79908","","null","","","null","78","NaN","","","","","","","","","","","","","","",""
"","S2","","html-keyboard-response","515","547052","0.0-1.0-706.0","0","0","79908","","null","","","null","78","","NaN","","","","","","","","","","","","","",""
"","response","","html-keyboard-response","516","547140","0.0-1.0-707.0-0.0","0","0","79908","","87","","","75","78","","","2","78","training","adjacent","CB","3","2","M.jpg","N.jpg","0","0","1","",""
"","feedback","","html-keyboard-response","517","548141","0.0-1.0-708.0-0.0","0","0","79908","","null","","","null","78","","","","","","","","","","","","","","","",""
"","ITI","","html-keyboard-response","518","549143","0.0-1.0-711.0","0","0","79908","","null","","","null","78","","","","","","","","","","","","","","","NaN",""
"","S1","","html-keyboard-response","519","549395","0.0-1.0-713.0","0","0","79908","","null","","","null","79","","","","","","","","","","","","","","","",""
"","ISI","","html-keyboard-response","520","551397","0.0-1.0-714.0","0","0","79908","","null","","","null","79","NaN","","","","","","","","","","","","","","",""
"","S2","","html-keyboard-response","521","551649","0.0-1.0-715.0","0","0","79908","","null","","","null","79","","NaN","","","","","","","","","","","","","",""
"","response","","html-keyboard-response","522","552756","0.0-1.0-716.0-0.0","0","0","79908","","1106","","","68","79","","","2","79","training","adjacent","FG","6","7","P.jpg","Q.jpg","1","1","1","",""
"","feedback","","html-keyboard-response","523","553759","0.0-1.0-717.0-0.0","0","0","79908","","null","","","null","79","","","","","","","","","","","","","","","",""
"","ITI","","html-keyboard-response","524","554760","0.0-1.0-720.0","0","0","79908","","null","","","null","79","","","","","","","","","","","","","","","NaN",""
"","S1","","html-keyboard-response","525","555012","0.0-1.0-722.0","0","0","79908","","null","","","null","80","","","","","","","","","","","","","","","",""
"","ISI","","html-keyboard-response","526","557013","0.0-1.0-723.0","0","0","79908","","null","","","null","80","NaN","","","","","","","","","","","","","","",""
"","S2","","html-keyboard-response","527","557266","0.0-1.0-724.0","0","0","79908","","null","","","null","80","","NaN","","","","","","","","","","","","","",""
"","response","","html-keyboard-response","528","557556","0.0-1.0-725.0-0.0","0","0","79908","","288","","","68","80","","","2","80","training","adjacent","AB","1","2","L.jpg","N.jpg","1","1","1","",""
"","feedback","","html-keyboard-response","529","558558","0.0-1.0-726.0-0.0","0","0","79908","","null","","","null","80","","","","","","","","","","","","","","","",""
"","ITI","","html-keyboard-response","530","559560","0.0-1.0-729.0","0","0","79908","","null","","","null","80","","","","","","","","","","","","","","","NaN",""
"","S1","","html-keyboard-response","531","559812","0.0-1.0-731.0","0","0","79908","","null","","","null","81","","","","","","","","","","","","","","","",""
"","ISI","","html-keyboard-response","532","561814","0.0-1.0-732.0","0","0","79908","","null","","","null","81","NaN","","","","","","","","","","","","","","",""
"","S2","","html-keyboard-response","533","562066","0.0-1.0-733.0","0","0","79908","","null","","","null","81","","NaN","","","","","","","","","","","","","",""
"","response","","html-keyboard-response","534","562380","0.0-1.0-734.0-0.0","0","0","79908","","313","","","68","81","","","2","81","training","adjacent","FG","6","7","P.jpg","Q.jpg","1","1","1","",""
"","feedback","","html-keyboard-response","535","563381","0.0-1.0-735.0-0.0","0","0","79908","","null","","","null","81","","","","","","","","","","","","","","","",""
"","ITI","","html-keyboard-response","536","564383","0.0-1.0-738.0","0","0","79908","","null","","","null","81","","","","","","","","","","","","","","","NaN",""
"","S1","","html-keyboard-response","537","564636","0.0-1.0-740.0","0","0","79908","","null","","","null","82","","","","","","","","","","","","","","","",""
"","ISI","","html-keyboard-response","538","566639","0.0-1.0-741.0","0","0","79908","","null","","","null","82","NaN","","","","","","","","","","","","","","",""
"","S2","","html-keyboard-response","539","566891","0.0-1.0-742.0","0","0","79908","","null","","","null","82","","NaN","","","","","","","","","","","","","",""
"","response","","html-keyboard-response","540","567765","0.0-1.0-743.0-0.0","0","0","79908","","873","","","75","82","","","2","82","training","adjacent","CD","3","4","M.jpg","R.jpg","0","1","0","",""
"","feedback","","html-keyboard-response","541","568769","0.0-1.0-744.0-0.0","0","0","79908","","null","","","null","82","","","","","","","","","","","","","","","",""
"","time_out","","html-keyboard-response","542","570770","0.0-1.0-746.0-0.0","0","0","79908","","null","","","null","82","","","","","","","","","","","","","","","",""
"","ITI","","html-keyboard-response","543","571773","0.0-1.0-747.0","0","0","79908","","null","","","null","82","","","","","","","","","","","","","","","NaN",""
"","S1","","html-keyboard-response","544","572025","0.0-1.0-749.0","0","0","79908","","null","","","null","83","","","","","","","","","","","","","","","",""
"","ISI","","html-keyboard-response","545","574027","0.0-1.0-750.0","0","0","79908","","null","","","null","83","NaN","","","","","","","","","","","","","","",""
"","S2","","html-keyboard-response","546","574288","0.0-1.0-751.0","0","0","79908","","null","","","null","83","","NaN","","","","","","","","","","","","","",""
"","response","","html-keyboard-response","547","575172","0.0-1.0-752.0-0.0","0","0","79908","","882","","","75","83","","","2","83","training","adjacent","FE","6","5","P.jpg","O.jpg","0","0","1","",""
"","feedback","","html-keyboard-response","548","576174","0.0-1.0-753.0-0.0","0","0","79908","","null","","","null","83","","","","","","","","","","","","","","","",""
"","ITI","","html-keyboard-response","549","577177","0.0-1.0-756.0","0","0","79908","","null","","","null","83","","","","","","","","","","","","","","","NaN",""
"","S1","","html-keyboard-response","550","577429","0.0-1.0-758.0","0","0","79908","","null","","","null","84","","","","","","","","","","","","","","","",""
"","ISI","","html-keyboard-response","551","579430","0.0-1.0-759.0","0","0","79908","","null","","","null","84","NaN","","","","","","","","","","","","","","",""
"","S2","","html-keyboard-response","552","579682","0.0-1.0-760.0","0","0","79908","","null","","","null","84","","NaN","","","","","","","","","","","","","",""
"","response","","html-keyboard-response","553","579916","0.0-1.0-761.0-0.0","0","0","79908","","232","","","68","84","","","2","84","training","adjacent","AB","1","2","L.jpg","N.jpg","1","1","1","",""
"","feedback","","html-keyboard-response","554","580919","0.0-1.0-762.0-0.0","0","0","79908","","null","","","null","84","","","","","","","","","","","","","","","",""
"","ITI","","html-keyboard-response","555","581921","0.0-1.0-765.0","0","0","79908","","null","","","null","84","","","","","","","","","","","","","","","NaN",""
"","S1","","html-keyboard-response","556","582174","0.0-1.0-767.0","0","0","79908","","null","","","null","85","","","","","","","","","","","","","","","",""
"","ISI","","html-keyboard-response","557","584176","0.0-1.0-768.0","0","0","79908","","null","","","null","85","NaN","","","","","","","","","","","","","","",""
"","S2","","html-keyboard-response","558","584428","0.0-1.0-769.0","0","0","79908","","null","","","null","85","","NaN","","","","","","","","","","","","","",""
"","response","","html-keyboard-response","559","584716","0.0-1.0-770.0-0.0","0","0","79908","","287","","","68","85","","","2","85","training","adjacent","EF","5","6","O.jpg","P.jpg","1","1","1","",""
"","feedback","","html-keyboard-response","560","585717","0.0-1.0-771.0-0.0","0","0","79908","","null","","","null","85","","","","","","","","","","","","","","","",""
"","ITI","","html-keyboard-response","561","586719","0.0-1.0-774.0","0","0","79908","","null","","","null","85","","","","","","","","","","","","","","","NaN",""
"","S1","","html-keyboard-response","562","586971","0.0-1.0-776.0","0","0","79908","","null","","","null","86","","","","","","","","","","","","","","","",""
"","ISI","","html-keyboard-response","563","588974","0.0-1.0-777.0","0","0","79908","","null","","","null","86","NaN","","","","","","","","","","","","","","",""
"","S2","","html-keyboard-response","564","589226","0.0-1.0-778.0","0","0","79908","","null","","","null","86","","NaN","","","","","","","","","","","","","",""
"","response","","html-keyboard-response","565","590036","0.0-1.0-779.0-0.0","0","0","79908","","808","","","68","86","","","2","86","training","adjacent","DC","4","3","R.jpg","M.jpg","1","0","0","",""
"","feedback","","html-keyboard-response","566","591038","0.0-1.0-780.0-0.0","0","0","79908","","null","","","null","86","","","","","","","","","","","","","","","",""
"","time_out","","html-keyboard-response","567","593041","0.0-1.0-782.0-0.0","0","0","79908","","null","","","null","86","","","","","","","","","","","","","","","",""
"","ITI","","html-keyboard-response","568","594044","0.0-1.0-783.0","0","0","79908","","null","","","null","86","","","","","","","","","","","","","","","NaN",""
"","S1","","html-keyboard-response","569","594297","0.0-1.0-785.0","0","0","79908","","null","","","null","87","","","","","","","","","","","","","","","",""
"","ISI","","html-keyboard-response","570","596298","0.0-1.0-786.0","0","0","79908","","null","","","null","87","NaN","","","","","","","","","","","","","","",""
"","S2","","html-keyboard-response","571","596552","0.0-1.0-787.0","0","0","79908","","null","","","null","87","","NaN","","","","","","","","","","","","","",""
"","response","","html-keyboard-response","572","597084","0.0-1.0-788.0-0.0","0","0","79908","","531","","","75","87","","","2","87","training","adjacent","FE","6","5","P.jpg","O.jpg","0","0","1","",""
"","feedback","","html-keyboard-response","573","598086","0.0-1.0-789.0-0.0","0","0","79908","","null","","","null","87","","","","","","","","","","","","","","","",""
"","ITI","","html-keyboard-response","574","599088","0.0-1.0-792.0","0","0","79908","","null","","","null","87","","","","","","","","","","","","","","","NaN",""
"","S1","","html-keyboard-response","575","599340","0.0-1.0-794.0","0","0","79908","","null","","","null","88","","","","","","","","","","","","","","","",""
"","ISI","","html-keyboard-response","576","601342","0.0-1.0-795.0","0","0","79908","","null","","","null","88","NaN","","","","","","","","","","","","","","",""
"","S2","","html-keyboard-response","577","601594","0.0-1.0-796.0","0","0","79908","","null","","","null","88","","NaN","","","","","","","","","","","","","",""
"","response","","html-keyboard-response","578","601692","0.0-1.0-797.0-0.0","0","0","79908","","96","","","75","88","","","2","88","training","adjacent","FE","6","5","P.jpg","O.jpg","0","0","1","",""
"","feedback","","html-keyboard-response","579","602694","0.0-1.0-798.0-0.0","0","0","79908","","null","","","null","88","","","","","","","","","","","","","","","",""
"","ITI","","html-keyboard-response","580","603697","0.0-1.0-801.0","0","0","79908","","null","","","null","88","","","","","","","","","","","","","","","NaN",""
"","S1","","html-keyboard-response","581","603948","0.0-1.0-803.0","0","0","79908","","null","","","null","89","","","","","","","","","","","","","","","",""
