"success","ttype","start_time","trial_type","trial_index","time_elapsed","internal_node_id","warning","missed_checkup","PID","view_history","rt","responses","repeat_instructions","key_press","index","keypress_isi","keypress_S2","block","trial_num","phase","group_type","pair_type","S1_stim","S2_stim","S1_img","S2_img","S1_chosen","S1_higher","accuracy","keypress_iti","total_bonus_tally"
"true","full_screen","d03032023hr2111","fullscreen","0","3732","0.0-0.0","0","0","84885","","","","","","","","","","","","","","","","","","","","","",""
"","instructions","","instructions","1","148118","0.0-1.0-0.0-0.0","0","0","84885","[{""page_index"":0,""viewing_time"":6699},{""page_index"":1,""viewing_time"":132784},{""page_index"":2,""viewing_time"":3386},{""page_index"":3,""viewing_time"":1514}]","144384","","","","","","","","","","","","","","","","","","","",""
"","comprehension_check","","survey-multi-choice","2","180578","0.0-1.0-0.0-1.0","0","0","84885","","32455","{""Q0"":""True"",""Q1"":""K"",""Q2"":""Only when the screen 'MAKE A CHOICE' is shown"",""Q3"":""Green mark"",""Q4"":""either D or K""}","1","","","","","","","","","","","","","","","","","",""
"","missed_instruction_checkup","","html-keyboard-response","3","182745","0.0-1.0-0.0-2.0-0.0","0","1","84885","","2164","","","32","","","","","","","","","","","","","","","","",""
"","instructions","","instructions","4","428524","0.0-1.0-0.1-0.1","0","0","84885","[{""page_index"":0,""viewing_time"":1967},{""page_index"":1,""viewing_time"":228507},{""page_index"":2,""viewing_time"":13081},{""page_index"":3,""viewing_time"":2222}]","245777","","","","","","","","","","","","","","","","","","","",""
"","comprehension_check","","survey-multi-choice","5","472709","0.0-1.0-0.1-1.1","0","0","84885","","44179","{""Q0"":"""",""Q1"":""K"",""Q2"":""Only when the screen 'MAKE A CHOICE' is shown"",""Q3"":""Green mark"",""Q4"":""either D or K""}","1","","","","","","","","","","","","","","","","","",""
"","missed_instruction_checkup","","html-keyboard-response","6","475083","0.0-1.0-0.1-2.1-0.1","0","1","84885","","2372","","","32","","","","","","","","","","","","","","","","",""
"","instructions","","instructions","7","482782","0.0-1.0-0.2-0.2","0","0","84885","[{""page_index"":0,""viewing_time"":1837},{""page_index"":1,""viewing_time"":2056},{""page_index"":2,""viewing_time"":2323},{""page_index"":3,""viewing_time"":1482}]","7698","","","","","","","","","","","","","","","","","","","",""
"","comprehension_check","","survey-multi-choice","8","494959","0.0-1.0-0.2-1.2","0","0","84885","","12173","{""Q0"":""False"",""Q1"":""K"",""Q2"":""Once the second image appears and while the screen 'MAKE A CHOICE' is shown"",""Q3"":""Green mark"",""Q4"":""either D or K""}","1","","","","","","","","","","","","","","","","","",""
"","missed_instruction_checkup","","html-keyboard-response","9","497357","0.0-1.0-0.2-2.2-0.2","0","1","84885","","2396","","","32","","","","","","","","","","","","","","","","",""
"","instructions","","instructions","10","506890","0.0-1.0-0.3-0.3","0","0","84885","[{""page_index"":0,""viewing_time"":1936},{""page_index"":1,""viewing_time"":4224},{""page_index"":2,""viewing_time"":1686},{""page_index"":3,""viewing_time"":1685}]","9531","","","","","","","","","","","","","","","","","","","",""
"","comprehension_check","","survey-multi-choice","11","555476","0.0-1.0-0.3-1.3","0","0","84885","","48581","{""Q0"":""True"",""Q1"":""K"",""Q2"":""Once the second image appears and while the screen 'MAKE A CHOICE' is shown"",""Q3"":""Green mark"",""Q4"":""either D or K""}","0","","","","","","","","","","","","","","","","","",""
"","start_exp","","html-keyboard-response","12","557698","0.0-1.0-1.0","0","0","84885","","2220","","","32","","","","","","","","","","","","","","","","",""
"","S1","","html-keyboard-response","13","557951","0.0-1.0-2.0","0","0","84885","","null","","","null","0","","","","","","","","","","","","","","","",""
"","ISI","","html-keyboard-response","14","558453","0.0-1.0-3.0","0","0","84885","","null","","","null","0","NaN","","","","","","","","","","","","","","",""
"","S2","","html-keyboard-response","15","558706","0.0-1.0-4.0","0","0","84885","","null","","","null","0","","NaN","","","","","","","","","","","","","",""
"","response","","html-keyboard-response","16","560458","0.0-1.0-5.0-0.0","0","0","84885","","null","","","null","0","","","1","0","training","adjacent","FG","6","7","M.jpg","P.jpg","NaN","1","0","",""
"","too_slow_prompt","","html-keyboard-response","17","561460","0.0-1.0-7.0-0.0","1","0","84885","","null","","","null","","","","","","","","","","","","","","","","",""
"","time_out","","html-keyboard-response","18","563462","0.0-1.0-8.0-0.0","0","0","84885","","null","","","null","0","","","","","","","","","","","","","","","",""
"","ITI","","html-keyboard-response","19","564465","0.0-1.0-9.0","0","0","84885","","244","","","75","0","","","","","","","","","","","","","","","k",""
"","S1","","html-keyboard-response","20","564718","0.0-1.0-11.0","0","0","84885","","null","","","null","1","","","","","","","","","","","","","","","",""
"","ISI","","html-keyboard-response","21","565220","0.0-1.0-12.0","0","0","84885","","499","","","75","1","k","","","","","","","","","","","","","","",""
"","S2","","html-keyboard-response","22","565225","0.0-1.0-13.0","0","0","84885","","3","","","68","1","","d","1","1","training","adjacent","FG","6","7","M.jpg","P.jpg","0","1","0","",""
"","feedback","","html-keyboard-response","23","566227","0.0-1.0-15.0-0.0","0","0","84885","","null","","","null","1","","","","","","","","","","","","","","","",""
"","time_out","","html-keyboard-response","24","568229","0.0-1.0-17.0-0.0","0","0","84885","","null","","","null","1","","","","","","","","","","","","","","","",""
"","ITI","","html-keyboard-response","25","569232","0.0-1.0-18.0","0","0","84885","","null","","","null","1","","","","","","","","","","","","","","","NaN",""
"","S1","","html-keyboard-response","26","569484","0.0-1.0-20.0","0","0","84885","","null","","","null","2","","","","","","","","","","","","","","","",""
"","ISI","","html-keyboard-response","27","569987","0.0-1.0-21.0","0","0","84885","","null","","","null","2","NaN","","","","","","","","","","","","","","",""
"","S2","","html-keyboard-response","28","570223","0.0-1.0-22.0","0","0","84885","","235","","","75","2","","k","1","2","training","adjacent","CD","3","4","N.jpg","Q.jpg","1","1","1","",""
"","feedback","","html-keyboard-response","29","571226","0.0-1.0-24.0-0.0","0","0","84885","","null","","","null","2","","","","","","","","","","","","","","","",""
"","ITI","","html-keyboard-response","30","572228","0.0-1.0-27.0","0","0","84885","","null","","","null","2","","","","","","","","","","","","","","","NaN",""
"","S1","","html-keyboard-response","31","572481","0.0-1.0-29.0","0","0","84885","","null","","","null","3","","","","","","","","","","","","","","","",""
"","ISI","","html-keyboard-response","32","572983","0.0-1.0-30.0","0","0","84885","","null","","","null","3","NaN","","","","","","","","","","","","","","",""
"","S2","","html-keyboard-response","33","573236","0.0-1.0-31.0","0","0","84885","","null","","","null","3","","NaN","","","","","","","","","","","","","",""
"","response","","html-keyboard-response","34","573323","0.0-1.0-32.0-0.0","0","0","84885","","86","","","75","3","","","1","3","training","adjacent","BC","2","3","L.jpg","N.jpg","1","1","1","",""
"","feedback","","html-keyboard-response","35","574325","0.0-1.0-33.0-0.0","0","0","84885","","null","","","null","3","","","","","","","","","","","","","","","",""
"","ITI","","html-keyboard-response","36","575327","0.0-1.0-36.0","0","0","84885","","null","","","null","3","","","","","","","","","","","","","","","NaN",""
"","S1","","html-keyboard-response","37","575580","0.0-1.0-38.0","0","0","84885","","null","","","null","4","","","","","","","","","","","","","","","",""
"","ISI","","html-keyboard-response","38","576082","0.0-1.0-39.0","0","0","84885","","null","","","null","4","NaN","","","","","","","","","","","","","","",""
"","S2","","html-keyboard-response","39","576334","0.0-1.0-40.0","0","0","84885","","null","","","null","4","","NaN","","","","","","","","","","","","","",""
"","response","","html-keyboard-response","40","576485","0.0-1.0-41.0-0.0","0","0","84885","","150","","","75","4","","","1","4","training","adjacent","ED","5","4","R.jpg","Q.jpg","1","0","0","",""
"","feedback","","html-keyboard-response","41","577486","0.0-1.0-42.0-0.0","0","0","84885","","null","","","null","4","","","","","","","","","","","","","","","",""
"","time_out","","html-keyboard-response","42","579488","0.0-1.0-44.0-0.0","0","0","84885","","null","","","null","4","","","","","","","","","","","","","","","",""
"","ITI","","html-keyboard-response","43","580490","0.0-1.0-45.0","0","0","84885","","null","","","null","4","","","","","","","","","","","","","","","NaN",""
"","S1","","html-keyboard-response","44","580743","0.0-1.0-47.0","0","0","84885","","null","","","null","5","","","","","","","","","","","","","","","",""
"","ISI","","html-keyboard-response","45","581245","0.0-1.0-48.0","0","0","84885","","371","","","75","5","k","","","","","","","","","","","","","","",""
"","S2","","html-keyboard-response","46","581498","0.0-1.0-49.0","0","0","84885","","null","","","null","5","","NaN","","","","","","","","","","","","","",""
"","response","","html-keyboard-response","47","581733","0.0-1.0-50.0-0.0","0","0","84885","","234","","","75","5","","","1","5","training","adjacent","FE","6","5","M.jpg","R.jpg","1","0","0","",""
"","feedback","","html-keyboard-response","48","582736","0.0-1.0-51.0-0.0","0","0","84885","","null","","","null","5","","","","","","","","","","","","","","","",""
"","time_out","","html-keyboard-response","49","584738","0.0-1.0-53.0-0.0","0","0","84885","","null","","","null","5","","","","","","","","","","","","","","","",""
"","ITI","","html-keyboard-response","50","585740","0.0-1.0-54.0","0","0","84885","","null","","","null","5","","","","","","","","","","","","","","","NaN",""
"","S1","","html-keyboard-response","51","585993","0.0-1.0-56.0","0","0","84885","","null","","","null","6","","","","","","","","","","","","","","","",""
"","ISI","","html-keyboard-response","52","586495","0.0-1.0-57.0","0","0","84885","","null","","","null","6","NaN","","","","","","","","","","","","","","",""
"","S2","","html-keyboard-response","53","586748","0.0-1.0-58.0","0","0","84885","","null","","","null","6","","NaN","","","","","","","","","","","","","",""
"","response","","html-keyboard-response","54","587486","0.0-1.0-59.0-0.0","0","0","84885","","738","","","75","6","","","1","6","training","adjacent","DC","4","3","Q.jpg","N.jpg","1","0","0","",""
"","feedback","","html-keyboard-response","55","588490","0.0-1.0-60.0-0.0","0","0","84885","","null","","","null","6","","","","","","","","","","","","","","","",""
"","time_out","","html-keyboard-response","56","590492","0.0-1.0-62.0-0.0","0","0","84885","","null","","","null","6","","","","","","","","","","","","","","","",""
"","ITI","","html-keyboard-response","57","591495","0.0-1.0-63.0","0","0","84885","","null","","","null","6","","","","","","","","","","","","","","","NaN",""
"","S1","","html-keyboard-response","58","591747","0.0-1.0-65.0","0","0","84885","","null","","","null","7","","","","","","","","","","","","","","","",""
"","ISI","","html-keyboard-response","59","592249","0.0-1.0-66.0","0","0","84885","","null","","","null","7","NaN","","","","","","","","","","","","","","",""
"","S2","","html-keyboard-response","60","592263","0.0-1.0-67.0","0","0","84885","","14","","","75","7","","k","1","7","training","adjacent","AB","1","2","O.jpg","L.jpg","1","1","1","",""
"","feedback","","html-keyboard-response","61","593265","0.0-1.0-69.0-0.0","0","0","84885","","null","","","null","7","","","","","","","","","","","","","","","",""
"","ITI","","html-keyboard-response","62","594267","0.0-1.0-72.0","0","0","84885","","null","","","null","7","","","","","","","","","","","","","","","NaN",""
"","S1","","html-keyboard-response","63","594520","0.0-1.0-74.0","0","0","84885","","null","","","null","8","","","","","","","","","","","","","","","",""
"","ISI","","html-keyboard-response","64","595023","0.0-1.0-75.0","0","0","84885","","null","","","null","8","NaN","","","","","","","","","","","","","","",""
"","S2","","html-keyboard-response","65","595276","0.0-1.0-76.0","0","0","84885","","null","","","null","8","","NaN","","","","","","","","","","","","","",""
"","response","","html-keyboard-response","66","595417","0.0-1.0-77.0-0.0","0","0","84885","","140","","","68","8","","","1","8","training","adjacent","ED","5","4","R.jpg","Q.jpg","0","0","1","",""
"","feedback","","html-keyboard-response","67","596419","0.0-1.0-78.0-0.0","0","0","84885","","null","","","null","8","","","","","","","","","","","","","","","",""
"","ITI","","html-keyboard-response","68","597421","0.0-1.0-81.0","0","0","84885","","null","","","null","8","","","","","","","","","","","","","","","NaN",""
"","S1","","html-keyboard-response","69","597674","0.0-1.0-83.0","0","0","84885","","null","","","null","9","","","","","","","","","","","","","","","",""
"","ISI","","html-keyboard-response","70","598176","0.0-1.0-84.0","0","0","84885","","null","","","null","9","NaN","","","","","","","","","","","","","","",""
"","S2","","html-keyboard-response","71","598429","0.0-1.0-85.0","0","0","84885","","null","","","null","9","","NaN","","","","","","","","","","","","","",""
"","response","","html-keyboard-response","72","598828","0.0-1.0-86.0-0.0","0","0","84885","","399","","","68","9","","","1","9","training","adjacent","DE","4","5","Q.jpg","R.jpg","0","1","0","",""
"","feedback","","html-keyboard-response","73","599831","0.0-1.0-87.0-0.0","0","0","84885","","null","","","null","9","","","","","","","","","","","","","","","",""
"","time_out","","html-keyboard-response","74","601833","0.0-1.0-89.0-0.0","0","0","84885","","null","","","null","9","","","","","","","","","","","","","","","",""
"","ITI","","html-keyboard-response","75","602835","0.0-1.0-90.0","0","0","84885","","null","","","null","9","","","","","","","","","","","","","","","NaN",""
"","S1","","html-keyboard-response","76","603088","0.0-1.0-92.0","0","0","84885","","null","","","null","10","","","","","","","","","","","","","","","",""
"","ISI","","html-keyboard-response","77","603590","0.0-1.0-93.0","0","0","84885","","null","","","null","10","NaN","","","","","","","","","","","","","","",""
"","S2","","html-keyboard-response","78","603842","0.0-1.0-94.0","0","0","84885","","null","","","null","10","","NaN","","","","","","","","","","","","","",""
"","response","","html-keyboard-response","79","603914","0.0-1.0-95.0-0.0","0","0","84885","","71","","","75","10","","","1","10","training","adjacent","BA","2","1","L.jpg","O.jpg","1","0","0","",""
"","feedback","","html-keyboard-response","80","604916","0.0-1.0-96.0-0.0","0","0","84885","","null","","","null","10","","","","","","","","","","","","","","","",""
"","time_out","","html-keyboard-response","81","606918","0.0-1.0-98.0-0.0","0","0","84885","","null","","","null","10","","","","","","","","","","","","","","","",""
"","ITI","","html-keyboard-response","82","607921","0.0-1.0-99.0","0","0","84885","","null","","","null","10","","","","","","","","","","","","","","","NaN",""
"","S1","","html-keyboard-response","83","608174","0.0-1.0-101.0","0","0","84885","","null","","","null","11","","","","","","","","","","","","","","","",""
"","ISI","","html-keyboard-response","84","608676","0.0-1.0-102.0","0","0","84885","","null","","","null","11","NaN","","","","","","","","","","","","","","",""
"","S2","","html-keyboard-response","85","608928","0.0-1.0-103.0","0","0","84885","","null","","","null","11","","NaN","","","","","","","","","","","","","",""
"","response","","html-keyboard-response","86","609159","0.0-1.0-104.0-0.0","0","0","84885","","229","","","75","11","","","1","11","training","adjacent","AB","1","2","O.jpg","L.jpg","1","1","1","",""
"","feedback","","html-keyboard-response","87","610161","0.0-1.0-105.0-0.0","0","0","84885","","null","","","null","11","","","","","","","","","","","","","","","",""
"","ITI","","html-keyboard-response","88","611164","0.0-1.0-108.0","0","0","84885","","null","","","null","11","","","","","","","","","","","","","","","NaN",""
"","S1","","html-keyboard-response","89","611417","0.0-1.0-110.0","0","0","84885","","null","","","null","12","","","","","","","","","","","","","","","",""
"","ISI","","html-keyboard-response","90","611920","0.0-1.0-111.0","0","0","84885","","null","","","null","12","NaN","","","","","","","","","","","","","","",""
"","S2","","html-keyboard-response","91","612173","0.0-1.0-112.0","0","0","84885","","null","","","null","12","","NaN","","","","","","","","","","","","","",""
"","response","","html-keyboard-response","92","612445","0.0-1.0-113.0-0.0","0","0","84885","","271","","","68","12","","","1","12","training","adjacent","EF","5","6","R.jpg","M.jpg","0","1","0","",""
"","feedback","","html-keyboard-response","93","613447","0.0-1.0-114.0-0.0","0","0","84885","","null","","","null","12","","","","","","","","","","","","","","","",""
"","time_out","","html-keyboard-response","94","615449","0.0-1.0-116.0-0.0","0","0","84885","","null","","","null","12","","","","","","","","","","","","","","","",""
"","ITI","","html-keyboard-response","95","616452","0.0-1.0-117.0","0","0","84885","","null","","","null","12","","","","","","","","","","","","","","","NaN",""
"","S1","","html-keyboard-response","96","616704","0.0-1.0-119.0","0","0","84885","","null","","","null","13","","","","","","","","","","","","","","","",""
"","ISI","","html-keyboard-response","97","617206","0.0-1.0-120.0","0","0","84885","","373","","","75","13","k","","","","","","","","","","","","","","",""
"","S2","","html-keyboard-response","98","617459","0.0-1.0-121.0","0","0","84885","","null","","","null","13","","NaN","","","","","","","","","","","","","",""
"","response","","html-keyboard-response","99","617708","0.0-1.0-122.0-0.0","0","0","84885","","248","","","75","13","","","1","13","training","adjacent","CB","3","2","N.jpg","L.jpg","1","0","0","",""
"","feedback","","html-keyboard-response","100","618710","0.0-1.0-123.0-0.0","0","0","84885","","null","","","null","13","","","","","","","","","","","","","","","",""
"","time_out","","html-keyboard-response","101","620713","0.0-1.0-125.0-0.0","0","0","84885","","null","","","null","13","","","","","","","","","","","","","","","",""
"","ITI","","html-keyboard-response","102","621715","0.0-1.0-126.0","0","0","84885","","null","","","null","13","","","","","","","","","","","","","","","NaN",""
"","S1","","html-keyboard-response","103","621968","0.0-1.0-128.0","0","0","84885","","null","","","null","14","","","","","","","","","","","","","","","",""
"","ISI","","html-keyboard-response","104","622470","0.0-1.0-129.0","0","0","84885","","null","","","null","14","NaN","","","","","","","","","","","","","","",""
"","S2","","html-keyboard-response","105","622723","0.0-1.0-130.0","0","0","84885","","null","","","null","14","","NaN","","","","","","","","","","","","","",""
"","response","","html-keyboard-response","106","623086","0.0-1.0-131.0-0.0","0","0","84885","","362","","","75","14","","","1","14","training","adjacent","CD","3","4","N.jpg","Q.jpg","1","1","1","",""
"","feedback","","html-keyboard-response","107","624088","0.0-1.0-132.0-0.0","0","0","84885","","null","","","null","14","","","","","","","","","","","","","","","",""
"","ITI","","html-keyboard-response","108","625090","0.0-1.0-135.0","0","0","84885","","null","","","null","14","","","","","","","","","","","","","","","NaN",""
"","S1","","html-keyboard-response","109","625343","0.0-1.0-137.0","0","0","84885","","null","","","null","15","","","","","","","","","","","","","","","",""
"","ISI","","html-keyboard-response","110","625845","0.0-1.0-138.0","0","0","84885","","null","","","null","15","NaN","","","","","","","","","","","","","","",""
"","S2","","html-keyboard-response","111","626098","0.0-1.0-139.0","0","0","84885","","null","","","null","15","","NaN","","","","","","","","","","","","","",""
"","response","","html-keyboard-response","112","626444","0.0-1.0-140.0-0.0","0","0","84885","","345","","","75","15","","","1","15","training","adjacent","GF","7","6","P.jpg","M.jpg","1","0","0","",""
"","feedback","","html-keyboard-response","113","627446","0.0-1.0-141.0-0.0","0","0","84885","","null","","","null","15","","","","","","","","","","","","","","","",""
"","time_out","","html-keyboard-response","114","629449","0.0-1.0-143.0-0.0","0","0","84885","","null","","","null","15","","","","","","","","","","","","","","","",""
"","ITI","","html-keyboard-response","115","630452","0.0-1.0-144.0","0","0","84885","","null","","","null","15","","","","","","","","","","","","","","","NaN",""
"","S1","","html-keyboard-response","116","630705","0.0-1.0-146.0","0","0","84885","","null","","","null","16","","","","","","","","","","","","","","","",""
"","ISI","","html-keyboard-response","117","631207","0.0-1.0-147.0","0","0","84885","","null","","","null","16","NaN","","","","","","","","","","","","","","",""
"","S2","","html-keyboard-response","118","631460","0.0-1.0-148.0","0","0","84885","","null","","","null","16","","NaN","","","","","","","","","","","","","",""
"","response","","html-keyboard-response","119","631835","0.0-1.0-149.0-0.0","0","0","84885","","374","","","68","16","","","1","16","training","adjacent","EF","5","6","R.jpg","M.jpg","0","1","0","",""
"","feedback","","html-keyboard-response","120","632837","0.0-1.0-150.0-0.0","0","0","84885","","null","","","null","16","","","","","","","","","","","","","","","",""
"","time_out","","html-keyboard-response","121","634839","0.0-1.0-152.0-0.0","0","0","84885","","null","","","null","16","","","","","","","","","","","","","","","",""
"","ITI","","html-keyboard-response","122","635841","0.0-1.0-153.0","0","0","84885","","null","","","null","16","","","","","","","","","","","","","","","NaN",""
"","S1","","html-keyboard-response","123","636094","0.0-1.0-155.0","0","0","84885","","null","","","null","17","","","","","","","","","","","","","","","",""
"","ISI","","html-keyboard-response","124","636596","0.0-1.0-156.0","0","0","84885","","null","","","null","17","NaN","","","","","","","","","","","","","","",""
"","S2","","html-keyboard-response","125","636849","0.0-1.0-157.0","0","0","84885","","null","","","null","17","","NaN","","","","","","","","","","","","","",""
"","response","","html-keyboard-response","126","637447","0.0-1.0-158.0-0.0","0","0","84885","","597","","","68","17","","","1","17","training","adjacent","ED","5","4","R.jpg","Q.jpg","0","0","1","",""
"","feedback","","html-keyboard-response","127","638449","0.0-1.0-159.0-0.0","0","0","84885","","null","","","null","17","","","","","","","","","","","","","","","",""
"","ITI","","html-keyboard-response","128","639452","0.0-1.0-162.0","0","0","84885","","null","","","null","17","","","","","","","","","","","","","","","NaN",""
"","S1","","html-keyboard-response","129","639705","0.0-1.0-164.0","0","0","84885","","null","","","null","18","","","","","","","","","","","","","","","",""
"","ISI","","html-keyboard-response","130","640207","0.0-1.0-165.0","0","0","84885","","null","","","null","18","NaN","","","","","","","","","","","","","","",""
"","S2","","html-keyboard-response","131","640460","0.0-1.0-166.0","0","0","84885","","null","","","null","18","","NaN","","","","","","","","","","","","","",""
"","response","","html-keyboard-response","132","641394","0.0-1.0-167.0-0.0","0","0","84885","","933","","","75","18","","","1","18","training","adjacent","CB","3","2","N.jpg","L.jpg","1","0","0","",""
"","feedback","","html-keyboard-response","133","642396","0.0-1.0-168.0-0.0","0","0","84885","","null","","","null","18","","","","","","","","","","","","","","","",""
"","time_out","","html-keyboard-response","134","644399","0.0-1.0-170.0-0.0","0","0","84885","","null","","","null","18","","","","","","","","","","","","","","","",""
"","ITI","","html-keyboard-response","135","645401","0.0-1.0-171.0","0","0","84885","","null","","","null","18","","","","","","","","","","","","","","","NaN",""
"","S1","","html-keyboard-response","136","645654","0.0-1.0-173.0","0","0","84885","","null","","","null","19","","","","","","","","","","","","","","","",""
"","ISI","","html-keyboard-response","137","646156","0.0-1.0-174.0","0","0","84885","","null","","","null","19","NaN","","","","","","","","","","","","","","",""
"","S2","","html-keyboard-response","138","646409","0.0-1.0-175.0","0","0","84885","","null","","","null","19","","NaN","","","","","","","","","","","","","",""
"","response","","html-keyboard-response","139","647241","0.0-1.0-176.0-0.0","0","0","84885","","831","","","75","19","","","1","19","training","adjacent","CB","3","2","N.jpg","L.jpg","1","0","0","",""
"","feedback","","html-keyboard-response","140","648243","0.0-1.0-177.0-0.0","0","0","84885","","null","","","null","19","","","","","","","","","","","","","","","",""
"","time_out","","html-keyboard-response","141","650246","0.0-1.0-179.0-0.0","0","0","84885","","null","","","null","19","","","","","","","","","","","","","","","",""
"","ITI","","html-keyboard-response","142","651249","0.0-1.0-180.0","0","0","84885","","null","","","null","19","","","","","","","","","","","","","","","NaN",""
"","S1","","html-keyboard-response","143","651504","0.0-1.0-182.0","0","0","84885","","null","","","null","20","","","","","","","","","","","","","","","",""
"","ISI","","html-keyboard-response","144","652006","0.0-1.0-183.0","0","0","84885","","null","","","null","20","NaN","","","","","","","","","","","","","","",""
"","S2","","html-keyboard-response","145","652259","0.0-1.0-184.0","0","0","84885","","null","","","null","20","","NaN","","","","","","","","","","","","","",""
"","response","","html-keyboard-response","146","653024","0.0-1.0-185.0-0.0","0","0","84885","","764","","","68","20","","","1","20","training","adjacent","FE","6","5","M.jpg","R.jpg","0","0","1","",""
"","feedback","","html-keyboard-response","147","654026","0.0-1.0-186.0-0.0","0","0","84885","","null","","","null","20","","","","","","","","","","","","","","","",""
"","ITI","","html-keyboard-response","148","655029","0.0-1.0-189.0","0","0","84885","","null","","","null","20","","","","","","","","","","","","","","","NaN",""
"","S1","","html-keyboard-response","149","655282","0.0-1.0-191.0","0","0","84885","","null","","","null","21","","","","","","","","","","","","","","","",""
"","ISI","","html-keyboard-response","150","655784","0.0-1.0-192.0","0","0","84885","","null","","","null","21","NaN","","","","","","","","","","","","","","",""
"","S2","","html-keyboard-response","151","656037","0.0-1.0-193.0","0","0","84885","","null","","","null","21","","NaN","","","","","","","","","","","","","",""
"","response","","html-keyboard-response","152","657216","0.0-1.0-194.0-0.0","0","0","84885","","1178","","","75","21","","","1","21","training","adjacent","BA","2","1","L.jpg","O.jpg","1","0","0","",""
"","feedback","","html-keyboard-response","153","658218","0.0-1.0-195.0-0.0","0","0","84885","","null","","","null","21","","","","","","","","","","","","","","","",""
"","time_out","","html-keyboard-response","154","660220","0.0-1.0-197.0-0.0","0","0","84885","","null","","","null","21","","","","","","","","","","","","","","","",""
"","ITI","","html-keyboard-response","155","661223","0.0-1.0-198.0","0","0","84885","","null","","","null","21","","","","","","","","","","","","","","","NaN",""
"","S1","","html-keyboard-response","156","661476","0.0-1.0-200.0","0","0","84885","","null","","","null","22","","","","","","","","","","","","","","","",""
"","ISI","","html-keyboard-response","157","661978","0.0-1.0-201.0","0","0","84885","","null","","","null","22","NaN","","","","","","","","","","","","","","",""
"","S2","","html-keyboard-response","158","662231","0.0-1.0-202.0","0","0","84885","","null","","","null","22","","NaN","","","","","","","","","","","","","",""
"","response","","html-keyboard-response","159","663693","0.0-1.0-203.0-0.0","0","0","84885","","1461","","","68","22","","","1","22","training","adjacent","AB","1","2","O.jpg","L.jpg","0","1","0","",""
"","feedback","","html-keyboard-response","160","664697","0.0-1.0-204.0-0.0","0","0","84885","","null","","","null","22","","","","","","","","","","","","","","","",""
"","time_out","","html-keyboard-response","161","666699","0.0-1.0-206.0-0.0","0","0","84885","","null","","","null","22","","","","","","","","","","","","","","","",""
"","ITI","","html-keyboard-response","162","667702","0.0-1.0-207.0","0","0","84885","","null","","","null","22","","","","","","","","","","","","","","","NaN",""
"","S1","","html-keyboard-response","163","667955","0.0-1.0-209.0","0","0","84885","","null","","","null","23","","","","","","","","","","","","","","","",""
"","ISI","","html-keyboard-response","164","668457","0.0-1.0-210.0","0","0","84885","","null","","","null","23","NaN","","","","","","","","","","","","","","",""
"","S2","","html-keyboard-response","165","668710","0.0-1.0-211.0","0","0","84885","","null","","","null","23","","NaN","","","","","","","","","","","","","",""
"","response","","html-keyboard-response","166","670338","0.0-1.0-212.0-0.0","0","0","84885","","1628","","","68","23","","","1","23","training","adjacent","FG","6","7","M.jpg","P.jpg","0","1","0","",""
"","feedback","","html-keyboard-response","167","671340","0.0-1.0-213.0-0.0","0","0","84885","","null","","","null","23","","","","","","","","","","","","","","","",""
"","time_out","","html-keyboard-response","168","673342","0.0-1.0-215.0-0.0","0","0","84885","","null","","","null","23","","","","","","","","","","","","","","","",""
"","ITI","","html-keyboard-response","169","674344","0.0-1.0-216.0","0","0","84885","","null","","","null","23","","","","","","","","","","","","","","","NaN",""
"","S1","","html-keyboard-response","170","674597","0.0-1.0-218.0","0","0","84885","","null","","","null","24","","","","","","","","","","","","","","","",""
"","ISI","","html-keyboard-response","171","675099","0.0-1.0-219.0","0","0","84885","","null","","","null","24","NaN","","","","","","","","","","","","","","",""
"","S2","","html-keyboard-response","172","675352","0.0-1.0-220.0","0","0","84885","","null","","","null","24","","NaN","","","","","","","","","","","","","",""
"","response","","html-keyboard-response","173","675742","0.0-1.0-221.0-0.0","0","0","84885","","390","","","75","24","","","1","24","training","adjacent","FE","6","5","M.jpg","R.jpg","1","0","0","",""
"","feedback","","html-keyboard-response","174","676745","0.0-1.0-222.0-0.0","0","0","84885","","null","","","null","24","","","","","","","","","","","","","","","",""
"","time_out","","html-keyboard-response","175","678748","0.0-1.0-224.0-0.0","0","0","84885","","null","","","null","24","","","","","","","","","","","","","","","",""
"","ITI","","html-keyboard-response","176","679751","0.0-1.0-225.0","0","0","84885","","null","","","null","24","","","","","","","","","","","","","","","NaN",""
"","S1","","html-keyboard-response","177","680004","0.0-1.0-227.0","0","0","84885","","null","","","null","25","","","","","","","","","","","","","","","",""
"","ISI","","html-keyboard-response","178","680507","0.0-1.0-228.0","0","0","84885","","null","","","null","25","NaN","","","","","","","","","","","","","","",""
"","S2","","html-keyboard-response","179","680760","0.0-1.0-229.0","0","0","84885","","null","","","null","25","","NaN","","","","","","","","","","","","","",""
"","response","","html-keyboard-response","180","681569","0.0-1.0-230.0-0.0","0","0","84885","","808","","","68","25","","","1","25","training","adjacent","FE","6","5","M.jpg","R.jpg","0","0","1","",""
"","feedback","","html-keyboard-response","181","682571","0.0-1.0-231.0-0.0","0","0","84885","","null","","","null","25","","","","","","","","","","","","","","","",""
"","ITI","","html-keyboard-response","182","683574","0.0-1.0-234.0","0","0","84885","","null","","","null","25","","","","","","","","","","","","","","","NaN",""
"","S1","","html-keyboard-response","183","683826","0.0-1.0-236.0","0","0","84885","","null","","","null","26","","","","","","","","","","","","","","","",""
"","ISI","","html-keyboard-response","184","684328","0.0-1.0-237.0","0","0","84885","","null","","","null","26","NaN","","","","","","","","","","","","","","",""
"","S2","","html-keyboard-response","185","684581","0.0-1.0-238.0","0","0","84885","","null","","","null","26","","NaN","","","","","","","","","","","","","",""
"","response","","html-keyboard-response","186","685324","0.0-1.0-239.0-0.0","0","0","84885","","742","","","68","26","","","1","26","training","adjacent","BC","2","3","L.jpg","N.jpg","0","1","0","",""
"","feedback","","html-keyboard-response","187","686327","0.0-1.0-240.0-0.0","0","0","84885","","null","","","null","26","","","","","","","","","","","","","","","",""
"","time_out","","html-keyboard-response","188","688329","0.0-1.0-242.0-0.0","0","0","84885","","null","","","null","26","","","","","","","","","","","","","","","",""
"","ITI","","html-keyboard-response","189","689330","0.0-1.0-243.0","0","0","84885","","null","","","null","26","","","","","","","","","","","","","","","NaN",""
"","S1","","html-keyboard-response","190","689583","0.0-1.0-245.0","0","0","84885","","null","","","null","27","","","","","","","","","","","","","","","",""
"","ISI","","html-keyboard-response","191","690084","0.0-1.0-246.0","0","0","84885","","null","","","null","27","NaN","","","","","","","","","","","","","","",""
"","S2","","html-keyboard-response","192","690337","0.0-1.0-247.0","0","0","84885","","null","","","null","27","","NaN","","","","","","","","","","","","","",""
"","response","","html-keyboard-response","193","691433","0.0-1.0-248.0-0.0","0","0","84885","","1096","","","75","27","","","1","27","training","adjacent","CD","3","4","N.jpg","Q.jpg","1","1","1","",""
"","feedback","","html-keyboard-response","194","692436","0.0-1.0-249.0-0.0","0","0","84885","","null","","","null","27","","","","","","","","","","","","","","","",""
"","ITI","","html-keyboard-response","195","693438","0.0-1.0-252.0","0","0","84885","","null","","","null","27","","","","","","","","","","","","","","","NaN",""
"","S1","","html-keyboard-response","196","693691","0.0-1.0-254.0","0","0","84885","","null","","","null","28","","","","","","","","","","","","","","","",""
"","ISI","","html-keyboard-response","197","694194","0.0-1.0-255.0","0","0","84885","","null","","","null","28","NaN","","","","","","","","","","","","","","",""
"","S2","","html-keyboard-response","198","694447","0.0-1.0-256.0","0","0","84885","","null","","","null","28","","NaN","","","","","","","","","","","","","",""
"","response","","html-keyboard-response","199","696200","0.0-1.0-257.0-0.0","0","0","84885","","null","","","null","28","","","1","28","training","adjacent","DE","4","5","Q.jpg","R.jpg","NaN","1","0","",""
"","too_slow_prompt","","html-keyboard-response","200","697203","0.0-1.0-259.0-0.0","1","0","84885","","null","","","null","","","","","","","","","","","","","","","","",""
"","time_out","","html-keyboard-response","201","699205","0.0-1.0-260.0-0.0","0","0","84885","","null","","","null","28","","","","","","","","","","","","","","","",""
"","ITI","","html-keyboard-response","202","700208","0.0-1.0-261.0","0","0","84885","","null","","","null","28","","","","","","","","","","","","","","","NaN",""
"","S1","","html-keyboard-response","203","700461","0.0-1.0-263.0","0","0","84885","","null","","","null","29","","","","","","","","","","","","","","","",""
"","ISI","","html-keyboard-response","204","700963","0.0-1.0-264.0","0","0","84885","","null","","","null","29","NaN","","","","","","","","","","","","","","",""
"","S2","","html-keyboard-response","205","701215","0.0-1.0-265.0","0","0","84885","","null","","","null","29","","NaN","","","","","","","","","","","","","",""
"","response","","html-keyboard-response","206","702025","0.0-1.0-266.0-0.0","0","0","84885","","809","","","68","29","","","1","29","training","adjacent","CB","3","2","N.jpg","L.jpg","0","0","1","",""
"","feedback","","html-keyboard-response","207","703028","0.0-1.0-267.0-0.0","0","0","84885","","null","","","null","29","","","","","","","","","","","","","","","",""
"","ITI","","html-keyboard-response","208","704030","0.0-1.0-270.0","0","0","84885","","null","","","null","29","","","","","","","","","","","","","","","NaN",""
"","S1","","html-keyboard-response","209","704283","0.0-1.0-272.0","0","0","84885","","null","","","null","30","","","","","","","","","","","","","","","",""
"","ISI","","html-keyboard-response","210","704784","0.0-1.0-273.0","0","0","84885","","null","","","null","30","NaN","","","","","","","","","","","","","","",""
"","S2","","html-keyboard-response","211","705037","0.0-1.0-274.0","0","0","84885","","null","","","null","30","","NaN","","","","","","","","","","","","","",""
"","response","","html-keyboard-response","212","706789","0.0-1.0-275.0-0.0","0","0","84885","","null","","","null","30","","","1","30","training","adjacent","BC","2","3","L.jpg","N.jpg","NaN","1","0","",""
"","too_slow_prompt","","html-keyboard-response","213","707791","0.0-1.0-277.0-0.0","1","0","84885","","null","","","null","","","","","","","","","","","","","","","","",""
"","time_out","","html-keyboard-response","214","709793","0.0-1.0-278.0-0.0","0","0","84885","","null","","","null","30","","","","","","","","","","","","","","","",""
"","ITI","","html-keyboard-response","215","710795","0.0-1.0-279.0","0","0","84885","","386","","","75","30","","","","","","","","","","","","","","","k",""
"","S1","","html-keyboard-response","216","711048","0.0-1.0-281.0","0","0","84885","","null","","","null","31","","","","","","","","","","","","","","","",""
"","ISI","","html-keyboard-response","217","711551","0.0-1.0-282.0","0","0","84885","","460","","","75","31","k","","","","","","","","","","","","","","",""
"","S2","","html-keyboard-response","218","711803","0.0-1.0-283.0","0","0","84885","","null","","","null","31","","NaN","","","","","","","","","","","","","",""
"","response","","html-keyboard-response","219","712155","0.0-1.0-284.0-0.0","0","0","84885","","350","","","75","31","","","1","31","training","adjacent","GF","7","6","P.jpg","M.jpg","1","0","0","",""
"","feedback","","html-keyboard-response","220","713157","0.0-1.0-285.0-0.0","0","0","84885","","null","","","null","31","","","","","","","","","","","","","","","",""
"","time_out","","html-keyboard-response","221","715159","0.0-1.0-287.0-0.0","0","0","84885","","null","","","null","31","","","","","","","","","","","","","","","",""
"","ITI","","html-keyboard-response","222","716161","0.0-1.0-288.0","0","0","84885","","null","","","null","31","","","","","","","","","","","","","","","NaN",""
"","S1","","html-keyboard-response","223","716414","0.0-1.0-290.0","0","0","84885","","null","","","null","32","","","","","","","","","","","","","","","",""
"","ISI","","html-keyboard-response","224","716916","0.0-1.0-291.0","0","0","84885","","351","","","75","32","k","","","","","","","","","","","","","","",""
"","S2","","html-keyboard-response","225","717169","0.0-1.0-292.0","0","0","84885","","null","","","null","32","","NaN","","","","","","","","","","","","","",""
"","response","","html-keyboard-response","226","717597","0.0-1.0-293.0-0.0","0","0","84885","","427","","","68","32","","","1","32","training","adjacent","CD","3","4","N.jpg","Q.jpg","0","1","0","",""
"","feedback","","html-keyboard-response","227","718600","0.0-1.0-294.0-0.0","0","0","84885","","null","","","null","32","","","","","","","","","","","","","","","",""
"","time_out","","html-keyboard-response","228","720602","0.0-1.0-296.0-0.0","0","0","84885","","null","","","null","32","","","","","","","","","","","","","","","",""
"","ITI","","html-keyboard-response","229","721604","0.0-1.0-297.0","0","0","84885","","null","","","null","32","","","","","","","","","","","","","","","NaN",""
"","S1","","html-keyboard-response","230","721856","0.0-1.0-299.0","0","0","84885","","null","","","null","33","","","","","","","","","","","","","","","",""
"","ISI","","html-keyboard-response","231","722358","0.0-1.0-300.0","0","0","84885","","null","","","null","33","NaN","","","","","","","","","","","","","","",""
"","S2","","html-keyboard-response","232","722451","0.0-1.0-301.0","0","0","84885","","91","","","75","33","","k","1","33","training","adjacent","BC","2","3","L.jpg","N.jpg","1","1","1","",""
"","feedback","","html-keyboard-response","233","723454","0.0-1.0-303.0-0.0","0","0","84885","","null","","","null","33","","","","","","","","","","","","","","","",""
"","ITI","","html-keyboard-response","234","724457","0.0-1.0-306.0","0","0","84885","","null","","","null","33","","","","","","","","","","","","","","","NaN",""
"","S1","","html-keyboard-response","235","724710","0.0-1.0-308.0","0","0","84885","","null","","","null","34","","","","","","","","","","","","","","","",""
"","ISI","","html-keyboard-response","236","725213","0.0-1.0-309.0","0","0","84885","","null","","","null","34","NaN","","","","","","","","","","","","","","",""
"","S2","","html-keyboard-response","237","725466","0.0-1.0-310.0","0","0","84885","","null","","","null","34","","NaN","","","","","","","","","","","","","",""
"","response","","html-keyboard-response","238","726325","0.0-1.0-311.0-0.0","0","0","84885","","859","","","75","34","","","1","34","training","adjacent","AB","1","2","O.jpg","L.jpg","1","1","1","",""
"","feedback","","html-keyboard-response","239","727328","0.0-1.0-312.0-0.0","0","0","84885","","null","","","null","34","","","","","","","","","","","","","","","",""
"","ITI","","html-keyboard-response","240","728330","0.0-1.0-315.0","0","0","84885","","null","","","null","34","","","","","","","","","","","","","","","NaN",""
"","S1","","html-keyboard-response","241","728583","0.0-1.0-317.0","0","0","84885","","null","","","null","35","","","","","","","","","","","","","","","",""
"","ISI","","html-keyboard-response","242","729086","0.0-1.0-318.0","0","0","84885","","null","","","null","35","NaN","","","","","","","","","","","","","","",""
"","S2","","html-keyboard-response","243","729338","0.0-1.0-319.0","0","0","84885","","null","","","null","35","","NaN","","","","","","","","","","","","","",""
"","response","","html-keyboard-response","244","729663","0.0-1.0-320.0-0.0","0","0","84885","","323","","","75","35","","","1","35","training","adjacent","DC","4","3","Q.jpg","N.jpg","1","0","0","",""
"","feedback","","html-keyboard-response","245","730667","0.0-1.0-321.0-0.0","0","0","84885","","null","","","null","35","","","","","","","","","","","","","","","",""
"","time_out","","html-keyboard-response","246","732668","0.0-1.0-323.0-0.0","0","0","84885","","null","","","null","35","","","","","","","","","","","","","","","",""
"","ITI","","html-keyboard-response","247","733671","0.0-1.0-324.0","0","0","84885","","null","","","null","35","","","","","","","","","","","","","","","NaN",""
"","S1","","html-keyboard-response","248","733923","0.0-1.0-326.0","0","0","84885","","null","","","null","36","","","","","","","","","","","","","","","",""
"","ISI","","html-keyboard-response","249","734425","0.0-1.0-327.0","0","0","84885","","332","","","75","36","k","","","","","","","","","","","","","","",""
"","S2","","html-keyboard-response","250","734678","0.0-1.0-328.0","0","0","84885","","null","","","null","36","","NaN","","","","","","","","","","","","","",""
"","response","","html-keyboard-response","251","734991","0.0-1.0-329.0-0.0","0","0","84885","","311","","","75","36","","","1","36","training","adjacent","DE","4","5","Q.jpg","R.jpg","1","1","1","",""
"","feedback","","html-keyboard-response","252","735994","0.0-1.0-330.0-0.0","0","0","84885","","null","","","null","36","","","","","","","","","","","","","","","",""
"","ITI","","html-keyboard-response","253","736997","0.0-1.0-333.0","0","0","84885","","null","","","null","36","","","","","","","","","","","","","","","NaN",""
"","S1","","html-keyboard-response","254","737250","0.0-1.0-335.0","0","0","84885","","null","","","null","37","","","","","","","","","","","","","","","",""
"","ISI","","html-keyboard-response","255","737753","0.0-1.0-336.0","0","0","84885","","null","","","null","37","NaN","","","","","","","","","","","","","","",""
"","S2","","html-keyboard-response","256","738006","0.0-1.0-337.0","0","0","84885","","null","","","null","37","","NaN","","","","","","","","","","","","","",""
"","response","","html-keyboard-response","257","739121","0.0-1.0-338.0-0.0","0","0","84885","","1113","","","75","37","","","1","37","training","adjacent","DE","4","5","Q.jpg","R.jpg","1","1","1","",""
"","feedback","","html-keyboard-response","258","740123","0.0-1.0-339.0-0.0","0","0","84885","","null","","","null","37","","","","","","","","","","","","","","","",""
"","ITI","","html-keyboard-response","259","741126","0.0-1.0-342.0","0","0","84885","","null","","","null","37","","","","","","","","","","","","","","","NaN",""
"","S1","","html-keyboard-response","260","741378","0.0-1.0-344.0","0","0","84885","","null","","","null","38","","","","","","","","","","","","","","","",""
"","ISI","","html-keyboard-response","261","741880","0.0-1.0-345.0","0","0","84885","","null","","","null","38","NaN","","","","","","","","","","","","","","",""
"","S2","","html-keyboard-response","262","742133","0.0-1.0-346.0","0","0","84885","","null","","","null","38","","NaN","","","","","","","","","","","","","",""
"","response","","html-keyboard-response","263","742916","0.0-1.0-347.0-0.0","0","0","84885","","781","","","75","38","","","1","38","training","adjacent","GF","7","6","P.jpg","M.jpg","1","0","0","",""
"","feedback","","html-keyboard-response","264","743919","0.0-1.0-348.0-0.0","0","0","84885","","null","","","null","38","","","","","","","","","","","","","","","",""
"","time_out","","html-keyboard-response","265","745920","0.0-1.0-350.0-0.0","0","0","84885","","null","","","null","38","","","","","","","","","","","","","","","",""
"","ITI","","html-keyboard-response","266","746923","0.0-1.0-351.0","0","0","84885","","null","","","null","38","","","","","","","","","","","","","","","NaN",""
"","S1","","html-keyboard-response","267","747175","0.0-1.0-353.0","0","0","84885","","null","","","null","39","","","","","","","","","","","","","","","",""
"","ISI","","html-keyboard-response","268","747678","0.0-1.0-354.0","0","0","84885","","null","","","null","39","NaN","","","","","","","","","","","","","","",""
"","S2","","html-keyboard-response","269","747931","0.0-1.0-355.0","0","0","84885","","null","","","null","39","","NaN","","","","","","","","","","","","","",""
"","response","","html-keyboard-response","270","748253","0.0-1.0-356.0-0.0","0","0","84885","","320","","","75","39","","","1","39","training","adjacent","DC","4","3","Q.jpg","N.jpg","1","0","0","",""
"","feedback","","html-keyboard-response","271","749256","0.0-1.0-357.0-0.0","0","0","84885","","null","","","null","39","","","","","","","","","","","","","","","",""
"","time_out","","html-keyboard-response","272","751259","0.0-1.0-359.0-0.0","0","0","84885","","null","","","null","39","","","","","","","","","","","","","","","",""
"","ITI","","html-keyboard-response","273","752261","0.0-1.0-360.0","0","0","84885","","null","","","null","39","","","","","","","","","","","","","","","NaN",""
"","S1","","html-keyboard-response","274","752514","0.0-1.0-362.0","0","0","84885","","null","","","null","40","","","","","","","","","","","","","","","",""
"","ISI","","html-keyboard-response","275","753016","0.0-1.0-363.0","0","0","84885","","null","","","null","40","NaN","","","","","","","","","","","","","","",""
"","S2","","html-keyboard-response","276","753269","0.0-1.0-364.0","0","0","84885","","null","","","null","40","","NaN","","","","","","","","","","","","","",""
"","response","","html-keyboard-response","277","753730","0.0-1.0-365.0-0.0","0","0","84885","","460","","","68","40","","","1","40","training","adjacent","DC","4","3","Q.jpg","N.jpg","0","0","1","",""
"","feedback","","html-keyboard-response","278","754732","0.0-1.0-366.0-0.0","0","0","84885","","null","","","null","40","","","","","","","","","","","","","","","",""
"","ITI","","html-keyboard-response","279","755735","0.0-1.0-369.0","0","0","84885","","null","","","null","40","","","","","","","","","","","","","","","NaN",""
"","S1","","html-keyboard-response","280","755988","0.0-1.0-371.0","0","0","84885","","null","","","null","41","","","","","","","","","","","","","","","",""
"","ISI","","html-keyboard-response","281","756491","0.0-1.0-372.0","0","0","84885","","null","","","null","41","NaN","","","","","","","","","","","","","","",""
"","S2","","html-keyboard-response","282","756744","0.0-1.0-373.0","0","0","84885","","null","","","null","41","","NaN","","","","","","","","","","","","","",""
"","response","","html-keyboard-response","283","757898","0.0-1.0-374.0-0.0","0","0","84885","","1152","","","68","41","","","1","41","training","adjacent","ED","5","4","R.jpg","Q.jpg","0","0","1","",""
"","feedback","","html-keyboard-response","284","758901","0.0-1.0-375.0-0.0","0","0","84885","","null","","","null","41","","","","","","","","","","","","","","","",""
"","ITI","","html-keyboard-response","285","759904","0.0-1.0-378.0","0","0","84885","","null","","","null","41","","","","","","","","","","","","","","","NaN",""
"","S1","","html-keyboard-response","286","760157","0.0-1.0-380.0","0","0","84885","","null","","","null","42","","","","","","","","","","","","","","","",""
"","ISI","","html-keyboard-response","287","760658","0.0-1.0-381.0","0","0","84885","","null","","","null","42","NaN","","","","","","","","","","","","","","",""
"","S2","","html-keyboard-response","288","760911","0.0-1.0-382.0","0","0","84885","","null","","","null","42","","NaN","","","","","","","","","","","","","",""
"","response","","html-keyboard-response","289","761938","0.0-1.0-383.0-0.0","0","0","84885","","1025","","","75","42","","","1","42","training","adjacent","GF","7","6","P.jpg","M.jpg","1","0","0","",""
"","feedback","","html-keyboard-response","290","762941","0.0-1.0-384.0-0.0","0","0","84885","","null","","","null","42","","","","","","","","","","","","","","","",""
"","time_out","","html-keyboard-response","291","764944","0.0-1.0-386.0-0.0","0","0","84885","","null","","","null","42","","","","","","","","","","","","","","","",""
"","ITI","","html-keyboard-response","292","765947","0.0-1.0-387.0","0","0","84885","","null","","","null","42","","","","","","","","","","","","","","","NaN",""
"","S1","","html-keyboard-response","293","766199","0.0-1.0-389.0","0","0","84885","","null","","","null","43","","","","","","","","","","","","","","","",""
"","ISI","","html-keyboard-response","294","766701","0.0-1.0-390.0","0","0","84885","","null","","","null","43","NaN","","","","","","","","","","","","","","",""
"","S2","","html-keyboard-response","295","766954","0.0-1.0-391.0","0","0","84885","","null","","","null","43","","NaN","","","","","","","","","","","","","",""
"","response","","html-keyboard-response","296","767009","0.0-1.0-392.0-0.0","0","0","84885","","54","","","75","43","","","1","43","training","adjacent","EF","5","6","R.jpg","M.jpg","1","1","1","",""
"","feedback","","html-keyboard-response","297","768012","0.0-1.0-393.0-0.0","0","0","84885","","null","","","null","43","","","","","","","","","","","","","","","",""
"","ITI","","html-keyboard-response","298","769015","0.0-1.0-396.0","0","0","84885","","null","","","null","43","","","","","","","","","","","","","","","NaN",""
"","S1","","html-keyboard-response","299","769268","0.0-1.0-398.0","0","0","84885","","null","","","null","44","","","","","","","","","","","","","","","",""
"","ISI","","html-keyboard-response","300","769771","0.0-1.0-399.0","0","0","84885","","null","","","null","44","NaN","","","","","","","","","","","","","","",""
"","S2","","html-keyboard-response","301","770024","0.0-1.0-400.0","0","0","84885","","null","","","null","44","","NaN","","","","","","","","","","","","","",""
"","response","","html-keyboard-response","302","770674","0.0-1.0-401.0-0.0","0","0","84885","","648","","","75","44","","","1","44","training","adjacent","BA","2","1","L.jpg","O.jpg","1","0","0","",""
"","feedback","","html-keyboard-response","303","771679","0.0-1.0-402.0-0.0","0","0","84885","","null","","","null","44","","","","","","","","","","","","","","","",""
"","time_out","","html-keyboard-response","304","773682","0.0-1.0-404.0-0.0","0","0","84885","","null","","","null","44","","","","","","","","","","","","","","","",""
"","ITI","","html-keyboard-response","305","774684","0.0-1.0-405.0","0","0","84885","","null","","","null","44","","","","","","","","","","","","","","","NaN",""
"","S1","","html-keyboard-response","306","774937","0.0-1.0-407.0","0","0","84885","","null","","","null","45","","","","","","","","","","","","","","","",""
"","ISI","","html-keyboard-response","307","775439","0.0-1.0-408.0","0","0","84885","","472","","","75","45","k","","","","","","","","","","","","","","",""
"","S2","","html-keyboard-response","308","775595","0.0-1.0-409.0","0","0","84885","","155","","","68","45","","d","1","45","training","adjacent","EF","5","6","R.jpg","M.jpg","0","1","0","",""
"","feedback","","html-keyboard-response","309","776597","0.0-1.0-411.0-0.0","0","0","84885","","null","","","null","45","","","","","","","","","","","","","","","",""
"","time_out","","html-keyboard-response","310","778599","0.0-1.0-413.0-0.0","0","0","84885","","null","","","null","45","","","","","","","","","","","","","","","",""
"","ITI","","html-keyboard-response","311","779601","0.0-1.0-414.0","0","0","84885","","null","","","null","45","","","","","","","","","","","","","","","NaN",""
"","S1","","html-keyboard-response","312","779853","0.0-1.0-416.0","0","0","84885","","null","","","null","46","","","","","","","","","","","","","","","",""
"","ISI","","html-keyboard-response","313","780355","0.0-1.0-417.0","0","0","84885","","409","","","75","46","k","","","","","","","","","","","","","","",""
"","S2","","html-keyboard-response","314","780607","0.0-1.0-418.0","0","0","84885","","null","","","null","46","","NaN","","","","","","","","","","","","","",""
"","response","","html-keyboard-response","315","781440","0.0-1.0-419.0-0.0","0","0","84885","","832","","","75","46","","","1","46","training","adjacent","FG","6","7","M.jpg","P.jpg","1","1","1","",""
"","feedback","","html-keyboard-response","316","782443","0.0-1.0-420.0-0.0","0","0","84885","","null","","","null","46","","","","","","","","","","","","","","","",""
"","ITI","","html-keyboard-response","317","783446","0.0-1.0-423.0","0","0","84885","","null","","","null","46","","","","","","","","","","","","","","","NaN",""
"","S1","","html-keyboard-response","318","783699","0.0-1.0-425.0","0","0","84885","","null","","","null","47","","","","","","","","","","","","","","","",""
"","ISI","","html-keyboard-response","319","784201","0.0-1.0-426.0","0","0","84885","","null","","","null","47","NaN","","","","","","","","","","","","","","",""
"","S2","","html-keyboard-response","320","784454","0.0-1.0-427.0","0","0","84885","","null","","","null","47","","NaN","","","","","","","","","","","","","",""
"","response","","html-keyboard-response","321","785643","0.0-1.0-428.0-0.0","0","0","84885","","1188","","","75","47","","","1","47","training","adjacent","BA","2","1","L.jpg","O.jpg","1","0","0","",""
"","feedback","","html-keyboard-response","322","786646","0.0-1.0-429.0-0.0","0","0","84885","","null","","","null","47","","","","","","","","","","","","","","","",""
"","time_out","","html-keyboard-response","323","788649","0.0-1.0-431.0-0.0","0","0","84885","","null","","","null","47","","","","","","","","","","","","","","","",""
"","ITI","","html-keyboard-response","324","789651","0.0-1.0-432.0","0","0","84885","","null","","","null","47","","","","","","","","","","","","","","","NaN",""
"","block_over","","html-keyboard-response","325","835535","0.0-1.0-433.0-0.0","0","0","84885","","45882","","","32","47","","","","","","","","","","","","","","","",""
"","S1","","html-keyboard-response","326","835788","0.0-1.0-434.0","0","0","84885","","null","","","null","48","","","","","","","","","","","","","","","",""
"","ISI","","html-keyboard-response","327","836290","0.0-1.0-435.0","0","0","84885","","null","","","null","48","NaN","","","","","","","","","","","","","","",""
"","S2","","html-keyboard-response","328","836543","0.0-1.0-436.0","0","0","84885","","null","","","null","48","","NaN","","","","","","","","","","","","","",""
"","response","","html-keyboard-response","329","837649","0.0-1.0-437.0-0.0","0","0","84885","","1105","","","68","48","","","2","48","training","adjacent","CD","3","4","N.jpg","Q.jpg","0","1","0","",""
"","feedback","","html-keyboard-response","330","838651","0.0-1.0-438.0-0.0","0","0","84885","","null","","","null","48","","","","","","","","","","","","","","","",""
"","time_out","","html-keyboard-response","331","840654","0.0-1.0-440.0-0.0","0","0","84885","","null","","","null","48","","","","","","","","","","","","","","","",""
"","ITI","","html-keyboard-response","332","841656","0.0-1.0-441.0","0","0","84885","","null","","","null","48","","","","","","","","","","","","","","","NaN",""
"","S1","","html-keyboard-response","333","841909","0.0-1.0-443.0","0","0","84885","","null","","","null","49","","","","","","","","","","","","","","","",""
"","ISI","","html-keyboard-response","334","842411","0.0-1.0-444.0","0","0","84885","","450","","","75","49","k","","","","","","","","","","","","","","",""
"","S2","","html-keyboard-response","335","842663","0.0-1.0-445.0","0","0","84885","","null","","","null","49","","NaN","","","","","","","","","","","","","",""
"","response","","html-keyboard-response","336","843367","0.0-1.0-446.0-0.0","0","0","84885","","703","","","75","49","","","2","49","training","adjacent","EF","5","6","R.jpg","M.jpg","1","1","1","",""
"","feedback","","html-keyboard-response","337","844369","0.0-1.0-447.0-0.0","0","0","84885","","null","","","null","49","","","","","","","","","","","","","","","",""
"","ITI","","html-keyboard-response","338","845372","0.0-1.0-450.0","0","0","84885","","21","","","75","49","","","","","","","","","","","","","","","k",""
"","S1","","html-keyboard-response","339","845624","0.0-1.0-452.0","0","0","84885","","null","","","null","50","","","","","","","","","","","","","","","",""
"","ISI","","html-keyboard-response","340","846126","0.0-1.0-453.0","0","0","84885","","null","","","null","50","NaN","","","","","","","","","","","","","","",""
"","S2","","html-keyboard-response","341","846378","0.0-1.0-454.0","0","0","84885","","null","","","null","50","","NaN","","","","","","","","","","","","","",""
"","response","","html-keyboard-response","342","846456","0.0-1.0-455.0-0.0","0","0","84885","","76","","","75","50","","","2","50","training","adjacent","BC","2","3","L.jpg","N.jpg","1","1","1","",""
"","feedback","","html-keyboard-response","343","847458","0.0-1.0-456.0-0.0","0","0","84885","","null","","","null","50","","","","","","","","","","","","","","","",""
"","ITI","","html-keyboard-response","344","848460","0.0-1.0-459.0","0","0","84885","","926","","","75","50","","","","","","","","","","","","","","","k",""
"","S1","","html-keyboard-response","345","848712","0.0-1.0-461.0","0","0","84885","","null","","","null","51","","","","","","","","","","","","","","","",""
"","ISI","","html-keyboard-response","346","849214","0.0-1.0-462.0","0","0","84885","","441","","","75","51","k","","","","","","","","","","","","","","",""
"","S2","","html-keyboard-response","347","849466","0.0-1.0-463.0","0","0","84885","","null","","","null","51","","NaN","","","","","","","","","","","","","",""
"","response","","html-keyboard-response","348","849850","0.0-1.0-464.0-0.0","0","0","84885","","383","","","75","51","","","2","51","training","adjacent","BC","2","3","L.jpg","N.jpg","1","1","1","",""
"","feedback","","html-keyboard-response","349","850852","0.0-1.0-465.0-0.0","0","0","84885","","null","","","null","51","","","","","","","","","","","","","","","",""
"","ITI","","html-keyboard-response","350","851854","0.0-1.0-468.0","0","0","84885","","803","","","68","51","","","","","","","","","","","","","","","d",""
"","S1","","html-keyboard-response","351","852107","0.0-1.0-470.0","0","0","84885","","null","","","null","52","","","","","","","","","","","","","","","",""
"","ISI","","html-keyboard-response","352","852609","0.0-1.0-471.0","0","0","84885","","289","","","75","52","k","","","","","","","","","","","","","","",""
"","S2","","html-keyboard-response","353","852861","0.0-1.0-472.0","0","0","84885","","null","","","null","52","","NaN","","","","","","","","","","","","","",""
"","response","","html-keyboard-response","354","853107","0.0-1.0-473.0-0.0","0","0","84885","","245","","","75","52","","","2","52","training","adjacent","DE","4","5","Q.jpg","R.jpg","1","1","1","",""
"","feedback","","html-keyboard-response","355","854109","0.0-1.0-474.0-0.0","0","0","84885","","null","","","null","52","","","","","","","","","","","","","","","",""
"","ITI","","html-keyboard-response","356","855111","0.0-1.0-477.0","0","0","84885","","840","","","75","52","","","","","","","","","","","","","","","k",""
"","S1","","html-keyboard-response","357","855364","0.0-1.0-479.0","0","0","84885","","null","","","null","53","","","","","","","","","","","","","","","",""
"","ISI","","html-keyboard-response","358","855866","0.0-1.0-480.0","0","0","84885","","327","","","68","53","d","","","","","","","","","","","","","","",""
"","S2","","html-keyboard-response","359","856118","0.0-1.0-481.0","0","0","84885","","null","","","null","53","","NaN","","","","","","","","","","","","","",""
"","response","","html-keyboard-response","360","856347","0.0-1.0-482.0-0.0","0","0","84885","","228","","","68","53","","","2","53","training","adjacent","DE","4","5","Q.jpg","R.jpg","0","1","0","",""
"","feedback","","html-keyboard-response","361","857350","0.0-1.0-483.0-0.0","0","0","84885","","null","","","null","53","","","","","","","","","","","","","","","",""
"","time_out","","html-keyboard-response","362","859352","0.0-1.0-485.0-0.0","0","0","84885","","null","","","null","53","","","","","","","","","","","","","","","",""
"","ITI","","html-keyboard-response","363","860354","0.0-1.0-486.0","0","0","84885","","355","","","75","53","","","","","","","","","","","","","","","k",""
"","S1","","html-keyboard-response","364","860606","0.0-1.0-488.0","0","0","84885","","null","","","null","54","","","","","","","","","","","","","","","",""
"","ISI","","html-keyboard-response","365","861108","0.0-1.0-489.0","0","0","84885","","null","","","null","54","NaN","","","","","","","","","","","","","","",""
"","S2","","html-keyboard-response","366","861158","0.0-1.0-490.0","0","0","84885","","49","","","75","54","","k","2","54","training","adjacent","FE","6","5","M.jpg","R.jpg","1","0","0","",""
"","feedback","","html-keyboard-response","367","862161","0.0-1.0-492.0-0.0","0","0","84885","","null","","","null","54","","","","","","","","","","","","","","","",""
"","time_out","","html-keyboard-response","368","864163","0.0-1.0-494.0-0.0","0","0","84885","","null","","","null","54","","","","","","","","","","","","","","","",""
"","ITI","","html-keyboard-response","369","865166","0.0-1.0-495.0","0","0","84885","","281","","","75","54","","","","","","","","","","","","","","","k",""
"","S1","","html-keyboard-response","370","865419","0.0-1.0-497.0","0","0","84885","","null","","","null","55","","","","","","","","","","","","","","","",""
"","ISI","","html-keyboard-response","371","865921","0.0-1.0-498.0","0","0","84885","","214","","","75","55","k","","","","","","","","","","","","","","",""
"","S2","","html-keyboard-response","372","865932","0.0-1.0-499.0","0","0","84885","","11","","","68","55","","d","2","55","training","adjacent","GF","7","6","P.jpg","M.jpg","0","0","1","",""
"","feedback","","html-keyboard-response","373","866934","0.0-1.0-501.0-0.0","0","0","84885","","null","","","null","55","","","","","","","","","","","","","","","",""
"","ITI","","html-keyboard-response","374","867937","0.0-1.0-504.0","0","0","84885","","501","","","75","55","","","","","","","","","","","","","","","k",""
"","S1","","html-keyboard-response","375","868189","0.0-1.0-506.0","0","0","84885","","null","","","null","56","","","","","","","","","","","","","","","",""
"","ISI","","html-keyboard-response","376","868691","0.0-1.0-507.0","0","0","84885","","161","","","68","56","d","","","","","","","","","","","","","","",""
"","S2","","html-keyboard-response","377","868943","0.0-1.0-508.0","0","0","84885","","null","","","null","56","","NaN","","","","","","","","","","","","","",""
"","response","","html-keyboard-response","378","868985","0.0-1.0-509.0-0.0","0","0","84885","","41","","","75","56","","","2","56","training","adjacent","CD","3","4","N.jpg","Q.jpg","1","1","1","",""
"","feedback","","html-keyboard-response","379","869988","0.0-1.0-510.0-0.0","0","0","84885","","null","","","null","56","","","","","","","","","","","","","","","",""
"","ITI","","html-keyboard-response","380","870991","0.0-1.0-513.0","0","0","84885","","542","","","68","56","","","","","","","","","","","","","","","d",""
"","S1","","html-keyboard-response","381","871244","0.0-1.0-515.0","0","0","84885","","null","","","null","57","","","","","","","","","","","","","","","",""
"","ISI","","html-keyboard-response","382","871747","0.0-1.0-516.0","0","0","84885","","7","","","75","57","k","","","","","","","","","","","","","","",""
"","S2","","html-keyboard-response","383","871901","0.0-1.0-517.0","0","0","84885","","153","","","75","57","","k","2","57","training","adjacent","GF","7","6","P.jpg","M.jpg","1","0","0","",""
"","feedback","","html-keyboard-response","384","872903","0.0-1.0-519.0-0.0","0","0","84885","","null","","","null","57","","","","","","","","","","","","","","","",""
"","time_out","","html-keyboard-response","385","874905","0.0-1.0-521.0-0.0","0","0","84885","","null","","","null","57","","","","","","","","","","","","","","","",""
"","ITI","","html-keyboard-response","386","875907","0.0-1.0-522.0","0","0","84885","","257","","","68","57","","","","","","","","","","","","","","","d",""
"","S1","","html-keyboard-response","387","876159","0.0-1.0-524.0","0","0","84885","","null","","","null","58","","","","","","","","","","","","","","","",""
"","ISI","","html-keyboard-response","388","876662","0.0-1.0-525.0","0","0","84885","","null","","","null","58","NaN","","","","","","","","","","","","","","",""
"","S2","","html-keyboard-response","389","876915","0.0-1.0-526.0","0","0","84885","","null","","","null","58","","NaN","","","","","","","","","","","","","",""
"","response","","html-keyboard-response","390","877130","0.0-1.0-527.0-0.0","0","0","84885","","214","","","75","58","","","2","58","training","adjacent","ED","5","4","R.jpg","Q.jpg","1","0","0","",""
"","feedback","","html-keyboard-response","391","878132","0.0-1.0-528.0-0.0","0","0","84885","","null","","","null","58","","","","","","","","","","","","","","","",""
"","time_out","","html-keyboard-response","392","880134","0.0-1.0-530.0-0.0","0","0","84885","","null","","","null","58","","","","","","","","","","","","","","","",""
"","ITI","","html-keyboard-response","393","881136","0.0-1.0-531.0","0","0","84885","","3","","","68","58","","","","","","","","","","","","","","","d",""
"","S1","","html-keyboard-response","394","881388","0.0-1.0-533.0","0","0","84885","","null","","","null","59","","","","","","","","","","","","","","","",""
"","ISI","","html-keyboard-response","395","881890","0.0-1.0-534.0","0","0","84885","","392","","","75","59","k","","","","","","","","","","","","","","",""
"","S2","","html-keyboard-response","396","882142","0.0-1.0-535.0","0","0","84885","","null","","","null","59","","NaN","","","","","","","","","","","","","",""
"","response","","html-keyboard-response","397","882309","0.0-1.0-536.0-0.0","0","0","84885","","166","","","75","59","","","2","59","training","adjacent","CB","3","2","N.jpg","L.jpg","1","0","0","",""
"","feedback","","html-keyboard-response","398","883312","0.0-1.0-537.0-0.0","0","0","84885","","null","","","null","59","","","","","","","","","","","","","","","",""
"","time_out","","html-keyboard-response","399","885314","0.0-1.0-539.0-0.0","0","0","84885","","null","","","null","59","","","","","","","","","","","","","","","",""
"","ITI","","html-keyboard-response","400","886317","0.0-1.0-540.0","0","0","84885","","267","","","75","59","","","","","","","","","","","","","","","k",""
"","S1","","html-keyboard-response","401","886569","0.0-1.0-542.0","0","0","84885","","null","","","null","60","","","","","","","","","","","","","","","",""
"","ISI","","html-keyboard-response","402","887071","0.0-1.0-543.0","0","0","84885","","315","","","75","60","k","","","","","","","","","","","","","","",""
"","S2","","html-keyboard-response","403","887323","0.0-1.0-544.0","0","0","84885","","null","","","null","60","","NaN","","","","","","","","","","","","","",""
"","response","","html-keyboard-response","404","887731","0.0-1.0-545.0-0.0","0","0","84885","","406","","","75","60","","","2","60","training","adjacent","CD","3","4","N.jpg","Q.jpg","1","1","1","",""
"","feedback","","html-keyboard-response","405","888734","0.0-1.0-546.0-0.0","0","0","84885","","null","","","null","60","","","","","","","","","","","","","","","",""
"","ITI","","html-keyboard-response","406","889736","0.0-1.0-549.0","0","0","84885","","599","","","75","60","","","","","","","","","","","","","","","k",""
"","S1","","html-keyboard-response","407","889988","0.0-1.0-551.0","0","0","84885","","null","","","null","61","","","","","","","","","","","","","","","",""
"","ISI","","html-keyboard-response","408","890490","0.0-1.0-552.0","0","0","84885","","null","","","null","61","NaN","","","","","","","","","","","","","","",""
"","S2","","html-keyboard-response","409","890743","0.0-1.0-553.0","0","0","84885","","null","","","null","61","","NaN","","","","","","","","","","","","","",""
"","response","","html-keyboard-response","410","890908","0.0-1.0-554.0-0.0","0","0","84885","","164","","","75","61","","","2","61","training","adjacent","ED","5","4","R.jpg","Q.jpg","1","0","0","",""
"","feedback","","html-keyboard-response","411","891911","0.0-1.0-555.0-0.0","0","0","84885","","null","","","null","61","","","","","","","","","","","","","","","",""
"","time_out","","html-keyboard-response","412","893915","0.0-1.0-557.0-0.0","0","0","84885","","null","","","null","61","","","","","","","","","","","","","","","",""
"","ITI","","html-keyboard-response","413","894917","0.0-1.0-558.0","0","0","84885","","684","","","75","61","","","","","","","","","","","","","","","k",""
"","S1","","html-keyboard-response","414","895169","0.0-1.0-560.0","0","0","84885","","null","","","null","62","","","","","","","","","","","","","","","",""
"","ISI","","html-keyboard-response","415","895671","0.0-1.0-561.0","0","0","84885","","217","","","68","62","d","","","","","","","","","","","","","","",""
"","S2","","html-keyboard-response","416","895833","0.0-1.0-562.0","0","0","84885","","160","","","68","62","","d","2","62","training","adjacent","FG","6","7","M.jpg","P.jpg","0","1","0","",""
"","feedback","","html-keyboard-response","417","896836","0.0-1.0-564.0-0.0","0","0","84885","","null","","","null","62","","","","","","","","","","","","","","","",""
"","time_out","","html-keyboard-response","418","898838","0.0-1.0-566.0-0.0","0","0","84885","","null","","","null","62","","","","","","","","","","","","","","","",""
"","ITI","","html-keyboard-response","419","899839","0.0-1.0-567.0","0","0","84885","","629","","","75","62","","","","","","","","","","","","","","","k",""
"","S1","","html-keyboard-response","420","900091","0.0-1.0-569.0","0","0","84885","","null","","","null","63","","","","","","","","","","","","","","","",""
"","ISI","","html-keyboard-response","421","900593","0.0-1.0-570.0","0","0","84885","","null","","","null","63","NaN","","","","","","","","","","","","","","",""
"","S2","","html-keyboard-response","422","900636","0.0-1.0-571.0","0","0","84885","","42","","","75","63","","k","2","63","training","adjacent","AB","1","2","O.jpg","L.jpg","1","1","1","",""
"","feedback","","html-keyboard-response","423","901639","0.0-1.0-573.0-0.0","0","0","84885","","null","","","null","63","","","","","","","","","","","","","","","",""
"","ITI","","html-keyboard-response","424","902641","0.0-1.0-576.0","0","0","84885","","240","","","68","63","","","","","","","","","","","","","","","d",""
"","S1","","html-keyboard-response","425","902894","0.0-1.0-578.0","0","0","84885","","null","","","null","64","","","","","","","","","","","","","","","",""
"","ISI","","html-keyboard-response","426","903396","0.0-1.0-579.0","0","0","84885","","null","","","null","64","NaN","","","","","","","","","","","","","","",""
"","S2","","html-keyboard-response","427","903468","0.0-1.0-580.0","0","0","84885","","70","","","75","64","","k","2","64","training","adjacent","AB","1","2","O.jpg","L.jpg","1","1","1","",""
"","feedback","","html-keyboard-response","428","904470","0.0-1.0-582.0-0.0","0","0","84885","","null","","","null","64","","","","","","","","","","","","","","","",""
"","ITI","","html-keyboard-response","429","905473","0.0-1.0-585.0","0","0","84885","","109","","","75","64","","","","","","","","","","","","","","","k",""
"","S1","","html-keyboard-response","430","905726","0.0-1.0-587.0","0","0","84885","","null","","","null","65","","","","","","","","","","","","","","","",""
"","ISI","","html-keyboard-response","431","906229","0.0-1.0-588.0","0","0","84885","","null","","","null","65","NaN","","","","","","","","","","","","","","",""
"","S2","","html-keyboard-response","432","906482","0.0-1.0-589.0","0","0","84885","","null","","","null","65","","NaN","","","","","","","","","","","","","",""
"","response","","html-keyboard-response","433","906783","0.0-1.0-590.0-0.0","0","0","84885","","300","","","75","65","","","2","65","training","adjacent","ED","5","4","R.jpg","Q.jpg","1","0","0","",""
"","feedback","","html-keyboard-response","434","907786","0.0-1.0-591.0-0.0","0","0","84885","","null","","","null","65","","","","","","","","","","","","","","","",""
"","time_out","","html-keyboard-response","435","909789","0.0-1.0-593.0-0.0","0","0","84885","","null","","","null","65","","","","","","","","","","","","","","","",""
"","ITI","","html-keyboard-response","436","910791","0.0-1.0-594.0","0","0","84885","","804","","","75","65","","","","","","","","","","","","","","","k",""
"","S1","","html-keyboard-response","437","911044","0.0-1.0-596.0","0","0","84885","","null","","","null","66","","","","","","","","","","","","","","","",""
"","ISI","","html-keyboard-response","438","911547","0.0-1.0-597.0","0","0","84885","","null","","","null","66","NaN","","","","","","","","","","","","","","",""
"","S2","","html-keyboard-response","439","911780","0.0-1.0-598.0","0","0","84885","","231","","","75","66","","k","2","66","training","adjacent","DC","4","3","Q.jpg","N.jpg","1","0","0","",""
"","feedback","","html-keyboard-response","440","912782","0.0-1.0-600.0-0.0","0","0","84885","","null","","","null","66","","","","","","","","","","","","","","","",""
"","time_out","","html-keyboard-response","441","914784","0.0-1.0-602.0-0.0","0","0","84885","","null","","","null","66","","","","","","","","","","","","","","","",""
"","ITI","","html-keyboard-response","442","915786","0.0-1.0-603.0","0","0","84885","","988","","","75","66","","","","","","","","","","","","","","","k",""
"","S1","","html-keyboard-response","443","916038","0.0-1.0-605.0","0","0","84885","","null","","","null","67","","","","","","","","","","","","","","","",""
"","ISI","","html-keyboard-response","444","916540","0.0-1.0-606.0","0","0","84885","","459","","","75","67","k","","","","","","","","","","","","","","",""
"","S2","","html-keyboard-response","445","916792","0.0-1.0-607.0","0","0","84885","","null","","","null","67","","NaN","","","","","","","","","","","","","",""
"","response","","html-keyboard-response","446","917302","0.0-1.0-608.0-0.0","0","0","84885","","509","","","75","67","","","2","67","training","adjacent","GF","7","6","P.jpg","M.jpg","1","0","0","",""
"","feedback","","html-keyboard-response","447","918304","0.0-1.0-609.0-0.0","0","0","84885","","null","","","null","67","","","","","","","","","","","","","","","",""
"","time_out","","html-keyboard-response","448","920307","0.0-1.0-611.0-0.0","0","0","84885","","null","","","null","67","","","","","","","","","","","","","","","",""
"","ITI","","html-keyboard-response","449","921309","0.0-1.0-612.0","0","0","84885","","null","","","null","67","","","","","","","","","","","","","","","NaN",""
"","S1","","html-keyboard-response","450","921562","0.0-1.0-614.0","0","0","84885","","null","","","null","68","","","","","","","","","","","","","","","",""
"","ISI","","html-keyboard-response","451","922064","0.0-1.0-615.0","0","0","84885","","null","","","null","68","NaN","","","","","","","","","","","","","","",""
"","S2","","html-keyboard-response","452","922317","0.0-1.0-616.0","0","0","84885","","null","","","null","68","","NaN","","","","","","","","","","","","","",""
"","response","","html-keyboard-response","453","923004","0.0-1.0-617.0-0.0","0","0","84885","","686","","","75","68","","","2","68","training","adjacent","CB","3","2","N.jpg","L.jpg","1","0","0","",""
"","feedback","","html-keyboard-response","454","924006","0.0-1.0-618.0-0.0","0","0","84885","","null","","","null","68","","","","","","","","","","","","","","","",""
"","time_out","","html-keyboard-response","455","926008","0.0-1.0-620.0-0.0","0","0","84885","","null","","","null","68","","","","","","","","","","","","","","","",""
"","ITI","","html-keyboard-response","456","927011","0.0-1.0-621.0","0","0","84885","","45","","","75","68","","","","","","","","","","","","","","","k",""
"","S1","","html-keyboard-response","457","927264","0.0-1.0-623.0","0","0","84885","","null","","","null","69","","","","","","","","","","","","","","","",""
"","ISI","","html-keyboard-response","458","927766","0.0-1.0-624.0","0","0","84885","","301","","","75","69","k","","","","","","","","","","","","","","",""
"","S2","","html-keyboard-response","459","928019","0.0-1.0-625.0","0","0","84885","","null","","","null","69","","NaN","","","","","","","","","","","","","",""
"","response","","html-keyboard-response","460","928417","0.0-1.0-626.0-0.0","0","0","84885","","398","","","75","69","","","2","69","training","adjacent","FE","6","5","M.jpg","R.jpg","1","0","0","",""
"","feedback","","html-keyboard-response","461","929420","0.0-1.0-627.0-0.0","0","0","84885","","null","","","null","69","","","","","","","","","","","","","","","",""
"","time_out","","html-keyboard-response","462","931423","0.0-1.0-629.0-0.0","0","0","84885","","null","","","null","69","","","","","","","","","","","","","","","",""
"","ITI","","html-keyboard-response","463","932425","0.0-1.0-630.0","0","0","84885","","null","","","null","69","","","","","","","","","","","","","","","NaN",""
"","S1","","html-keyboard-response","464","932678","0.0-1.0-632.0","0","0","84885","","null","","","null","70","","","","","","","","","","","","","","","",""
"","ISI","","html-keyboard-response","465","933180","0.0-1.0-633.0","0","0","84885","","303","","","75","70","k","","","","","","","","","","","","","","",""
"","S2","","html-keyboard-response","466","933370","0.0-1.0-634.0","0","0","84885","","188","","","75","70","","k","2","70","training","adjacent","BC","2","3","L.jpg","N.jpg","1","1","1","",""
"","feedback","","html-keyboard-response","467","934372","0.0-1.0-636.0-0.0","0","0","84885","","null","","","null","70","","","","","","","","","","","","","","","",""
"","ITI","","html-keyboard-response","468","935374","0.0-1.0-639.0","0","0","84885","","null","","","null","70","","","","","","","","","","","","","","","NaN",""
"","S1","","html-keyboard-response","469","935626","0.0-1.0-641.0","0","0","84885","","null","","","null","71","","","","","","","","","","","","","","","",""
"","ISI","","html-keyboard-response","470","936128","0.0-1.0-642.0","0","0","84885","","null","","","null","71","NaN","","","","","","","","","","","","","","",""
"","S2","","html-keyboard-response","471","936195","0.0-1.0-643.0","0","0","84885","","65","","","75","71","","k","2","71","training","adjacent","FE","6","5","M.jpg","R.jpg","1","0","0","",""
"","feedback","","html-keyboard-response","472","937198","0.0-1.0-645.0-0.0","0","0","84885","","null","","","null","71","","","","","","","","","","","","","","","",""
"","time_out","","html-keyboard-response","473","939201","0.0-1.0-647.0-0.0","0","0","84885","","null","","","null","71","","","","","","","","","","","","","","","",""
"","ITI","","html-keyboard-response","474","940204","0.0-1.0-648.0","0","0","84885","","null","","","null","71","","","","","","","","","","","","","","","NaN",""
"","S1","","html-keyboard-response","475","940456","0.0-1.0-650.0","0","0","84885","","null","","","null","72","","","","","","","","","","","","","","","",""
"","ISI","","html-keyboard-response","476","940958","0.0-1.0-651.0","0","0","84885","","339","","","75","72","k","","","","","","","","","","","","","","",""
"","S2","","html-keyboard-response","477","941210","0.0-1.0-652.0","0","0","84885","","null","","","null","72","","NaN","","","","","","","","","","","","","",""
"","response","","html-keyboard-response","478","941212","0.0-1.0-653.0-0.0","0","0","84885","","2","","","68","72","","","2","72","training","adjacent","BA","2","1","L.jpg","O.jpg","0","0","1","",""
"","feedback","","html-keyboard-response","479","942215","0.0-1.0-654.0-0.0","0","0","84885","","null","","","null","72","","","","","","","","","","","","","","","",""
"","ITI","","html-keyboard-response","480","943217","0.0-1.0-657.0","0","0","84885","","178","","","75","72","","","","","","","","","","","","","","","k",""
"","S1","","html-keyboard-response","481","943470","0.0-1.0-659.0","0","0","84885","","null","","","null","73","","","","","","","","","","","","","","","",""
"","ISI","","html-keyboard-response","482","943972","0.0-1.0-660.0","0","0","84885","","null","","","null","73","NaN","","","","","","","","","","","","","","",""
"","S2","","html-keyboard-response","483","944041","0.0-1.0-661.0","0","0","84885","","67","","","75","73","","k","2","73","training","adjacent","DC","4","3","Q.jpg","N.jpg","1","0","0","",""
"","feedback","","html-keyboard-response","484","945043","0.0-1.0-663.0-0.0","0","0","84885","","null","","","null","73","","","","","","","","","","","","","","","",""
"","time_out","","html-keyboard-response","485","947045","0.0-1.0-665.0-0.0","0","0","84885","","null","","","null","73","","","","","","","","","","","","","","","",""
"","ITI","","html-keyboard-response","486","948048","0.0-1.0-666.0","0","0","84885","","null","","","null","73","","","","","","","","","","","","","","","NaN",""
"","S1","","html-keyboard-response","487","948301","0.0-1.0-668.0","0","0","84885","","null","","","null","74","","","","","","","","","","","","","","","",""
"","ISI","","html-keyboard-response","488","948804","0.0-1.0-669.0","0","0","84885","","303","","","75","74","k","","","","","","","","","","","","","","",""
"","S2","","html-keyboard-response","489","948995","0.0-1.0-670.0","0","0","84885","","190","","","75","74","","k","2","74","training","adjacent","BA","2","1","L.jpg","O.jpg","1","0","0","",""
"","feedback","","html-keyboard-response","490","949997","0.0-1.0-672.0-0.0","0","0","84885","","null","","","null","74","","","","","","","","","","","","","","","",""
"","time_out","","html-keyboard-response","491","952000","0.0-1.0-674.0-0.0","0","0","84885","","null","","","null","74","","","","","","","","","","","","","","","",""
"","ITI","","html-keyboard-response","492","953003","0.0-1.0-675.0","0","0","84885","","null","","","null","74","","","","","","","","","","","","","","","NaN",""
"","S1","","html-keyboard-response","493","953256","0.0-1.0-677.0","0","0","84885","","null","","","null","75","","","","","","","","","","","","","","","",""
"","ISI","","html-keyboard-response","494","953758","0.0-1.0-678.0","0","0","84885","","403","","","75","75","k","","","","","","","","","","","","","","",""
"","S2","","html-keyboard-response","495","954012","0.0-1.0-679.0","0","0","84885","","null","","","null","75","","NaN","","","","","","","","","","","","","",""
"","response","","html-keyboard-response","496","954071","0.0-1.0-680.0-0.0","0","0","84885","","59","","","75","75","","","2","75","training","adjacent","FG","6","7","M.jpg","P.jpg","1","1","1","",""
"","feedback","","html-keyboard-response","497","955074","0.0-1.0-681.0-0.0","0","0","84885","","null","","","null","75","","","","","","","","","","","","","","","",""
"","ITI","","html-keyboard-response","498","956076","0.0-1.0-684.0","0","0","84885","","null","","","null","75","","","","","","","","","","","","","","","NaN",""
"","S1","","html-keyboard-response","499","956329","0.0-1.0-686.0","0","0","84885","","null","","","null","76","","","","","","","","","","","","","","","",""
"","ISI","","html-keyboard-response","500","956832","0.0-1.0-687.0","0","0","84885","","null","","","null","76","NaN","","","","","","","","","","","","","","",""
"","S2","","html-keyboard-response","501","957085","0.0-1.0-688.0","0","0","84885","","null","","","null","76","","NaN","","","","","","","","","","","","","",""
"","response","","html-keyboard-response","502","957218","0.0-1.0-689.0-0.0","0","0","84885","","132","","","75","76","","","2","76","training","adjacent","DE","4","5","Q.jpg","R.jpg","1","1","1","",""
"","feedback","","html-keyboard-response","503","958220","0.0-1.0-690.0-0.0","0","0","84885","","null","","","null","76","","","","","","","","","","","","","","","",""
"","ITI","","html-keyboard-response","504","959223","0.0-1.0-693.0","0","0","84885","","null","","","null","76","","","","","","","","","","","","","","","NaN",""
"","S1","","html-keyboard-response","505","959476","0.0-1.0-695.0","0","0","84885","","null","","","null","77","","","","","","","","","","","","","","","",""
"","ISI","","html-keyboard-response","506","959978","0.0-1.0-696.0","0","0","84885","","null","","","null","77","NaN","","","","","","","","","","","","","","",""
"","S2","","html-keyboard-response","507","960231","0.0-1.0-697.0","0","0","84885","","null","","","null","77","","NaN","","","","","","","","","","","","","",""
"","response","","html-keyboard-response","508","960954","0.0-1.0-698.0-0.0","0","0","84885","","721","","","75","77","","","2","77","training","adjacent","AB","1","2","O.jpg","L.jpg","1","1","1","",""
"","feedback","","html-keyboard-response","509","961956","0.0-1.0-699.0-0.0","0","0","84885","","null","","","null","77","","","","","","","","","","","","","","","",""
"","ITI","","html-keyboard-response","510","962959","0.0-1.0-702.0","0","0","84885","","null","","","null","77","","","","","","","","","","","","","","","NaN",""
"","S1","","html-keyboard-response","511","963212","0.0-1.0-704.0","0","0","84885","","null","","","null","78","","","","","","","","","","","","","","","",""
"","ISI","","html-keyboard-response","512","963714","0.0-1.0-705.0","0","0","84885","","null","","","null","78","NaN","","","","","","","","","","","","","","",""
"","S2","","html-keyboard-response","513","963967","0.0-1.0-706.0","0","0","84885","","null","","","null","78","","NaN","","","","","","","","","","","","","",""
"","response","","html-keyboard-response","514","965034","0.0-1.0-707.0-0.0","0","0","84885","","1066","","","75","78","","","2","78","training","adjacent","CB","3","2","N.jpg","L.jpg","1","0","0","",""
"","feedback","","html-keyboard-response","515","966037","0.0-1.0-708.0-0.0","0","0","84885","","null","","","null","78","","","","","","","","","","","","","","","",""
"","time_out","","html-keyboard-response","516","968040","0.0-1.0-710.0-0.0","0","0","84885","","null","","","null","78","","","","","","","","","","","","","","","",""
"","ITI","","html-keyboard-response","517","969043","0.0-1.0-711.0","0","0","84885","","null","","","null","78","","","","","","","","","","","","","","","NaN",""
"","S1","","html-keyboard-response","518","969296","0.0-1.0-713.0","0","0","84885","","null","","","null","79","","","","","","","","","","","","","","","",""
"","ISI","","html-keyboard-response","519","969798","0.0-1.0-714.0","0","0","84885","","null","","","null","79","NaN","","","","","","","","","","","","","","",""
"","S2","","html-keyboard-response","520","970051","0.0-1.0-715.0","0","0","84885","","null","","","null","79","","NaN","","","","","","","","","","","","","",""
"","response","","html-keyboard-response","521","971444","0.0-1.0-716.0-0.0","0","0","84885","","1392","","","75","79","","","2","79","training","adjacent","GF","7","6","P.jpg","M.jpg","1","0","0","",""
"","feedback","","html-keyboard-response","522","972446","0.0-1.0-717.0-0.0","0","0","84885","","null","","","null","79","","","","","","","","","","","","","","","",""
"","time_out","","html-keyboard-response","523","974449","0.0-1.0-719.0-0.0","0","0","84885","","null","","","null","79","","","","","","","","","","","","","","","",""
"","ITI","","html-keyboard-response","524","975452","0.0-1.0-720.0","0","0","84885","","null","","","null","79","","","","","","","","","","","","","","","NaN",""
"","S1","","html-keyboard-response","525","975705","0.0-1.0-722.0","0","0","84885","","null","","","null","80","","","","","","","","","","","","","","","",""
"","ISI","","html-keyboard-response","526","976207","0.0-1.0-723.0","0","0","84885","","null","","","null","80","NaN","","","","","","","","","","","","","","",""
"","S2","","html-keyboard-response","527","976460","0.0-1.0-724.0","0","0","84885","","null","","","null","80","","NaN","","","","","","","","","","","","","",""
"","response","","html-keyboard-response","528","977288","0.0-1.0-725.0-0.0","0","0","84885","","827","","","68","80","","","2","80","training","adjacent","BC","2","3","L.jpg","N.jpg","0","1","0","",""
"","feedback","","html-keyboard-response","529","978291","0.0-1.0-726.0-0.0","0","0","84885","","null","","","null","80","","","","","","","","","","","","","","","",""
"","time_out","","html-keyboard-response","530","980294","0.0-1.0-728.0-0.0","0","0","84885","","null","","","null","80","","","","","","","","","","","","","","","",""
"","ITI","","html-keyboard-response","531","981297","0.0-1.0-729.0","0","0","84885","","null","","","null","80","","","","","","","","","","","","","","","NaN",""
"","S1","","html-keyboard-response","532","981550","0.0-1.0-731.0","0","0","84885","","null","","","null","81","","","","","","","","","","","","","","","",""
"","ISI","","html-keyboard-response","533","982053","0.0-1.0-732.0","0","0","84885","","null","","","null","81","NaN","","","","","","","","","","","","","","",""
"","S2","","html-keyboard-response","534","982210","0.0-1.0-733.0","0","0","84885","","156","","","75","81","","k","2","81","training","adjacent","FG","6","7","M.jpg","P.jpg","1","1","1","",""
"","feedback","","html-keyboard-response","535","983212","0.0-1.0-735.0-0.0","0","0","84885","","null","","","null","81","","","","","","","","","","","","","","","",""
"","ITI","","html-keyboard-response","536","984215","0.0-1.0-738.0","0","0","84885","","null","","","null","81","","","","","","","","","","","","","","","NaN",""
"","S1","","html-keyboard-response","537","984468","0.0-1.0-740.0","0","0","84885","","null","","","null","82","","","","","","","","","","","","","","","",""
"","ISI","","html-keyboard-response","538","984971","0.0-1.0-741.0","0","0","84885","","null","","","null","82","NaN","","","","","","","","","","","","","","",""
"","S2","","html-keyboard-response","539","985224","0.0-1.0-742.0","0","0","84885","","null","","","null","82","","NaN","","","","","","","","","","","","","",""
"","response","","html-keyboard-response","540","985461","0.0-1.0-743.0-0.0","0","0","84885","","236","","","75","82","","","2","82","training","adjacent","AB","1","2","O.jpg","L.jpg","1","1","1","",""
"","feedback","","html-keyboard-response","541","986463","0.0-1.0-744.0-0.0","0","0","84885","","null","","","null","82","","","","","","","","","","","","","","","",""
"","ITI","","html-keyboard-response","542","987466","0.0-1.0-747.0","0","0","84885","","null","","","null","82","","","","","","","","","","","","","","","NaN",""
"","S1","","html-keyboard-response","543","987719","0.0-1.0-749.0","0","0","84885","","null","","","null","83","","","","","","","","","","","","","","","",""
"","ISI","","html-keyboard-response","544","988221","0.0-1.0-750.0","0","0","84885","","null","","","null","83","NaN","","","","","","","","","","","","","","",""
"","S2","","html-keyboard-response","545","988474","0.0-1.0-751.0","0","0","84885","","null","","","null","83","","NaN","","","","","","","","","","","","","",""
"","response","","html-keyboard-response","546","990227","0.0-1.0-752.0-0.0","0","0","84885","","null","","","null","83","","","2","83","training","adjacent","EF","5","6","R.jpg","M.jpg","NaN","1","0","",""
"","too_slow_prompt","","html-keyboard-response","547","991230","0.0-1.0-754.0-0.0","1","0","84885","","null","","","null","","","","","","","","","","","","","","","","",""
"","time_out","","html-keyboard-response","548","993233","0.0-1.0-755.0-0.0","0","0","84885","","null","","","null","83","","","","","","","","","","","","","","","",""
"","ITI","","html-keyboard-response","549","994235","0.0-1.0-756.0","0","0","84885","","null","","","null","83","","","","","","","","","","","","","","","NaN",""
"","S1","","html-keyboard-response","550","994488","0.0-1.0-758.0","0","0","84885","","null","","","null","84","","","","","","","","","","","","","","","",""
"","ISI","","html-keyboard-response","551","994991","0.0-1.0-759.0","0","0","84885","","null","","","null","84","NaN","","","","","","","","","","","","","","",""
"","S2","","html-keyboard-response","552","995244","0.0-1.0-760.0","0","0","84885","","null","","","null","84","","NaN","","","","","","","","","","","","","",""
"","response","","html-keyboard-response","553","995607","0.0-1.0-761.0-0.0","0","0","84885","","363","","","75","84","","","2","84","training","adjacent","DC","4","3","Q.jpg","N.jpg","1","0","0","",""
"","feedback","","html-keyboard-response","554","996610","0.0-1.0-762.0-0.0","0","0","84885","","null","","","null","84","","","","","","","","","","","","","","","",""
"","time_out","","html-keyboard-response","555","998612","0.0-1.0-764.0-0.0","0","0","84885","","null","","","null","84","","","","","","","","","","","","","","","",""
"","ITI","","html-keyboard-response","556","999614","0.0-1.0-765.0","0","0","84885","","null","","","null","84","","","","","","","","","","","","","","","NaN",""
"","S1","","html-keyboard-response","557","999867","0.0-1.0-767.0","0","0","84885","","null","","","null","85","","","","","","","","","","","","","","","",""
"","ISI","","html-keyboard-response","558","1000369","0.0-1.0-768.0","0","0","84885","","361","","","68","85","d","","","","","","","","","","","","","","",""
"","S2","","html-keyboard-response","559","1000620","0.0-1.0-769.0","0","0","84885","","null","","","null","85","","NaN","","","","","","","","","","","","","",""
"","response","","html-keyboard-response","560","1000631","0.0-1.0-770.0-0.0","0","0","84885","","9","","","75","85","","","2","85","training","adjacent","ED","5","4","R.jpg","Q.jpg","1","0","0","",""
"","feedback","","html-keyboard-response","561","1001633","0.0-1.0-771.0-0.0","0","0","84885","","null","","","null","85","","","","","","","","","","","","","","","",""
"","time_out","","html-keyboard-response","562","1003635","0.0-1.0-773.0-0.0","0","0","84885","","null","","","null","85","","","","","","","","","","","","","","","",""
"","ITI","","html-keyboard-response","563","1004637","0.0-1.0-774.0","0","0","84885","","null","","","null","85","","","","","","","","","","","","","","","NaN",""
"","S1","","html-keyboard-response","564","1004890","0.0-1.0-776.0","0","0","84885","","null","","","null","86","","","","","","","","","","","","","","","",""
"","ISI","","html-keyboard-response","565","1005392","0.0-1.0-777.0","0","0","84885","","114","","","75","86","k","","","","","","","","","","","","","","",""
"","S2","","html-keyboard-response","566","1005644","0.0-1.0-778.0","0","0","84885","","null","","","null","86","","NaN","","","","","","","","","","","","","",""
"","response","","html-keyboard-response","567","1005801","0.0-1.0-779.0-0.0","0","0","84885","","157","","","75","86","","","2","86","training","adjacent","EF","5","6","R.jpg","M.jpg","1","1","1","",""
"","feedback","","html-keyboard-response","568","1006804","0.0-1.0-780.0-0.0","0","0","84885","","null","","","null","86","","","","","","","","","","","","","","","",""
"","ITI","","html-keyboard-response","569","1007807","0.0-1.0-783.0","0","0","84885","","null","","","null","86","","","","","","","","","","","","","","","NaN",""
"","S1","","html-keyboard-response","570","1008060","0.0-1.0-785.0","0","0","84885","","null","","","null","87","","","","","","","","","","","","","","","",""
"","ISI","","html-keyboard-response","571","1008562","0.0-1.0-786.0","0","0","84885","","null","","","null","87","NaN","","","","","","","","","","","","","","",""
"","S2","","html-keyboard-response","572","1008814","0.0-1.0-787.0","0","0","84885","","null","","","null","87","","NaN","","","","","","","","","","","","","",""
"","response","","html-keyboard-response","573","1008881","0.0-1.0-788.0-0.0","0","0","84885","","65","","","75","87","","","2","87","training","adjacent","BA","2","1","L.jpg","O.jpg","1","0","0","",""
"","feedback","","html-keyboard-response","574","1009883","0.0-1.0-789.0-0.0","0","0","84885","","null","","","null","87","","","","","","","","","","","","","","","",""
"","time_out","","html-keyboard-response","575","1011885","0.0-1.0-791.0-0.0","0","0","84885","","null","","","null","87","","","","","","","","","","","","","","","",""
"","ITI","","html-keyboard-response","576","1012887","0.0-1.0-792.0","0","0","84885","","506","","","75","87","","","","","","","","","","","","","","","k",""
"","S1","","html-keyboard-response","577","1013139","0.0-1.0-794.0","0","0","84885","","null","","","null","88","","","","","","","","","","","","","","","",""
"","ISI","","html-keyboard-response","578","1013641","0.0-1.0-795.0","0","0","84885","","391","","","75","88","k","","","","","","","","","","","","","","",""
