"success","ttype","start_time","trial_type","trial_index","time_elapsed","internal_node_id","warning","missed_checkup","PID","view_history","rt","responses","repeat_instructions","key_press","index","keypress_isi","keypress_S2","block","trial_num","phase","group_type","pair_type","S1_stim","S2_stim","S1_img","S2_img","S1_chosen","S1_higher","accuracy","keypress_iti","total_bonus_tally"
"true","full_screen","d08012022hr1339","fullscreen","0","125735","0.0-0.0","0","0","92069","","","","","","","","","","","","","","","","","","","","","",""
"","instructions","","instructions","1","200731","0.0-1.0-0.0-0.0","0","0","92069","[{""page_index"":0,""viewing_time"":6311},{""page_index"":1,""viewing_time"":57747},{""page_index"":2,""viewing_time"":9074},{""page_index"":3,""viewing_time"":1861}]","74994","","","","","","","","","","","","","","","","","","","",""
"","comprehension_check","","survey-multi-choice","2","225386","0.0-1.0-0.0-1.0","0","0","92069","","24648","{""Q0"":""True"",""Q1"":""K"",""Q2"":""When you see the prompt 'MAKE A CHOICE' after the second image was presented"",""Q3"":""Green mark"",""Q4"":""either D or K""}","0","","","","","","","","","","","","","","","","","",""
"","start_exp","","html-keyboard-response","3","228428","0.0-1.0-1.0","0","0","92069","","3040","","","32","","","","","","","","","","","","","","","","",""
"","S1","","html-keyboard-response","4","228681","0.0-1.0-2.0","0","0","92069","","null","","","null","0","","","","","","","","","","","","","","","",""
"","ISI","","html-keyboard-response","5","230686","0.0-1.0-3.0","0","0","92069","","685","","","75","0","k","","","","","","","","","","","","","","",""
"","S2","","html-keyboard-response","6","230940","0.0-1.0-4.0","0","0","92069","","null","","","null","0","","NaN","","","","","","","","","","","","","",""
"","response","","html-keyboard-response","7","231791","0.0-1.0-5.0","0","0","92069","","849","","","68","0","","","1","0","training","adjacent","DE","4","5","N.jpg","O.jpg","0","1","0","",""
"","feedback","","html-keyboard-response","8","232794","0.0-1.0-6.0-0.0","0","0","92069","","null","","","null","0","","","","","","","","","","","","","","","",""
"","time_out","","html-keyboard-response","9","234796","0.0-1.0-8.0-0.0","0","0","92069","","null","","","null","0","","","","","","","","","","","","","","","",""
"","ITI","","html-keyboard-response","10","235799","0.0-1.0-9.0","0","0","92069","","null","","","null","0","","","","","","","","","","","","","","","NaN",""
"","S1","","html-keyboard-response","11","236053","0.0-1.0-11.0","0","0","92069","","null","","","null","1","","","","","","","","","","","","","","","",""
"","ISI","","html-keyboard-response","12","238056","0.0-1.0-12.0","0","0","92069","","null","","","null","1","NaN","","","","","","","","","","","","","","",""
"","S2","","html-keyboard-response","13","238310","0.0-1.0-13.0","0","0","92069","","null","","","null","1","","NaN","","","","","","","","","","","","","",""
"","response","","html-keyboard-response","14","238878","0.0-1.0-14.0","0","0","92069","","566","","","75","1","","","1","1","training","adjacent","EF","5","6","O.jpg","R.jpg","1","1","1","",""
"","feedback","","html-keyboard-response","15","239881","0.0-1.0-15.0-0.0","0","0","92069","","null","","","null","1","","","","","","","","","","","","","","","",""
"","ITI","","html-keyboard-response","16","240883","0.0-1.0-18.0","0","0","92069","","null","","","null","1","","","","","","","","","","","","","","","NaN",""
"","S1","","html-keyboard-response","17","241136","0.0-1.0-20.0","0","0","92069","","null","","","null","2","","","","","","","","","","","","","","","",""
"","ISI","","html-keyboard-response","18","243140","0.0-1.0-21.0","0","0","92069","","null","","","null","2","NaN","","","","","","","","","","","","","","",""
"","S2","","html-keyboard-response","19","243393","0.0-1.0-22.0","0","0","92069","","null","","","null","2","","NaN","","","","","","","","","","","","","",""
"","response","","html-keyboard-response","20","244021","0.0-1.0-23.0","0","0","92069","","627","","","75","2","","","1","2","training","adjacent","BA","2","1","P.jpg","M.jpg","1","0","0","",""
"","feedback","","html-keyboard-response","21","245024","0.0-1.0-24.0-0.0","0","0","92069","","null","","","null","2","","","","","","","","","","","","","","","",""
"","time_out","","html-keyboard-response","22","247027","0.0-1.0-26.0-0.0","0","0","92069","","null","","","null","2","","","","","","","","","","","","","","","",""
"","ITI","","html-keyboard-response","23","248028","0.0-1.0-27.0","0","0","92069","","null","","","null","2","","","","","","","","","","","","","","","NaN",""
"","S1","","html-keyboard-response","24","248280","0.0-1.0-29.0","0","0","92069","","null","","","null","3","","","","","","","","","","","","","","","",""
"","ISI","","html-keyboard-response","25","250284","0.0-1.0-30.0","0","0","92069","","null","","","null","3","NaN","","","","","","","","","","","","","","",""
"","S2","","html-keyboard-response","26","250537","0.0-1.0-31.0","0","0","92069","","null","","","null","3","","NaN","","","","","","","","","","","","","",""
"","response","","html-keyboard-response","27","251239","0.0-1.0-32.0","0","0","92069","","699","","","75","3","","","1","3","training","adjacent","BC","2","3","P.jpg","L.jpg","1","1","1","",""
"","feedback","","html-keyboard-response","28","252241","0.0-1.0-33.0-0.0","0","0","92069","","null","","","null","3","","","","","","","","","","","","","","","",""
"","ITI","","html-keyboard-response","29","253245","0.0-1.0-36.0","0","0","92069","","null","","","null","3","","","","","","","","","","","","","","","NaN",""
"","S1","","html-keyboard-response","30","253498","0.0-1.0-38.0","0","0","92069","","null","","","null","4","","","","","","","","","","","","","","","",""
"","ISI","","html-keyboard-response","31","255503","0.0-1.0-39.0","0","0","92069","","null","","","null","4","NaN","","","","","","","","","","","","","","",""
"","S2","","html-keyboard-response","32","255755","0.0-1.0-40.0","0","0","92069","","null","","","null","4","","NaN","","","","","","","","","","","","","",""
"","response","","html-keyboard-response","33","256399","0.0-1.0-41.0","0","0","92069","","642","","","68","4","","","1","4","training","adjacent","GF","7","6","Q.jpg","R.jpg","0","0","1","",""
"","feedback","","html-keyboard-response","34","257401","0.0-1.0-42.0-0.0","0","0","92069","","null","","","null","4","","","","","","","","","","","","","","","",""
"","ITI","","html-keyboard-response","35","258404","0.0-1.0-45.0","0","0","92069","","null","","","null","4","","","","","","","","","","","","","","","NaN",""
"","S1","","html-keyboard-response","36","258656","0.0-1.0-47.0","0","0","92069","","null","","","null","5","","","","","","","","","","","","","","","",""
"","ISI","","html-keyboard-response","37","260659","0.0-1.0-48.0","0","0","92069","","null","","","null","5","NaN","","","","","","","","","","","","","","",""
"","S2","","html-keyboard-response","38","260912","0.0-1.0-49.0","0","0","92069","","null","","","null","5","","NaN","","","","","","","","","","","","","",""
"","response","","html-keyboard-response","39","261332","0.0-1.0-50.0","0","0","92069","","419","","","68","5","","","1","5","training","adjacent","CD","3","4","L.jpg","N.jpg","0","1","0","",""
"","feedback","","html-keyboard-response","40","262337","0.0-1.0-51.0-0.0","0","0","92069","","null","","","null","5","","","","","","","","","","","","","","","",""
"","time_out","","html-keyboard-response","41","264340","0.0-1.0-53.0-0.0","0","0","92069","","null","","","null","5","","","","","","","","","","","","","","","",""
"","ITI","","html-keyboard-response","42","265342","0.0-1.0-54.0","0","0","92069","","null","","","null","5","","","","","","","","","","","","","","","NaN",""
"","S1","","html-keyboard-response","43","265594","0.0-1.0-56.0","0","0","92069","","null","","","null","6","","","","","","","","","","","","","","","",""
"","ISI","","html-keyboard-response","44","267596","0.0-1.0-57.0","0","0","92069","","null","","","null","6","NaN","","","","","","","","","","","","","","",""
"","S2","","html-keyboard-response","45","267849","0.0-1.0-58.0","0","0","92069","","null","","","null","6","","NaN","","","","","","","","","","","","","",""
"","response","","html-keyboard-response","46","268178","0.0-1.0-59.0","0","0","92069","","326","","","68","6","","","1","6","training","adjacent","AB","1","2","M.jpg","P.jpg","0","1","0","",""
"","feedback","","html-keyboard-response","47","269180","0.0-1.0-60.0-0.0","0","0","92069","","null","","","null","6","","","","","","","","","","","","","","","",""
"","time_out","","html-keyboard-response","48","271182","0.0-1.0-62.0-0.0","0","0","92069","","null","","","null","6","","","","","","","","","","","","","","","",""
"","ITI","","html-keyboard-response","49","272185","0.0-1.0-63.0","0","0","92069","","null","","","null","6","","","","","","","","","","","","","","","NaN",""
"","S1","","html-keyboard-response","50","272437","0.0-1.0-65.0","0","0","92069","","null","","","null","7","","","","","","","","","","","","","","","",""
"","ISI","","html-keyboard-response","51","274439","0.0-1.0-66.0","0","0","92069","","null","","","null","7","NaN","","","","","","","","","","","","","","",""
"","S2","","html-keyboard-response","52","274691","0.0-1.0-67.0","0","0","92069","","null","","","null","7","","NaN","","","","","","","","","","","","","",""
"","response","","html-keyboard-response","53","275104","0.0-1.0-68.0","0","0","92069","","411","","","68","7","","","1","7","training","adjacent","GF","7","6","Q.jpg","R.jpg","0","0","1","",""
"","feedback","","html-keyboard-response","54","276107","0.0-1.0-69.0-0.0","0","0","92069","","null","","","null","7","","","","","","","","","","","","","","","",""
"","ITI","","html-keyboard-response","55","277109","0.0-1.0-72.0","0","0","92069","","null","","","null","7","","","","","","","","","","","","","","","NaN",""
"","S1","","html-keyboard-response","56","277363","0.0-1.0-74.0","0","0","92069","","null","","","null","8","","","","","","","","","","","","","","","",""
"","ISI","","html-keyboard-response","57","279366","0.0-1.0-75.0","0","0","92069","","null","","","null","8","NaN","","","","","","","","","","","","","","",""
"","S2","","html-keyboard-response","58","279618","0.0-1.0-76.0","0","0","92069","","null","","","null","8","","NaN","","","","","","","","","","","","","",""
"","response","","html-keyboard-response","59","279878","0.0-1.0-77.0","0","0","92069","","259","","","68","8","","","1","8","training","adjacent","CB","3","2","L.jpg","P.jpg","0","0","1","",""
"","feedback","","html-keyboard-response","60","280882","0.0-1.0-78.0-0.0","0","0","92069","","null","","","null","8","","","","","","","","","","","","","","","",""
"","ITI","","html-keyboard-response","61","281883","0.0-1.0-81.0","0","0","92069","","null","","","null","8","","","","","","","","","","","","","","","NaN",""
"","S1","","html-keyboard-response","62","282137","0.0-1.0-83.0","0","0","92069","","null","","","null","9","","","","","","","","","","","","","","","",""
"","ISI","","html-keyboard-response","63","284140","0.0-1.0-84.0","0","0","92069","","null","","","null","9","NaN","","","","","","","","","","","","","","",""
"","S2","","html-keyboard-response","64","284392","0.0-1.0-85.0","0","0","92069","","null","","","null","9","","NaN","","","","","","","","","","","","","",""
"","response","","html-keyboard-response","65","284810","0.0-1.0-86.0","0","0","92069","","416","","","68","9","","","1","9","training","adjacent","CB","3","2","L.jpg","P.jpg","0","0","1","",""
"","feedback","","html-keyboard-response","66","285814","0.0-1.0-87.0-0.0","0","0","92069","","null","","","null","9","","","","","","","","","","","","","","","",""
"","ITI","","html-keyboard-response","67","286817","0.0-1.0-90.0","0","0","92069","","null","","","null","9","","","","","","","","","","","","","","","NaN",""
"","S1","","html-keyboard-response","68","287071","0.0-1.0-92.0","0","0","92069","","null","","","null","10","","","","","","","","","","","","","","","",""
"","ISI","","html-keyboard-response","69","289073","0.0-1.0-93.0","0","0","92069","","null","","","null","10","NaN","","","","","","","","","","","","","","",""
"","S2","","html-keyboard-response","70","289326","0.0-1.0-94.0","0","0","92069","","null","","","null","10","","NaN","","","","","","","","","","","","","",""
"","response","","html-keyboard-response","71","289731","0.0-1.0-95.0","0","0","92069","","403","","","75","10","","","1","10","training","adjacent","DC","4","3","N.jpg","L.jpg","1","0","0","",""
"","feedback","","html-keyboard-response","72","290735","0.0-1.0-96.0-0.0","0","0","92069","","null","","","null","10","","","","","","","","","","","","","","","",""
"","time_out","","html-keyboard-response","73","292738","0.0-1.0-98.0-0.0","0","0","92069","","null","","","null","10","","","","","","","","","","","","","","","",""
"","ITI","","html-keyboard-response","74","293741","0.0-1.0-99.0","0","0","92069","","null","","","null","10","","","","","","","","","","","","","","","NaN",""
"","S1","","html-keyboard-response","75","293993","0.0-1.0-101.0","0","0","92069","","null","","","null","11","","","","","","","","","","","","","","","",""
"","ISI","","html-keyboard-response","76","295997","0.0-1.0-102.0","0","0","92069","","null","","","null","11","NaN","","","","","","","","","","","","","","",""
"","S2","","html-keyboard-response","77","296248","0.0-1.0-103.0","0","0","92069","","null","","","null","11","","NaN","","","","","","","","","","","","","",""
"","response","","html-keyboard-response","78","296924","0.0-1.0-104.0","0","0","92069","","674","","","68","11","","","1","11","training","adjacent","ED","5","4","O.jpg","N.jpg","0","0","1","",""
"","feedback","","html-keyboard-response","79","297928","0.0-1.0-105.0-0.0","0","0","92069","","null","","","null","11","","","","","","","","","","","","","","","",""
"","ITI","","html-keyboard-response","80","298929","0.0-1.0-108.0","0","0","92069","","null","","","null","11","","","","","","","","","","","","","","","NaN",""
"","S1","","html-keyboard-response","81","299183","0.0-1.0-110.0","0","0","92069","","null","","","null","12","","","","","","","","","","","","","","","",""
"","ISI","","html-keyboard-response","82","301187","0.0-1.0-111.0","0","0","92069","","null","","","null","12","NaN","","","","","","","","","","","","","","",""
"","S2","","html-keyboard-response","83","301441","0.0-1.0-112.0","0","0","92069","","null","","","null","12","","NaN","","","","","","","","","","","","","",""
"","response","","html-keyboard-response","84","301703","0.0-1.0-113.0","0","0","92069","","260","","","75","12","","","1","12","training","adjacent","DC","4","3","N.jpg","L.jpg","1","0","0","",""
"","feedback","","html-keyboard-response","85","302705","0.0-1.0-114.0-0.0","0","0","92069","","null","","","null","12","","","","","","","","","","","","","","","",""
"","time_out","","html-keyboard-response","86","304709","0.0-1.0-116.0-0.0","0","0","92069","","null","","","null","12","","","","","","","","","","","","","","","",""
"","ITI","","html-keyboard-response","87","305711","0.0-1.0-117.0","0","0","92069","","null","","","null","12","","","","","","","","","","","","","","","NaN",""
"","S1","","html-keyboard-response","88","305965","0.0-1.0-119.0","0","0","92069","","null","","","null","13","","","","","","","","","","","","","","","",""
"","ISI","","html-keyboard-response","89","307966","0.0-1.0-120.0","0","0","92069","","null","","","null","13","NaN","","","","","","","","","","","","","","",""
"","S2","","html-keyboard-response","90","308221","0.0-1.0-121.0","0","0","92069","","null","","","null","13","","NaN","","","","","","","","","","","","","",""
"","response","","html-keyboard-response","91","308736","0.0-1.0-122.0","0","0","92069","","513","","","68","13","","","1","13","training","adjacent","CD","3","4","L.jpg","N.jpg","0","1","0","",""
"","feedback","","html-keyboard-response","92","309738","0.0-1.0-123.0-0.0","0","0","92069","","null","","","null","13","","","","","","","","","","","","","","","",""
"","time_out","","html-keyboard-response","93","311742","0.0-1.0-125.0-0.0","0","0","92069","","null","","","null","13","","","","","","","","","","","","","","","",""
"","ITI","","html-keyboard-response","94","312745","0.0-1.0-126.0","0","0","92069","","null","","","null","13","","","","","","","","","","","","","","","NaN",""
"","S1","","html-keyboard-response","95","312998","0.0-1.0-128.0","0","0","92069","","null","","","null","14","","","","","","","","","","","","","","","",""
"","ISI","","html-keyboard-response","96","315001","0.0-1.0-129.0","0","0","92069","","null","","","null","14","NaN","","","","","","","","","","","","","","",""
"","S2","","html-keyboard-response","97","315252","0.0-1.0-130.0","0","0","92069","","null","","","null","14","","NaN","","","","","","","","","","","","","",""
"","response","","html-keyboard-response","98","316165","0.0-1.0-131.0","0","0","92069","","910","","","68","14","","","1","14","training","adjacent","ED","5","4","O.jpg","N.jpg","0","0","1","",""
"","feedback","","html-keyboard-response","99","317169","0.0-1.0-132.0-0.0","0","0","92069","","null","","","null","14","","","","","","","","","","","","","","","",""
"","ITI","","html-keyboard-response","100","318171","0.0-1.0-135.0","0","0","92069","","null","","","null","14","","","","","","","","","","","","","","","NaN",""
"","S1","","html-keyboard-response","101","318424","0.0-1.0-137.0","0","0","92069","","null","","","null","15","","","","","","","","","","","","","","","",""
"","ISI","","html-keyboard-response","102","320425","0.0-1.0-138.0","0","0","92069","","null","","","null","15","NaN","","","","","","","","","","","","","","",""
"","S2","","html-keyboard-response","103","320679","0.0-1.0-139.0","0","0","92069","","null","","","null","15","","NaN","","","","","","","","","","","","","",""
"","response","","html-keyboard-response","104","321262","0.0-1.0-140.0","0","0","92069","","581","","","75","15","","","1","15","training","adjacent","BA","2","1","P.jpg","M.jpg","1","0","0","",""
"","feedback","","html-keyboard-response","105","322264","0.0-1.0-141.0-0.0","0","0","92069","","null","","","null","15","","","","","","","","","","","","","","","",""
"","time_out","","html-keyboard-response","106","324266","0.0-1.0-143.0-0.0","0","0","92069","","null","","","null","15","","","","","","","","","","","","","","","",""
"","ITI","","html-keyboard-response","107","325269","0.0-1.0-144.0","0","0","92069","","null","","","null","15","","","","","","","","","","","","","","","NaN",""
"","S1","","html-keyboard-response","108","325522","0.0-1.0-146.0","0","0","92069","","null","","","null","16","","","","","","","","","","","","","","","",""
"","ISI","","html-keyboard-response","109","327524","0.0-1.0-147.0","0","0","92069","","null","","","null","16","NaN","","","","","","","","","","","","","","",""
"","S2","","html-keyboard-response","110","327779","0.0-1.0-148.0","0","0","92069","","null","","","null","16","","NaN","","","","","","","","","","","","","",""
"","response","","html-keyboard-response","111","328472","0.0-1.0-149.0","0","0","92069","","691","","","68","16","","","1","16","training","adjacent","BA","2","1","P.jpg","M.jpg","0","0","1","",""
"","feedback","","html-keyboard-response","112","329476","0.0-1.0-150.0-0.0","0","0","92069","","null","","","null","16","","","","","","","","","","","","","","","",""
"","ITI","","html-keyboard-response","113","330477","0.0-1.0-153.0","0","0","92069","","null","","","null","16","","","","","","","","","","","","","","","NaN",""
"","S1","","html-keyboard-response","114","330730","0.0-1.0-155.0","0","0","92069","","null","","","null","17","","","","","","","","","","","","","","","",""
"","ISI","","html-keyboard-response","115","332732","0.0-1.0-156.0","0","0","92069","","null","","","null","17","NaN","","","","","","","","","","","","","","",""
"","S2","","html-keyboard-response","116","332985","0.0-1.0-157.0","0","0","92069","","null","","","null","17","","NaN","","","","","","","","","","","","","",""
"","response","","html-keyboard-response","117","333880","0.0-1.0-158.0","0","0","92069","","893","","","75","17","","","1","17","training","adjacent","EF","5","6","O.jpg","R.jpg","1","1","1","",""
"","feedback","","html-keyboard-response","118","334882","0.0-1.0-159.0-0.0","0","0","92069","","null","","","null","17","","","","","","","","","","","","","","","",""
"","ITI","","html-keyboard-response","119","335885","0.0-1.0-162.0","0","0","92069","","null","","","null","17","","","","","","","","","","","","","","","NaN",""
"","S1","","html-keyboard-response","120","336139","0.0-1.0-164.0","0","0","92069","","null","","","null","18","","","","","","","","","","","","","","","",""
"","ISI","","html-keyboard-response","121","338141","0.0-1.0-165.0","0","0","92069","","null","","","null","18","NaN","","","","","","","","","","","","","","",""
"","S2","","html-keyboard-response","122","338394","0.0-1.0-166.0","0","0","92069","","null","","","null","18","","NaN","","","","","","","","","","","","","",""
"","response","","html-keyboard-response","123","338843","0.0-1.0-167.0","0","0","92069","","446","","","75","18","","","1","18","training","adjacent","BC","2","3","P.jpg","L.jpg","1","1","1","",""
"","feedback","","html-keyboard-response","124","339845","0.0-1.0-168.0-0.0","0","0","92069","","null","","","null","18","","","","","","","","","","","","","","","",""
"","ITI","","html-keyboard-response","125","340847","0.0-1.0-171.0","0","0","92069","","null","","","null","18","","","","","","","","","","","","","","","NaN",""
"","S1","","html-keyboard-response","126","341100","0.0-1.0-173.0","0","0","92069","","null","","","null","19","","","","","","","","","","","","","","","",""
"","ISI","","html-keyboard-response","127","343103","0.0-1.0-174.0","0","0","92069","","null","","","null","19","NaN","","","","","","","","","","","","","","",""
"","S2","","html-keyboard-response","128","343355","0.0-1.0-175.0","0","0","92069","","null","","","null","19","","NaN","","","","","","","","","","","","","",""
"","response","","html-keyboard-response","129","343609","0.0-1.0-176.0","0","0","92069","","252","","","68","19","","","1","19","training","adjacent","CD","3","4","L.jpg","N.jpg","0","1","0","",""
"","feedback","","html-keyboard-response","130","344611","0.0-1.0-177.0-0.0","0","0","92069","","null","","","null","19","","","","","","","","","","","","","","","",""
"","time_out","","html-keyboard-response","131","346614","0.0-1.0-179.0-0.0","0","0","92069","","null","","","null","19","","","","","","","","","","","","","","","",""
"","ITI","","html-keyboard-response","132","347616","0.0-1.0-180.0","0","0","92069","","null","","","null","19","","","","","","","","","","","","","","","NaN",""
"","S1","","html-keyboard-response","133","347869","0.0-1.0-182.0","0","0","92069","","null","","","null","20","","","","","","","","","","","","","","","",""
"","ISI","","html-keyboard-response","134","349870","0.0-1.0-183.0","0","0","92069","","null","","","null","20","NaN","","","","","","","","","","","","","","",""
"","S2","","html-keyboard-response","135","350122","0.0-1.0-184.0","0","0","92069","","null","","","null","20","","NaN","","","","","","","","","","","","","",""
"","response","","html-keyboard-response","136","350634","0.0-1.0-185.0","0","0","92069","","510","","","68","20","","","1","20","training","adjacent","CB","3","2","L.jpg","P.jpg","0","0","1","",""
"","feedback","","html-keyboard-response","137","351636","0.0-1.0-186.0-0.0","0","0","92069","","null","","","null","20","","","","","","","","","","","","","","","",""
"","ITI","","html-keyboard-response","138","352638","0.0-1.0-189.0","0","0","92069","","null","","","null","20","","","","","","","","","","","","","","","NaN",""
"","S1","","html-keyboard-response","139","352891","0.0-1.0-191.0","0","0","92069","","null","","","null","21","","","","","","","","","","","","","","","",""
"","ISI","","html-keyboard-response","140","354892","0.0-1.0-192.0","0","0","92069","","null","","","null","21","NaN","","","","","","","","","","","","","","",""
"","S2","","html-keyboard-response","141","355146","0.0-1.0-193.0","0","0","92069","","null","","","null","21","","NaN","","","","","","","","","","","","","",""
"","response","","html-keyboard-response","142","355825","0.0-1.0-194.0","0","0","92069","","677","","","68","21","","","1","21","training","adjacent","CD","3","4","L.jpg","N.jpg","0","1","0","",""
"","feedback","","html-keyboard-response","143","356826","0.0-1.0-195.0-0.0","0","0","92069","","null","","","null","21","","","","","","","","","","","","","","","",""
"","time_out","","html-keyboard-response","144","358829","0.0-1.0-197.0-0.0","0","0","92069","","null","","","null","21","","","","","","","","","","","","","","","",""
"","ITI","","html-keyboard-response","145","359833","0.0-1.0-198.0","0","0","92069","","null","","","null","21","","","","","","","","","","","","","","","NaN",""
"","S1","","html-keyboard-response","146","360085","0.0-1.0-200.0","0","0","92069","","null","","","null","22","","","","","","","","","","","","","","","",""
"","ISI","","html-keyboard-response","147","362087","0.0-1.0-201.0","0","0","92069","","null","","","null","22","NaN","","","","","","","","","","","","","","",""
"","S2","","html-keyboard-response","148","362341","0.0-1.0-202.0","0","0","92069","","null","","","null","22","","NaN","","","","","","","","","","","","","",""
"","response","","html-keyboard-response","149","363011","0.0-1.0-203.0","0","0","92069","","668","","","68","22","","","1","22","training","adjacent","BA","2","1","P.jpg","M.jpg","0","0","1","",""
"","feedback","","html-keyboard-response","150","364014","0.0-1.0-204.0-0.0","0","0","92069","","null","","","null","22","","","","","","","","","","","","","","","",""
"","ITI","","html-keyboard-response","151","365016","0.0-1.0-207.0","0","0","92069","","null","","","null","22","","","","","","","","","","","","","","","NaN",""
"","S1","","html-keyboard-response","152","365269","0.0-1.0-209.0","0","0","92069","","null","","","null","23","","","","","","","","","","","","","","","",""
"","ISI","","html-keyboard-response","153","367271","0.0-1.0-210.0","0","0","92069","","null","","","null","23","NaN","","","","","","","","","","","","","","",""
"","S2","","html-keyboard-response","154","367523","0.0-1.0-211.0","0","0","92069","","null","","","null","23","","NaN","","","","","","","","","","","","","",""
"","response","","html-keyboard-response","155","368324","0.0-1.0-212.0","0","0","92069","","799","","","68","23","","","1","23","training","adjacent","AB","1","2","M.jpg","P.jpg","0","1","0","",""
"","feedback","","html-keyboard-response","156","369327","0.0-1.0-213.0-0.0","0","0","92069","","null","","","null","23","","","","","","","","","","","","","","","",""
"","time_out","","html-keyboard-response","157","371329","0.0-1.0-215.0-0.0","0","0","92069","","null","","","null","23","","","","","","","","","","","","","","","",""
"","ITI","","html-keyboard-response","158","372331","0.0-1.0-216.0","0","0","92069","","null","","","null","23","","","","","","","","","","","","","","","NaN",""
"","S1","","html-keyboard-response","159","372585","0.0-1.0-218.0","0","0","92069","","null","","","null","24","","","","","","","","","","","","","","","",""
"","ISI","","html-keyboard-response","160","374587","0.0-1.0-219.0","0","0","92069","","null","","","null","24","NaN","","","","","","","","","","","","","","",""
"","S2","","html-keyboard-response","161","374841","0.0-1.0-220.0","0","0","92069","","null","","","null","24","","NaN","","","","","","","","","","","","","",""
"","response","","html-keyboard-response","162","375822","0.0-1.0-221.0","0","0","92069","","979","","","68","24","","","1","24","training","adjacent","FE","6","5","R.jpg","O.jpg","0","0","1","",""
"","feedback","","html-keyboard-response","163","376825","0.0-1.0-222.0-0.0","0","0","92069","","null","","","null","24","","","","","","","","","","","","","","","",""
"","ITI","","html-keyboard-response","164","377828","0.0-1.0-225.0","0","0","92069","","null","","","null","24","","","","","","","","","","","","","","","NaN",""
"","S1","","html-keyboard-response","165","378083","0.0-1.0-227.0","0","0","92069","","null","","","null","25","","","","","","","","","","","","","","","",""
"","ISI","","html-keyboard-response","166","380085","0.0-1.0-228.0","0","0","92069","","null","","","null","25","NaN","","","","","","","","","","","","","","",""
"","S2","","html-keyboard-response","167","380338","0.0-1.0-229.0","0","0","92069","","null","","","null","25","","NaN","","","","","","","","","","","","","",""
"","response","","html-keyboard-response","168","381036","0.0-1.0-230.0","0","0","92069","","696","","","68","25","","","1","25","training","adjacent","FE","6","5","R.jpg","O.jpg","0","0","1","",""
"","feedback","","html-keyboard-response","169","382038","0.0-1.0-231.0-0.0","0","0","92069","","null","","","null","25","","","","","","","","","","","","","","","",""
"","ITI","","html-keyboard-response","170","383042","0.0-1.0-234.0","0","0","92069","","null","","","null","25","","","","","","","","","","","","","","","NaN",""
"","S1","","html-keyboard-response","171","383294","0.0-1.0-236.0","0","0","92069","","null","","","null","26","","","","","","","","","","","","","","","",""
"","ISI","","html-keyboard-response","172","385297","0.0-1.0-237.0","0","0","92069","","null","","","null","26","NaN","","","","","","","","","","","","","","",""
"","S2","","html-keyboard-response","173","385548","0.0-1.0-238.0","0","0","92069","","null","","","null","26","","NaN","","","","","","","","","","","","","",""
"","response","","html-keyboard-response","174","386252","0.0-1.0-239.0","0","0","92069","","701","","","68","26","","","1","26","training","adjacent","CB","3","2","L.jpg","P.jpg","0","0","1","",""
"","feedback","","html-keyboard-response","175","387255","0.0-1.0-240.0-0.0","0","0","92069","","null","","","null","26","","","","","","","","","","","","","","","",""
"","ITI","","html-keyboard-response","176","388259","0.0-1.0-243.0","0","0","92069","","null","","","null","26","","","","","","","","","","","","","","","NaN",""
"","S1","","html-keyboard-response","177","388511","0.0-1.0-245.0","0","0","92069","","null","","","null","27","","","","","","","","","","","","","","","",""
"","ISI","","html-keyboard-response","178","390513","0.0-1.0-246.0","0","0","92069","","null","","","null","27","NaN","","","","","","","","","","","","","","",""
"","S2","","html-keyboard-response","179","390765","0.0-1.0-247.0","0","0","92069","","null","","","null","27","","NaN","","","","","","","","","","","","","",""
"","response","","html-keyboard-response","180","391770","0.0-1.0-248.0","0","0","92069","","1002","","","68","27","","","1","27","training","adjacent","FG","6","7","R.jpg","Q.jpg","0","1","0","",""
"","feedback","","html-keyboard-response","181","392772","0.0-1.0-249.0-0.0","0","0","92069","","null","","","null","27","","","","","","","","","","","","","","","",""
"","time_out","","html-keyboard-response","182","394774","0.0-1.0-251.0-0.0","0","0","92069","","null","","","null","27","","","","","","","","","","","","","","","",""
"","ITI","","html-keyboard-response","183","395776","0.0-1.0-252.0","0","0","92069","","null","","","null","27","","","","","","","","","","","","","","","NaN",""
"","S1","","html-keyboard-response","184","396029","0.0-1.0-254.0","0","0","92069","","null","","","null","28","","","","","","","","","","","","","","","",""
"","ISI","","html-keyboard-response","185","398031","0.0-1.0-255.0","0","0","92069","","null","","","null","28","NaN","","","","","","","","","","","","","","",""
"","S2","","html-keyboard-response","186","398284","0.0-1.0-256.0","0","0","92069","","null","","","null","28","","NaN","","","","","","","","","","","","","",""
"","response","","html-keyboard-response","187","399012","0.0-1.0-257.0","0","0","92069","","726","","","68","28","","","1","28","training","adjacent","FE","6","5","R.jpg","O.jpg","0","0","1","",""
"","feedback","","html-keyboard-response","188","400015","0.0-1.0-258.0-0.0","0","0","92069","","null","","","null","28","","","","","","","","","","","","","","","",""
"","ITI","","html-keyboard-response","189","401017","0.0-1.0-261.0","0","0","92069","","null","","","null","28","","","","","","","","","","","","","","","NaN",""
"","S1","","html-keyboard-response","190","401271","0.0-1.0-263.0","0","0","92069","","null","","","null","29","","","","","","","","","","","","","","","",""
"","ISI","","html-keyboard-response","191","403274","0.0-1.0-264.0","0","0","92069","","null","","","null","29","NaN","","","","","","","","","","","","","","",""
"","S2","","html-keyboard-response","192","403527","0.0-1.0-265.0","0","0","92069","","null","","","null","29","","NaN","","","","","","","","","","","","","",""
"","response","","html-keyboard-response","193","404537","0.0-1.0-266.0","0","0","92069","","1009","","","75","29","","","1","29","training","adjacent","EF","5","6","O.jpg","R.jpg","1","1","1","",""
"","feedback","","html-keyboard-response","194","405540","0.0-1.0-267.0-0.0","0","0","92069","","null","","","null","29","","","","","","","","","","","","","","","",""
"","ITI","","html-keyboard-response","195","406543","0.0-1.0-270.0","0","0","92069","","null","","","null","29","","","","","","","","","","","","","","","NaN",""
"","S1","","html-keyboard-response","196","406796","0.0-1.0-272.0","0","0","92069","","null","","","null","30","","","","","","","","","","","","","","","",""
"","ISI","","html-keyboard-response","197","408798","0.0-1.0-273.0","0","0","92069","","null","","","null","30","NaN","","","","","","","","","","","","","","",""
"","S2","","html-keyboard-response","198","409052","0.0-1.0-274.0","0","0","92069","","null","","","null","30","","NaN","","","","","","","","","","","","","",""
"","response","","html-keyboard-response","199","409959","0.0-1.0-275.0","0","0","92069","","905","","","75","30","","","1","30","training","adjacent","FG","6","7","R.jpg","Q.jpg","1","1","1","",""
"","feedback","","html-keyboard-response","200","410961","0.0-1.0-276.0-0.0","0","0","92069","","null","","","null","30","","","","","","","","","","","","","","","",""
"","ITI","","html-keyboard-response","201","411964","0.0-1.0-279.0","0","0","92069","","null","","","null","30","","","","","","","","","","","","","","","NaN",""
"","S1","","html-keyboard-response","202","412218","0.0-1.0-281.0","0","0","92069","","null","","","null","31","","","","","","","","","","","","","","","",""
"","ISI","","html-keyboard-response","203","414222","0.0-1.0-282.0","0","0","92069","","null","","","null","31","NaN","","","","","","","","","","","","","","",""
"","S2","","html-keyboard-response","204","414476","0.0-1.0-283.0","0","0","92069","","null","","","null","31","","NaN","","","","","","","","","","","","","",""
"","response","","html-keyboard-response","205","415456","0.0-1.0-284.0","0","0","92069","","978","","","75","31","","","1","31","training","adjacent","DC","4","3","N.jpg","L.jpg","1","0","0","",""
"","feedback","","html-keyboard-response","206","416459","0.0-1.0-285.0-0.0","0","0","92069","","null","","","null","31","","","","","","","","","","","","","","","",""
"","time_out","","html-keyboard-response","207","418462","0.0-1.0-287.0-0.0","0","0","92069","","null","","","null","31","","","","","","","","","","","","","","","",""
"","ITI","","html-keyboard-response","208","419466","0.0-1.0-288.0","0","0","92069","","null","","","null","31","","","","","","","","","","","","","","","NaN",""
"","S1","","html-keyboard-response","209","419717","0.0-1.0-290.0","0","0","92069","","null","","","null","32","","","","","","","","","","","","","","","",""
"","ISI","","html-keyboard-response","210","421721","0.0-1.0-291.0","0","0","92069","","null","","","null","32","NaN","","","","","","","","","","","","","","",""
"","S2","","html-keyboard-response","211","421975","0.0-1.0-292.0","0","0","92069","","null","","","null","32","","NaN","","","","","","","","","","","","","",""
"","response","","html-keyboard-response","212","422745","0.0-1.0-293.0","0","0","92069","","768","","","75","32","","","1","32","training","adjacent","BC","2","3","P.jpg","L.jpg","1","1","1","",""
"","feedback","","html-keyboard-response","213","423748","0.0-1.0-294.0-0.0","0","0","92069","","null","","","null","32","","","","","","","","","","","","","","","",""
"","ITI","","html-keyboard-response","214","424750","0.0-1.0-297.0","0","0","92069","","null","","","null","32","","","","","","","","","","","","","","","NaN",""
"","S1","","html-keyboard-response","215","425003","0.0-1.0-299.0","0","0","92069","","null","","","null","33","","","","","","","","","","","","","","","",""
"","ISI","","html-keyboard-response","216","427004","0.0-1.0-300.0","0","0","92069","","null","","","null","33","NaN","","","","","","","","","","","","","","",""
"","S2","","html-keyboard-response","217","427258","0.0-1.0-301.0","0","0","92069","","null","","","null","33","","NaN","","","","","","","","","","","","","",""
"","response","","html-keyboard-response","218","428226","0.0-1.0-302.0","0","0","92069","","966","","","75","33","","","1","33","training","adjacent","DC","4","3","N.jpg","L.jpg","1","0","0","",""
"","feedback","","html-keyboard-response","219","429228","0.0-1.0-303.0-0.0","0","0","92069","","null","","","null","33","","","","","","","","","","","","","","","",""
"","time_out","","html-keyboard-response","220","431230","0.0-1.0-305.0-0.0","0","0","92069","","null","","","null","33","","","","","","","","","","","","","","","",""
"","ITI","","html-keyboard-response","221","432233","0.0-1.0-306.0","0","0","92069","","null","","","null","33","","","","","","","","","","","","","","","NaN",""
"","S1","","html-keyboard-response","222","432485","0.0-1.0-308.0","0","0","92069","","null","","","null","34","","","","","","","","","","","","","","","",""
"","ISI","","html-keyboard-response","223","434488","0.0-1.0-309.0","0","0","92069","","null","","","null","34","NaN","","","","","","","","","","","","","","",""
"","S2","","html-keyboard-response","224","434742","0.0-1.0-310.0","0","0","92069","","null","","","null","34","","NaN","","","","","","","","","","","","","",""
"","response","","html-keyboard-response","225","435447","0.0-1.0-311.0","0","0","92069","","703","","","75","34","","","1","34","training","adjacent","BC","2","3","P.jpg","L.jpg","1","1","1","",""
"","feedback","","html-keyboard-response","226","436452","0.0-1.0-312.0-0.0","0","0","92069","","null","","","null","34","","","","","","","","","","","","","","","",""
"","ITI","","html-keyboard-response","227","437456","0.0-1.0-315.0","0","0","92069","","null","","","null","34","","","","","","","","","","","","","","","NaN",""
"","S1","","html-keyboard-response","228","437710","0.0-1.0-317.0","0","0","92069","","null","","","null","35","","","","","","","","","","","","","","","",""
"","ISI","","html-keyboard-response","229","439711","0.0-1.0-318.0","0","0","92069","","null","","","null","35","NaN","","","","","","","","","","","","","","",""
"","S2","","html-keyboard-response","230","439963","0.0-1.0-319.0","0","0","92069","","null","","","null","35","","NaN","","","","","","","","","","","","","",""
"","response","","html-keyboard-response","231","440605","0.0-1.0-320.0","0","0","92069","","640","","","68","35","","","1","35","training","adjacent","FE","6","5","R.jpg","O.jpg","0","0","1","",""
"","feedback","","html-keyboard-response","232","441607","0.0-1.0-321.0-0.0","0","0","92069","","null","","","null","35","","","","","","","","","","","","","","","",""
"","ITI","","html-keyboard-response","233","442610","0.0-1.0-324.0","0","0","92069","","null","","","null","35","","","","","","","","","","","","","","","NaN",""
"","S1","","html-keyboard-response","234","442865","0.0-1.0-326.0","0","0","92069","","null","","","null","36","","","","","","","","","","","","","","","",""
"","ISI","","html-keyboard-response","235","444866","0.0-1.0-327.0","0","0","92069","","null","","","null","36","NaN","","","","","","","","","","","","","","",""
"","S2","","html-keyboard-response","236","445120","0.0-1.0-328.0","0","0","92069","","null","","","null","36","","NaN","","","","","","","","","","","","","",""
"","response","","html-keyboard-response","237","445594","0.0-1.0-329.0","0","0","92069","","473","","","75","36","","","1","36","training","adjacent","FG","6","7","R.jpg","Q.jpg","1","1","1","",""
"","feedback","","html-keyboard-response","238","446597","0.0-1.0-330.0-0.0","0","0","92069","","null","","","null","36","","","","","","","","","","","","","","","",""
"","ITI","","html-keyboard-response","239","447601","0.0-1.0-333.0","0","0","92069","","null","","","null","36","","","","","","","","","","","","","","","NaN",""
"","S1","","html-keyboard-response","240","447853","0.0-1.0-335.0","0","0","92069","","null","","","null","37","","","","","","","","","","","","","","","",""
"","ISI","","html-keyboard-response","241","449856","0.0-1.0-336.0","0","0","92069","","null","","","null","37","NaN","","","","","","","","","","","","","","",""
"","S2","","html-keyboard-response","242","450108","0.0-1.0-337.0","0","0","92069","","null","","","null","37","","NaN","","","","","","","","","","","","","",""
"","response","","html-keyboard-response","243","451039","0.0-1.0-338.0","0","0","92069","","928","","","68","37","","","1","37","training","adjacent","DE","4","5","N.jpg","O.jpg","0","1","0","",""
"","feedback","","html-keyboard-response","244","452041","0.0-1.0-339.0-0.0","0","0","92069","","null","","","null","37","","","","","","","","","","","","","","","",""
"","time_out","","html-keyboard-response","245","454045","0.0-1.0-341.0-0.0","0","0","92069","","null","","","null","37","","","","","","","","","","","","","","","",""
"","ITI","","html-keyboard-response","246","455048","0.0-1.0-342.0","0","0","92069","","null","","","null","37","","","","","","","","","","","","","","","NaN",""
"","S1","","html-keyboard-response","247","455300","0.0-1.0-344.0","0","0","92069","","null","","","null","38","","","","","","","","","","","","","","","",""
"","ISI","","html-keyboard-response","248","457304","0.0-1.0-345.0","0","0","92069","","null","","","null","38","NaN","","","","","","","","","","","","","","",""
"","S2","","html-keyboard-response","249","457556","0.0-1.0-346.0","0","0","92069","","null","","","null","38","","NaN","","","","","","","","","","","","","",""
"","response","","html-keyboard-response","250","457868","0.0-1.0-347.0","0","0","92069","","309","","","75","38","","","1","38","training","adjacent","AB","1","2","M.jpg","P.jpg","1","1","1","",""
"","feedback","","html-keyboard-response","251","458871","0.0-1.0-348.0-0.0","0","0","92069","","null","","","null","38","","","","","","","","","","","","","","","",""
"","ITI","","html-keyboard-response","252","459875","0.0-1.0-351.0","0","0","92069","","null","","","null","38","","","","","","","","","","","","","","","NaN",""
"","S1","","html-keyboard-response","253","460128","0.0-1.0-353.0","0","0","92069","","null","","","null","39","","","","","","","","","","","","","","","",""
"","ISI","","html-keyboard-response","254","462131","0.0-1.0-354.0","0","0","92069","","null","","","null","39","NaN","","","","","","","","","","","","","","",""
"","S2","","html-keyboard-response","255","462384","0.0-1.0-355.0","0","0","92069","","null","","","null","39","","NaN","","","","","","","","","","","","","",""
"","response","","html-keyboard-response","256","463361","0.0-1.0-356.0","0","0","92069","","974","","","68","39","","","1","39","training","adjacent","DE","4","5","N.jpg","O.jpg","0","1","0","",""
"","feedback","","html-keyboard-response","257","464364","0.0-1.0-357.0-0.0","0","0","92069","","null","","","null","39","","","","","","","","","","","","","","","",""
"","time_out","","html-keyboard-response","258","466367","0.0-1.0-359.0-0.0","0","0","92069","","null","","","null","39","","","","","","","","","","","","","","","",""
"","ITI","","html-keyboard-response","259","467371","0.0-1.0-360.0","0","0","92069","","null","","","null","39","","","","","","","","","","","","","","","NaN",""
"","S1","","html-keyboard-response","260","467623","0.0-1.0-362.0","0","0","92069","","null","","","null","40","","","","","","","","","","","","","","","",""
"","ISI","","html-keyboard-response","261","469627","0.0-1.0-363.0","0","0","92069","","null","","","null","40","NaN","","","","","","","","","","","","","","",""
"","S2","","html-keyboard-response","262","469881","0.0-1.0-364.0","0","0","92069","","null","","","null","40","","NaN","","","","","","","","","","","","","",""
"","response","","html-keyboard-response","263","470993","0.0-1.0-365.0","0","0","92069","","1110","","","75","40","","","1","40","training","adjacent","GF","7","6","Q.jpg","R.jpg","1","0","0","",""
"","feedback","","html-keyboard-response","264","471998","0.0-1.0-366.0-0.0","0","0","92069","","null","","","null","40","","","","","","","","","","","","","","","",""
"","time_out","","html-keyboard-response","265","474001","0.0-1.0-368.0-0.0","0","0","92069","","null","","","null","40","","","","","","","","","","","","","","","",""
"","ITI","","html-keyboard-response","266","475003","0.0-1.0-369.0","0","0","92069","","null","","","null","40","","","","","","","","","","","","","","","NaN",""
"","S1","","html-keyboard-response","267","475254","0.0-1.0-371.0","0","0","92069","","null","","","null","41","","","","","","","","","","","","","","","",""
"","ISI","","html-keyboard-response","268","477257","0.0-1.0-372.0","0","0","92069","","null","","","null","41","NaN","","","","","","","","","","","","","","",""
"","S2","","html-keyboard-response","269","477511","0.0-1.0-373.0","0","0","92069","","null","","","null","41","","NaN","","","","","","","","","","","","","",""
"","response","","html-keyboard-response","270","478273","0.0-1.0-374.0","0","0","92069","","760","","","75","41","","","1","41","training","adjacent","FG","6","7","R.jpg","Q.jpg","1","1","1","",""
"","feedback","","html-keyboard-response","271","479275","0.0-1.0-375.0-0.0","0","0","92069","","null","","","null","41","","","","","","","","","","","","","","","",""
"","ITI","","html-keyboard-response","272","480279","0.0-1.0-378.0","0","0","92069","","null","","","null","41","","","","","","","","","","","","","","","NaN",""
"","S1","","html-keyboard-response","273","480531","0.0-1.0-380.0","0","0","92069","","null","","","null","42","","","","","","","","","","","","","","","",""
"","ISI","","html-keyboard-response","274","482535","0.0-1.0-381.0","0","0","92069","","null","","","null","42","NaN","","","","","","","","","","","","","","",""
"","S2","","html-keyboard-response","275","482787","0.0-1.0-382.0","0","0","92069","","null","","","null","42","","NaN","","","","","","","","","","","","","",""
"","response","","html-keyboard-response","276","483673","0.0-1.0-383.0","0","0","92069","","885","","","75","42","","","1","42","training","adjacent","EF","5","6","O.jpg","R.jpg","1","1","1","",""
"","feedback","","html-keyboard-response","277","484676","0.0-1.0-384.0-0.0","0","0","92069","","null","","","null","42","","","","","","","","","","","","","","","",""
"","ITI","","html-keyboard-response","278","485680","0.0-1.0-387.0","0","0","92069","","null","","","null","42","","","","","","","","","","","","","","","NaN",""
"","S1","","html-keyboard-response","279","485934","0.0-1.0-389.0","0","0","92069","","null","","","null","43","","","","","","","","","","","","","","","",""
"","ISI","","html-keyboard-response","280","487935","0.0-1.0-390.0","0","0","92069","","null","","","null","43","NaN","","","","","","","","","","","","","","",""
"","S2","","html-keyboard-response","281","488187","0.0-1.0-391.0","0","0","92069","","null","","","null","43","","NaN","","","","","","","","","","","","","",""
"","response","","html-keyboard-response","282","488800","0.0-1.0-392.0","0","0","92069","","611","","","75","43","","","1","43","training","adjacent","ED","5","4","O.jpg","N.jpg","1","0","0","",""
"","feedback","","html-keyboard-response","283","489802","0.0-1.0-393.0-0.0","0","0","92069","","null","","","null","43","","","","","","","","","","","","","","","",""
"","time_out","","html-keyboard-response","284","491805","0.0-1.0-395.0-0.0","0","0","92069","","null","","","null","43","","","","","","","","","","","","","","","",""
"","ITI","","html-keyboard-response","285","492807","0.0-1.0-396.0","0","0","92069","","null","","","null","43","","","","","","","","","","","","","","","NaN",""
"","S1","","html-keyboard-response","286","493061","0.0-1.0-398.0","0","0","92069","","null","","","null","44","","","","","","","","","","","","","","","",""
"","ISI","","html-keyboard-response","287","495063","0.0-1.0-399.0","0","0","92069","","null","","","null","44","NaN","","","","","","","","","","","","","","",""
"","S2","","html-keyboard-response","288","495315","0.0-1.0-400.0","0","0","92069","","null","","","null","44","","NaN","","","","","","","","","","","","","",""
"","response","","html-keyboard-response","289","495592","0.0-1.0-401.0","0","0","92069","","276","","","75","44","","","1","44","training","adjacent","AB","1","2","M.jpg","P.jpg","1","1","1","",""
"","feedback","","html-keyboard-response","290","496596","0.0-1.0-402.0-0.0","0","0","92069","","null","","","null","44","","","","","","","","","","","","","","","",""
"","ITI","","html-keyboard-response","291","497600","0.0-1.0-405.0","0","0","92069","","null","","","null","44","","","","","","","","","","","","","","","NaN",""
"","S1","","html-keyboard-response","292","497851","0.0-1.0-407.0","0","0","92069","","null","","","null","45","","","","","","","","","","","","","","","",""
"","ISI","","html-keyboard-response","293","499855","0.0-1.0-408.0","0","0","92069","","null","","","null","45","NaN","","","","","","","","","","","","","","",""
"","S2","","html-keyboard-response","294","500109","0.0-1.0-409.0","0","0","92069","","null","","","null","45","","NaN","","","","","","","","","","","","","",""
"","response","","html-keyboard-response","295","501013","0.0-1.0-410.0","0","0","92069","","900","","","75","45","","","1","45","training","adjacent","ED","5","4","O.jpg","N.jpg","1","0","0","",""
"","feedback","","html-keyboard-response","296","502016","0.0-1.0-411.0-0.0","0","0","92069","","null","","","null","45","","","","","","","","","","","","","","","",""
"","time_out","","html-keyboard-response","297","504018","0.0-1.0-413.0-0.0","0","0","92069","","null","","","null","45","","","","","","","","","","","","","","","",""
"","ITI","","html-keyboard-response","298","505020","0.0-1.0-414.0","0","0","92069","","null","","","null","45","","","","","","","","","","","","","","","NaN",""
"","S1","","html-keyboard-response","299","505272","0.0-1.0-416.0","0","0","92069","","null","","","null","46","","","","","","","","","","","","","","","",""
"","ISI","","html-keyboard-response","300","507274","0.0-1.0-417.0","0","0","92069","","null","","","null","46","NaN","","","","","","","","","","","","","","",""
"","S2","","html-keyboard-response","301","507528","0.0-1.0-418.0","0","0","92069","","null","","","null","46","","NaN","","","","","","","","","","","","","",""
"","response","","html-keyboard-response","302","508046","0.0-1.0-419.0","0","0","92069","","515","","","75","46","","","1","46","training","adjacent","DE","4","5","N.jpg","O.jpg","1","1","1","",""
"","feedback","","html-keyboard-response","303","509050","0.0-1.0-420.0-0.0","0","0","92069","","null","","","null","46","","","","","","","","","","","","","","","",""
"","ITI","","html-keyboard-response","304","510052","0.0-1.0-423.0","0","0","92069","","null","","","null","46","","","","","","","","","","","","","","","NaN",""
"","S1","","html-keyboard-response","305","510306","0.0-1.0-425.0","0","0","92069","","null","","","null","47","","","","","","","","","","","","","","","",""
"","ISI","","html-keyboard-response","306","512309","0.0-1.0-426.0","0","0","92069","","null","","","null","47","NaN","","","","","","","","","","","","","","",""
"","S2","","html-keyboard-response","307","512561","0.0-1.0-427.0","0","0","92069","","null","","","null","47","","NaN","","","","","","","","","","","","","",""
"","response","","html-keyboard-response","308","513305","0.0-1.0-428.0","0","0","92069","","742","","","68","47","","","1","47","training","adjacent","GF","7","6","Q.jpg","R.jpg","0","0","1","",""
"","feedback","","html-keyboard-response","309","514307","0.0-1.0-429.0-0.0","0","0","92069","","null","","","null","47","","","","","","","","","","","","","","","",""
"","ITI","","html-keyboard-response","310","515310","0.0-1.0-432.0","0","0","92069","","null","","","null","47","","","","","","","","","","","","","","","NaN",""
"","block_over","","html-keyboard-response","311","520164","0.0-1.0-433.0-0.0","0","0","92069","","4851","","","32","47","","","","","","","","","","","","","","","",""
"","S1","","html-keyboard-response","312","520416","0.0-1.0-434.0","0","0","92069","","null","","","null","48","","","","","","","","","","","","","","","",""
"","ISI","","html-keyboard-response","313","522420","0.0-1.0-435.0","0","0","92069","","null","","","null","48","NaN","","","","","","","","","","","","","","",""
"","S2","","html-keyboard-response","314","522673","0.0-1.0-436.0","0","0","92069","","null","","","null","48","","NaN","","","","","","","","","","","","","",""
"","response","","html-keyboard-response","315","523489","0.0-1.0-437.0","0","0","92069","","814","","","75","48","","","2","48","training","adjacent","GF","7","6","Q.jpg","R.jpg","1","0","0","",""
"","feedback","","html-keyboard-response","316","524491","0.0-1.0-438.0-0.0","0","0","92069","","null","","","null","48","","","","","","","","","","","","","","","",""
"","time_out","","html-keyboard-response","317","526494","0.0-1.0-440.0-0.0","0","0","92069","","null","","","null","48","","","","","","","","","","","","","","","",""
"","ITI","","html-keyboard-response","318","527497","0.0-1.0-441.0","0","0","92069","","null","","","null","48","","","","","","","","","","","","","","","NaN",""
"","S1","","html-keyboard-response","319","527749","0.0-1.0-443.0","0","0","92069","","null","","","null","49","","","","","","","","","","","","","","","",""
"","ISI","","html-keyboard-response","320","529750","0.0-1.0-444.0","0","0","92069","","null","","","null","49","NaN","","","","","","","","","","","","","","",""
"","S2","","html-keyboard-response","321","530004","0.0-1.0-445.0","0","0","92069","","null","","","null","49","","NaN","","","","","","","","","","","","","",""
"","response","","html-keyboard-response","322","530550","0.0-1.0-446.0","0","0","92069","","545","","","68","49","","","2","49","training","adjacent","GF","7","6","Q.jpg","R.jpg","0","0","1","",""
"","feedback","","html-keyboard-response","323","531554","0.0-1.0-447.0-0.0","0","0","92069","","null","","","null","49","","","","","","","","","","","","","","","",""
"","ITI","","html-keyboard-response","324","532556","0.0-1.0-450.0","0","0","92069","","null","","","null","49","","","","","","","","","","","","","","","NaN",""
"","S1","","html-keyboard-response","325","532809","0.0-1.0-452.0","0","0","92069","","null","","","null","50","","","","","","","","","","","","","","","",""
"","ISI","","html-keyboard-response","326","534811","0.0-1.0-453.0","0","0","92069","","null","","","null","50","NaN","","","","","","","","","","","","","","",""
"","S2","","html-keyboard-response","327","535064","0.0-1.0-454.0","0","0","92069","","null","","","null","50","","NaN","","","","","","","","","","","","","",""
"","response","","html-keyboard-response","328","535797","0.0-1.0-455.0","0","0","92069","","732","","","68","50","","","2","50","training","adjacent","CB","3","2","L.jpg","P.jpg","0","0","1","",""
"","feedback","","html-keyboard-response","329","536800","0.0-1.0-456.0-0.0","0","0","92069","","null","","","null","50","","","","","","","","","","","","","","","",""
"","ITI","","html-keyboard-response","330","537804","0.0-1.0-459.0","0","0","92069","","null","","","null","50","","","","","","","","","","","","","","","NaN",""
"","S1","","html-keyboard-response","331","538056","0.0-1.0-461.0","0","0","92069","","null","","","null","51","","","","","","","","","","","","","","","",""
"","ISI","","html-keyboard-response","332","540060","0.0-1.0-462.0","0","0","92069","","null","","","null","51","NaN","","","","","","","","","","","","","","",""
"","S2","","html-keyboard-response","333","540313","0.0-1.0-463.0","0","0","92069","","null","","","null","51","","NaN","","","","","","","","","","","","","",""
"","response","","html-keyboard-response","334","540991","0.0-1.0-464.0","0","0","92069","","677","","","75","51","","","2","51","training","adjacent","DC","4","3","N.jpg","L.jpg","1","0","0","",""
"","feedback","","html-keyboard-response","335","541994","0.0-1.0-465.0-0.0","0","0","92069","","null","","","null","51","","","","","","","","","","","","","","","",""
"","time_out","","html-keyboard-response","336","543997","0.0-1.0-467.0-0.0","0","0","92069","","null","","","null","51","","","","","","","","","","","","","","","",""
"","ITI","","html-keyboard-response","337","545001","0.0-1.0-468.0","0","0","92069","","null","","","null","51","","","","","","","","","","","","","","","NaN",""
"","S1","","html-keyboard-response","338","545254","0.0-1.0-470.0","0","0","92069","","null","","","null","52","","","","","","","","","","","","","","","",""
"","ISI","","html-keyboard-response","339","547257","0.0-1.0-471.0","0","0","92069","","null","","","null","52","NaN","","","","","","","","","","","","","","",""
"","S2","","html-keyboard-response","340","547510","0.0-1.0-472.0","0","0","92069","","null","","","null","52","","NaN","","","","","","","","","","","","","",""
"","response","","html-keyboard-response","341","548223","0.0-1.0-473.0","0","0","92069","","710","","","75","52","","","2","52","training","adjacent","CD","3","4","L.jpg","N.jpg","1","1","1","",""
"","feedback","","html-keyboard-response","342","549226","0.0-1.0-474.0-0.0","0","0","92069","","null","","","null","52","","","","","","","","","","","","","","","",""
"","ITI","","html-keyboard-response","343","550229","0.0-1.0-477.0","0","0","92069","","null","","","null","52","","","","","","","","","","","","","","","NaN",""
"","S1","","html-keyboard-response","344","550484","0.0-1.0-479.0","0","0","92069","","null","","","null","53","","","","","","","","","","","","","","","",""
"","ISI","","html-keyboard-response","345","552486","0.0-1.0-480.0","0","0","92069","","null","","","null","53","NaN","","","","","","","","","","","","","","",""
"","S2","","html-keyboard-response","346","552739","0.0-1.0-481.0","0","0","92069","","null","","","null","53","","NaN","","","","","","","","","","","","","",""
"","response","","html-keyboard-response","347","553259","0.0-1.0-482.0","0","0","92069","","518","","","75","53","","","2","53","training","adjacent","BC","2","3","P.jpg","L.jpg","1","1","1","",""
"","feedback","","html-keyboard-response","348","554262","0.0-1.0-483.0-0.0","0","0","92069","","null","","","null","53","","","","","","","","","","","","","","","",""
"","ITI","","html-keyboard-response","349","555266","0.0-1.0-486.0","0","0","92069","","null","","","null","53","","","","","","","","","","","","","","","NaN",""
"","S1","","html-keyboard-response","350","555518","0.0-1.0-488.0","0","0","92069","","null","","","null","54","","","","","","","","","","","","","","","",""
"","ISI","","html-keyboard-response","351","557520","0.0-1.0-489.0","0","0","92069","","null","","","null","54","NaN","","","","","","","","","","","","","","",""
"","S2","","html-keyboard-response","352","557774","0.0-1.0-490.0","0","0","92069","","null","","","null","54","","NaN","","","","","","","","","","","","","",""
"","response","","html-keyboard-response","353","558458","0.0-1.0-491.0","0","0","92069","","682","","","68","54","","","2","54","training","adjacent","FE","6","5","R.jpg","O.jpg","0","0","1","",""
"","feedback","","html-keyboard-response","354","559461","0.0-1.0-492.0-0.0","0","0","92069","","null","","","null","54","","","","","","","","","","","","","","","",""
"","ITI","","html-keyboard-response","355","560465","0.0-1.0-495.0","0","0","92069","","null","","","null","54","","","","","","","","","","","","","","","NaN",""
"","S1","","html-keyboard-response","356","560717","0.0-1.0-497.0","0","0","92069","","null","","","null","55","","","","","","","","","","","","","","","",""
"","ISI","","html-keyboard-response","357","562720","0.0-1.0-498.0","0","0","92069","","null","","","null","55","NaN","","","","","","","","","","","","","","",""
"","S2","","html-keyboard-response","358","562973","0.0-1.0-499.0","0","0","92069","","null","","","null","55","","NaN","","","","","","","","","","","","","",""
"","response","","html-keyboard-response","359","563744","0.0-1.0-500.0","0","0","92069","","769","","","68","55","","","2","55","training","adjacent","CB","3","2","L.jpg","P.jpg","0","0","1","",""
"","feedback","","html-keyboard-response","360","564748","0.0-1.0-501.0-0.0","0","0","92069","","null","","","null","55","","","","","","","","","","","","","","","",""
"","ITI","","html-keyboard-response","361","565751","0.0-1.0-504.0","0","0","92069","","null","","","null","55","","","","","","","","","","","","","","","NaN",""
"","S1","","html-keyboard-response","362","566004","0.0-1.0-506.0","0","0","92069","","null","","","null","56","","","","","","","","","","","","","","","",""
"","ISI","","html-keyboard-response","363","568006","0.0-1.0-507.0","0","0","92069","","null","","","null","56","NaN","","","","","","","","","","","","","","",""
"","S2","","html-keyboard-response","364","568259","0.0-1.0-508.0","0","0","92069","","null","","","null","56","","NaN","","","","","","","","","","","","","",""
"","response","","html-keyboard-response","365","568892","0.0-1.0-509.0","0","0","92069","","631","","","68","56","","","2","56","training","adjacent","AB","1","2","M.jpg","P.jpg","0","1","0","",""
"","feedback","","html-keyboard-response","366","569895","0.0-1.0-510.0-0.0","0","0","92069","","null","","","null","56","","","","","","","","","","","","","","","",""
"","time_out","","html-keyboard-response","367","571897","0.0-1.0-512.0-0.0","0","0","92069","","null","","","null","56","","","","","","","","","","","","","","","",""
"","ITI","","html-keyboard-response","368","572900","0.0-1.0-513.0","0","0","92069","","null","","","null","56","","","","","","","","","","","","","","","NaN",""
"","S1","","html-keyboard-response","369","573152","0.0-1.0-515.0","0","0","92069","","null","","","null","57","","","","","","","","","","","","","","","",""
"","ISI","","html-keyboard-response","370","575154","0.0-1.0-516.0","0","0","92069","","null","","","null","57","NaN","","","","","","","","","","","","","","",""
"","S2","","html-keyboard-response","371","575407","0.0-1.0-517.0","0","0","92069","","null","","","null","57","","NaN","","","","","","","","","","","","","",""
"","response","","html-keyboard-response","372","576145","0.0-1.0-518.0","0","0","92069","","736","","","75","57","","","2","57","training","adjacent","ED","5","4","O.jpg","N.jpg","1","0","0","",""
"","feedback","","html-keyboard-response","373","577148","0.0-1.0-519.0-0.0","0","0","92069","","null","","","null","57","","","","","","","","","","","","","","","",""
"","time_out","","html-keyboard-response","374","579150","0.0-1.0-521.0-0.0","0","0","92069","","null","","","null","57","","","","","","","","","","","","","","","",""
"","ITI","","html-keyboard-response","375","580153","0.0-1.0-522.0","0","0","92069","","null","","","null","57","","","","","","","","","","","","","","","NaN",""
"","S1","","html-keyboard-response","376","580405","0.0-1.0-524.0","0","0","92069","","null","","","null","58","","","","","","","","","","","","","","","",""
"","ISI","","html-keyboard-response","377","582409","0.0-1.0-525.0","0","0","92069","","null","","","null","58","NaN","","","","","","","","","","","","","","",""
"","S2","","html-keyboard-response","378","582663","0.0-1.0-526.0","0","0","92069","","null","","","null","58","","NaN","","","","","","","","","","","","","",""
"","response","","html-keyboard-response","379","583329","0.0-1.0-527.0","0","0","92069","","664","","","68","58","","","2","58","training","adjacent","BA","2","1","P.jpg","M.jpg","0","0","1","",""
"","feedback","","html-keyboard-response","380","584330","0.0-1.0-528.0-0.0","0","0","92069","","null","","","null","58","","","","","","","","","","","","","","","",""
"","ITI","","html-keyboard-response","381","585332","0.0-1.0-531.0","0","0","92069","","null","","","null","58","","","","","","","","","","","","","","","NaN",""
"","S1","","html-keyboard-response","382","585586","0.0-1.0-533.0","0","0","92069","","null","","","null","59","","","","","","","","","","","","","","","",""
"","ISI","","html-keyboard-response","383","587588","0.0-1.0-534.0","0","0","92069","","null","","","null","59","NaN","","","","","","","","","","","","","","",""
"","S2","","html-keyboard-response","384","587841","0.0-1.0-535.0","0","0","92069","","null","","","null","59","","NaN","","","","","","","","","","","","","",""
"","response","","html-keyboard-response","385","588589","0.0-1.0-536.0","0","0","92069","","747","","","75","59","","","2","59","training","adjacent","FG","6","7","R.jpg","Q.jpg","1","1","1","",""
"","feedback","","html-keyboard-response","386","589592","0.0-1.0-537.0-0.0","0","0","92069","","null","","","null","59","","","","","","","","","","","","","","","",""
"","ITI","","html-keyboard-response","387","590595","0.0-1.0-540.0","0","0","92069","","null","","","null","59","","","","","","","","","","","","","","","NaN",""
"","S1","","html-keyboard-response","388","590848","0.0-1.0-542.0","0","0","92069","","null","","","null","60","","","","","","","","","","","","","","","",""
"","ISI","","html-keyboard-response","389","592851","0.0-1.0-543.0","0","0","92069","","null","","","null","60","NaN","","","","","","","","","","","","","","",""
"","S2","","html-keyboard-response","390","593103","0.0-1.0-544.0","0","0","92069","","null","","","null","60","","NaN","","","","","","","","","","","","","",""
"","response","","html-keyboard-response","391","594004","0.0-1.0-545.0","0","0","92069","","899","","","68","60","","","2","60","training","adjacent","DE","4","5","N.jpg","O.jpg","0","1","0","",""
"","feedback","","html-keyboard-response","392","595006","0.0-1.0-546.0-0.0","0","0","92069","","null","","","null","60","","","","","","","","","","","","","","","",""
"","time_out","","html-keyboard-response","393","597010","0.0-1.0-548.0-0.0","0","0","92069","","null","","","null","60","","","","","","","","","","","","","","","",""
"","ITI","","html-keyboard-response","394","598013","0.0-1.0-549.0","0","0","92069","","null","","","null","60","","","","","","","","","","","","","","","NaN",""
"","S1","","html-keyboard-response","395","598265","0.0-1.0-551.0","0","0","92069","","null","","","null","61","","","","","","","","","","","","","","","",""
"","ISI","","html-keyboard-response","396","600267","0.0-1.0-552.0","0","0","92069","","null","","","null","61","NaN","","","","","","","","","","","","","","",""
"","S2","","html-keyboard-response","397","600520","0.0-1.0-553.0","0","0","92069","","null","","","null","61","","NaN","","","","","","","","","","","","","",""
"","response","","html-keyboard-response","398","601140","0.0-1.0-554.0","0","0","92069","","618","","","68","61","","","2","61","training","adjacent","ED","5","4","O.jpg","N.jpg","0","0","1","",""
"","feedback","","html-keyboard-response","399","602143","0.0-1.0-555.0-0.0","0","0","92069","","null","","","null","61","","","","","","","","","","","","","","","",""
"","ITI","","html-keyboard-response","400","603147","0.0-1.0-558.0","0","0","92069","","null","","","null","61","","","","","","","","","","","","","","","NaN",""
"","S1","","html-keyboard-response","401","603399","0.0-1.0-560.0","0","0","92069","","null","","","null","62","","","","","","","","","","","","","","","",""
"","ISI","","html-keyboard-response","402","605401","0.0-1.0-561.0","0","0","92069","","null","","","null","62","NaN","","","","","","","","","","","","","","",""
"","S2","","html-keyboard-response","403","605653","0.0-1.0-562.0","0","0","92069","","null","","","null","62","","NaN","","","","","","","","","","","","","",""
"","response","","html-keyboard-response","404","605991","0.0-1.0-563.0","0","0","92069","","336","","","68","62","","","2","62","training","adjacent","DC","4","3","N.jpg","L.jpg","0","0","1","",""
"","feedback","","html-keyboard-response","405","606995","0.0-1.0-564.0-0.0","0","0","92069","","null","","","null","62","","","","","","","","","","","","","","","",""
"","ITI","","html-keyboard-response","406","607997","0.0-1.0-567.0","0","0","92069","","null","","","null","62","","","","","","","","","","","","","","","NaN",""
"","S1","","html-keyboard-response","407","608250","0.0-1.0-569.0","0","0","92069","","null","","","null","63","","","","","","","","","","","","","","","",""
"","ISI","","html-keyboard-response","408","610253","0.0-1.0-570.0","0","0","92069","","null","","","null","63","NaN","","","","","","","","","","","","","","",""
"","S2","","html-keyboard-response","409","610506","0.0-1.0-571.0","0","0","92069","","null","","","null","63","","NaN","","","","","","","","","","","","","",""
"","response","","html-keyboard-response","410","611177","0.0-1.0-572.0","0","0","92069","","669","","","68","63","","","2","63","training","adjacent","GF","7","6","Q.jpg","R.jpg","0","0","1","",""
"","feedback","","html-keyboard-response","411","612179","0.0-1.0-573.0-0.0","0","0","92069","","null","","","null","63","","","","","","","","","","","","","","","",""
"","ITI","","html-keyboard-response","412","613183","0.0-1.0-576.0","0","0","92069","","null","","","null","63","","","","","","","","","","","","","","","NaN",""
"","S1","","html-keyboard-response","413","613436","0.0-1.0-578.0","0","0","92069","","null","","","null","64","","","","","","","","","","","","","","","",""
"","ISI","","html-keyboard-response","414","615437","0.0-1.0-579.0","0","0","92069","","null","","","null","64","NaN","","","","","","","","","","","","","","",""
"","S2","","html-keyboard-response","415","615690","0.0-1.0-580.0","0","0","92069","","null","","","null","64","","NaN","","","","","","","","","","","","","",""
"","response","","html-keyboard-response","416","616387","0.0-1.0-581.0","0","0","92069","","695","","","68","64","","","2","64","training","adjacent","GF","7","6","Q.jpg","R.jpg","0","0","1","",""
"","feedback","","html-keyboard-response","417","617389","0.0-1.0-582.0-0.0","0","0","92069","","null","","","null","64","","","","","","","","","","","","","","","",""
"","ITI","","html-keyboard-response","418","618393","0.0-1.0-585.0","0","0","92069","","null","","","null","64","","","","","","","","","","","","","","","NaN",""
"","S1","","html-keyboard-response","419","618645","0.0-1.0-587.0","0","0","92069","","null","","","null","65","","","","","","","","","","","","","","","",""
"","ISI","","html-keyboard-response","420","620648","0.0-1.0-588.0","0","0","92069","","null","","","null","65","NaN","","","","","","","","","","","","","","",""
"","S2","","html-keyboard-response","421","620902","0.0-1.0-589.0","0","0","92069","","null","","","null","65","","NaN","","","","","","","","","","","","","",""
"","response","","html-keyboard-response","422","621500","0.0-1.0-590.0","0","0","92069","","597","","","68","65","","","2","65","training","adjacent","ED","5","4","O.jpg","N.jpg","0","0","1","",""
"","feedback","","html-keyboard-response","423","622502","0.0-1.0-591.0-0.0","0","0","92069","","null","","","null","65","","","","","","","","","","","","","","","",""
"","ITI","","html-keyboard-response","424","623506","0.0-1.0-594.0","0","0","92069","","null","","","null","65","","","","","","","","","","","","","","","NaN",""
"","S1","","html-keyboard-response","425","623761","0.0-1.0-596.0","0","0","92069","","null","","","null","66","","","","","","","","","","","","","","","",""
"","ISI","","html-keyboard-response","426","625764","0.0-1.0-597.0","0","0","92069","","null","","","null","66","NaN","","","","","","","","","","","","","","",""
"","S2","","html-keyboard-response","427","626015","0.0-1.0-598.0","0","0","92069","","null","","","null","66","","NaN","","","","","","","","","","","","","",""
"","response","","html-keyboard-response","428","626771","0.0-1.0-599.0","0","0","92069","","753","","","68","66","","","2","66","training","adjacent","CD","3","4","L.jpg","N.jpg","0","1","0","",""
"","feedback","","html-keyboard-response","429","627774","0.0-1.0-600.0-0.0","0","0","92069","","null","","","null","66","","","","","","","","","","","","","","","",""
"","time_out","","html-keyboard-response","430","629777","0.0-1.0-602.0-0.0","0","0","92069","","null","","","null","66","","","","","","","","","","","","","","","",""
"","ITI","","html-keyboard-response","431","630779","0.0-1.0-603.0","0","0","92069","","null","","","null","66","","","","","","","","","","","","","","","NaN",""
"","S1","","html-keyboard-response","432","631032","0.0-1.0-605.0","0","0","92069","","null","","","null","67","","","","","","","","","","","","","","","",""
"","ISI","","html-keyboard-response","433","633035","0.0-1.0-606.0","0","0","92069","","null","","","null","67","NaN","","","","","","","","","","","","","","",""
"","S2","","html-keyboard-response","434","633289","0.0-1.0-607.0","0","0","92069","","null","","","null","67","","NaN","","","","","","","","","","","","","",""
"","response","","html-keyboard-response","435","633726","0.0-1.0-608.0","0","0","92069","","434","","","68","67","","","2","67","training","adjacent","FE","6","5","R.jpg","O.jpg","0","0","1","",""
"","feedback","","html-keyboard-response","436","634729","0.0-1.0-609.0-0.0","0","0","92069","","null","","","null","67","","","","","","","","","","","","","","","",""
"","ITI","","html-keyboard-response","437","635733","0.0-1.0-612.0","0","0","92069","","null","","","null","67","","","","","","","","","","","","","","","NaN",""
"","S1","","html-keyboard-response","438","635987","0.0-1.0-614.0","0","0","92069","","null","","","null","68","","","","","","","","","","","","","","","",""
"","ISI","","html-keyboard-response","439","637989","0.0-1.0-615.0","0","0","92069","","null","","","null","68","NaN","","","","","","","","","","","","","","",""
"","S2","","html-keyboard-response","440","638241","0.0-1.0-616.0","0","0","92069","","null","","","null","68","","NaN","","","","","","","","","","","","","",""
"","response","","html-keyboard-response","441","638714","0.0-1.0-617.0","0","0","92069","","471","","","68","68","","","2","68","training","adjacent","FE","6","5","R.jpg","O.jpg","0","0","1","",""
"","feedback","","html-keyboard-response","442","639716","0.0-1.0-618.0-0.0","0","0","92069","","null","","","null","68","","","","","","","","","","","","","","","",""
"","ITI","","html-keyboard-response","443","640719","0.0-1.0-621.0","0","0","92069","","null","","","null","68","","","","","","","","","","","","","","","NaN",""
"","S1","","html-keyboard-response","444","640971","0.0-1.0-623.0","0","0","92069","","null","","","null","69","","","","","","","","","","","","","","","",""
"","ISI","","html-keyboard-response","445","642972","0.0-1.0-624.0","0","0","92069","","null","","","null","69","NaN","","","","","","","","","","","","","","",""
"","S2","","html-keyboard-response","446","643225","0.0-1.0-625.0","0","0","92069","","null","","","null","69","","NaN","","","","","","","","","","","","","",""
"","response","","html-keyboard-response","447","643985","0.0-1.0-626.0","0","0","92069","","758","","","68","69","","","2","69","training","adjacent","DC","4","3","N.jpg","L.jpg","0","0","1","",""
"","feedback","","html-keyboard-response","448","644988","0.0-1.0-627.0-0.0","0","0","92069","","null","","","null","69","","","","","","","","","","","","","","","",""
"","ITI","","html-keyboard-response","449","645991","0.0-1.0-630.0","0","0","92069","","null","","","null","69","","","","","","","","","","","","","","","NaN",""
"","S1","","html-keyboard-response","450","646243","0.0-1.0-632.0","0","0","92069","","null","","","null","70","","","","","","","","","","","","","","","",""
"","ISI","","html-keyboard-response","451","648247","0.0-1.0-633.0","0","0","92069","","null","","","null","70","NaN","","","","","","","","","","","","","","",""
"","S2","","html-keyboard-response","452","648499","0.0-1.0-634.0","0","0","92069","","null","","","null","70","","NaN","","","","","","","","","","","","","",""
"","response","","html-keyboard-response","453","649324","0.0-1.0-635.0","0","0","92069","","823","","","68","70","","","2","70","training","adjacent","BA","2","1","P.jpg","M.jpg","0","0","1","",""
"","feedback","","html-keyboard-response","454","650326","0.0-1.0-636.0-0.0","0","0","92069","","null","","","null","70","","","","","","","","","","","","","","","",""
"","ITI","","html-keyboard-response","455","651329","0.0-1.0-639.0","0","0","92069","","null","","","null","70","","","","","","","","","","","","","","","NaN",""
"","S1","","html-keyboard-response","456","651582","0.0-1.0-641.0","0","0","92069","","null","","","null","71","","","","","","","","","","","","","","","",""
"","ISI","","html-keyboard-response","457","653584","0.0-1.0-642.0","0","0","92069","","null","","","null","71","NaN","","","","","","","","","","","","","","",""
"","S2","","html-keyboard-response","458","653838","0.0-1.0-643.0","0","0","92069","","null","","","null","71","","NaN","","","","","","","","","","","","","",""
"","response","","html-keyboard-response","459","654203","0.0-1.0-644.0","0","0","92069","","364","","","68","71","","","2","71","training","adjacent","BA","2","1","P.jpg","M.jpg","0","0","1","",""
"","feedback","","html-keyboard-response","460","655207","0.0-1.0-645.0-0.0","0","0","92069","","null","","","null","71","","","","","","","","","","","","","","","",""
"","ITI","","html-keyboard-response","461","656210","0.0-1.0-648.0","0","0","92069","","null","","","null","71","","","","","","","","","","","","","","","NaN",""
"","S1","","html-keyboard-response","462","656463","0.0-1.0-650.0","0","0","92069","","null","","","null","72","","","","","","","","","","","","","","","",""
"","ISI","","html-keyboard-response","463","658465","0.0-1.0-651.0","0","0","92069","","null","","","null","72","NaN","","","","","","","","","","","","","","",""
"","S2","","html-keyboard-response","464","658719","0.0-1.0-652.0","0","0","92069","","null","","","null","72","","NaN","","","","","","","","","","","","","",""
"","response","","html-keyboard-response","465","659926","0.0-1.0-653.0","0","0","92069","","1206","","","75","72","","","2","72","training","adjacent","EF","5","6","O.jpg","R.jpg","1","1","1","",""
"","feedback","","html-keyboard-response","466","660930","0.0-1.0-654.0-0.0","0","0","92069","","null","","","null","72","","","","","","","","","","","","","","","",""
"","ITI","","html-keyboard-response","467","661933","0.0-1.0-657.0","0","0","92069","","null","","","null","72","","","","","","","","","","","","","","","NaN",""
"","S1","","html-keyboard-response","468","662186","0.0-1.0-659.0","0","0","92069","","null","","","null","73","","","","","","","","","","","","","","","",""
"","ISI","","html-keyboard-response","469","664189","0.0-1.0-660.0","0","0","92069","","null","","","null","73","NaN","","","","","","","","","","","","","","",""
"","S2","","html-keyboard-response","470","664442","0.0-1.0-661.0","0","0","92069","","null","","","null","73","","NaN","","","","","","","","","","","","","",""
"","response","","html-keyboard-response","471","665090","0.0-1.0-662.0","0","0","92069","","646","","","75","73","","","2","73","training","adjacent","AB","1","2","M.jpg","P.jpg","1","1","1","",""
"","feedback","","html-keyboard-response","472","666091","0.0-1.0-663.0-0.0","0","0","92069","","null","","","null","73","","","","","","","","","","","","","","","",""
"","ITI","","html-keyboard-response","473","667094","0.0-1.0-666.0","0","0","92069","","null","","","null","73","","","","","","","","","","","","","","","NaN",""
"","S1","","html-keyboard-response","474","667346","0.0-1.0-668.0","0","0","92069","","null","","","null","74","","","","","","","","","","","","","","","",""
"","ISI","","html-keyboard-response","475","669349","0.0-1.0-669.0","0","0","92069","","null","","","null","74","NaN","","","","","","","","","","","","","","",""
"","S2","","html-keyboard-response","476","669601","0.0-1.0-670.0","0","0","92069","","null","","","null","74","","NaN","","","","","","","","","","","","","",""
"","response","","html-keyboard-response","477","670229","0.0-1.0-671.0","0","0","92069","","627","","","75","74","","","2","74","training","adjacent","FG","6","7","R.jpg","Q.jpg","1","1","1","",""
"","feedback","","html-keyboard-response","478","671232","0.0-1.0-672.0-0.0","0","0","92069","","null","","","null","74","","","","","","","","","","","","","","","",""
"","ITI","","html-keyboard-response","479","672236","0.0-1.0-675.0","0","0","92069","","null","","","null","74","","","","","","","","","","","","","","","NaN",""
"","S1","","html-keyboard-response","480","672490","0.0-1.0-677.0","0","0","92069","","null","","","null","75","","","","","","","","","","","","","","","",""
"","ISI","","html-keyboard-response","481","674493","0.0-1.0-678.0","0","0","92069","","null","","","null","75","NaN","","","","","","","","","","","","","","",""
"","S2","","html-keyboard-response","482","674745","0.0-1.0-679.0","0","0","92069","","null","","","null","75","","NaN","","","","","","","","","","","","","",""
"","response","","html-keyboard-response","483","675159","0.0-1.0-680.0","0","0","92069","","411","","","68","75","","","2","75","training","adjacent","BA","2","1","P.jpg","M.jpg","0","0","1","",""
"","feedback","","html-keyboard-response","484","676161","0.0-1.0-681.0-0.0","0","0","92069","","null","","","null","75","","","","","","","","","","","","","","","",""
"","ITI","","html-keyboard-response","485","677163","0.0-1.0-684.0","0","0","92069","","null","","","null","75","","","","","","","","","","","","","","","NaN",""
"","S1","","html-keyboard-response","486","677415","0.0-1.0-686.0","0","0","92069","","null","","","null","76","","","","","","","","","","","","","","","",""
"","ISI","","html-keyboard-response","487","679420","0.0-1.0-687.0","0","0","92069","","null","","","null","76","NaN","","","","","","","","","","","","","","",""
"","S2","","html-keyboard-response","488","679673","0.0-1.0-688.0","0","0","92069","","null","","","null","76","","NaN","","","","","","","","","","","","","",""
"","response","","html-keyboard-response","489","680071","0.0-1.0-689.0","0","0","92069","","397","","","75","76","","","2","76","training","adjacent","DE","4","5","N.jpg","O.jpg","1","1","1","",""
"","feedback","","html-keyboard-response","490","681074","0.0-1.0-690.0-0.0","0","0","92069","","null","","","null","76","","","","","","","","","","","","","","","",""
"","ITI","","html-keyboard-response","491","682077","0.0-1.0-693.0","0","0","92069","","null","","","null","76","","","","","","","","","","","","","","","NaN",""
"","S1","","html-keyboard-response","492","682329","0.0-1.0-695.0","0","0","92069","","null","","","null","77","","","","","","","","","","","","","","","",""
"","ISI","","html-keyboard-response","493","684333","0.0-1.0-696.0","0","0","92069","","null","","","null","77","NaN","","","","","","","","","","","","","","",""
"","S2","","html-keyboard-response","494","684585","0.0-1.0-697.0","0","0","92069","","null","","","null","77","","NaN","","","","","","","","","","","","","",""
"","response","","html-keyboard-response","495","685678","0.0-1.0-698.0","0","0","92069","","1091","","","68","77","","","2","77","training","adjacent","FE","6","5","R.jpg","O.jpg","0","0","1","",""
"","feedback","","html-keyboard-response","496","686680","0.0-1.0-699.0-0.0","0","0","92069","","null","","","null","77","","","","","","","","","","","","","","","",""
"","ITI","","html-keyboard-response","497","687683","0.0-1.0-702.0","0","0","92069","","null","","","null","77","","","","","","","","","","","","","","","NaN",""
"","S1","","html-keyboard-response","498","687936","0.0-1.0-704.0","0","0","92069","","null","","","null","78","","","","","","","","","","","","","","","",""
"","ISI","","html-keyboard-response","499","689939","0.0-1.0-705.0","0","0","92069","","null","","","null","78","NaN","","","","","","","","","","","","","","",""
"","S2","","html-keyboard-response","500","690193","0.0-1.0-706.0","0","0","92069","","null","","","null","78","","NaN","","","","","","","","","","","","","",""
"","response","","html-keyboard-response","501","691319","0.0-1.0-707.0","0","0","92069","","1124","","","75","78","","","2","78","training","adjacent","EF","5","6","O.jpg","R.jpg","1","1","1","",""
"","feedback","","html-keyboard-response","502","692322","0.0-1.0-708.0-0.0","0","0","92069","","null","","","null","78","","","","","","","","","","","","","","","",""
"","ITI","","html-keyboard-response","503","693323","0.0-1.0-711.0","0","0","92069","","null","","","null","78","","","","","","","","","","","","","","","NaN",""
"","S1","","html-keyboard-response","504","693576","0.0-1.0-713.0","0","0","92069","","null","","","null","79","","","","","","","","","","","","","","","",""
"","ISI","","html-keyboard-response","505","695579","0.0-1.0-714.0","0","0","92069","","null","","","null","79","NaN","","","","","","","","","","","","","","",""
"","S2","","html-keyboard-response","506","695832","0.0-1.0-715.0","0","0","92069","","null","","","null","79","","NaN","","","","","","","","","","","","","",""
"","response","","html-keyboard-response","507","696507","0.0-1.0-716.0","0","0","92069","","672","","","68","79","","","2","79","training","adjacent","CB","3","2","L.jpg","P.jpg","0","0","1","",""
"","feedback","","html-keyboard-response","508","697509","0.0-1.0-717.0-0.0","0","0","92069","","null","","","null","79","","","","","","","","","","","","","","","",""
"","ITI","","html-keyboard-response","509","698512","0.0-1.0-720.0","0","0","92069","","null","","","null","79","","","","","","","","","","","","","","","NaN",""
"","S1","","html-keyboard-response","510","698765","0.0-1.0-722.0","0","0","92069","","null","","","null","80","","","","","","","","","","","","","","","",""
"","ISI","","html-keyboard-response","511","700768","0.0-1.0-723.0","0","0","92069","","null","","","null","80","NaN","","","","","","","","","","","","","","",""
"","S2","","html-keyboard-response","512","701023","0.0-1.0-724.0","0","0","92069","","null","","","null","80","","NaN","","","","","","","","","","","","","",""
"","response","","html-keyboard-response","513","701676","0.0-1.0-725.0","0","0","92069","","651","","","75","80","","","2","80","training","adjacent","FG","6","7","R.jpg","Q.jpg","1","1","1","",""
"","feedback","","html-keyboard-response","514","702680","0.0-1.0-726.0-0.0","0","0","92069","","null","","","null","80","","","","","","","","","","","","","","","",""
"","ITI","","html-keyboard-response","515","703682","0.0-1.0-729.0","0","0","92069","","null","","","null","80","","","","","","","","","","","","","","","NaN",""
"","S1","","html-keyboard-response","516","703936","0.0-1.0-731.0","0","0","92069","","null","","","null","81","","","","","","","","","","","","","","","",""
"","ISI","","html-keyboard-response","517","705939","0.0-1.0-732.0","0","0","92069","","null","","","null","81","NaN","","","","","","","","","","","","","","",""
"","S2","","html-keyboard-response","518","706191","0.0-1.0-733.0","0","0","92069","","null","","","null","81","","NaN","","","","","","","","","","","","","",""
"","response","","html-keyboard-response","519","706774","0.0-1.0-734.0","0","0","92069","","581","","","75","81","","","2","81","training","adjacent","FG","6","7","R.jpg","Q.jpg","1","1","1","",""
"","feedback","","html-keyboard-response","520","707778","0.0-1.0-735.0-0.0","0","0","92069","","null","","","null","81","","","","","","","","","","","","","","","",""
"","ITI","","html-keyboard-response","521","708780","0.0-1.0-738.0","0","0","92069","","null","","","null","81","","","","","","","","","","","","","","","NaN",""
"","S1","","html-keyboard-response","522","709034","0.0-1.0-740.0","0","0","92069","","null","","","null","82","","","","","","","","","","","","","","","",""
"","ISI","","html-keyboard-response","523","711038","0.0-1.0-741.0","0","0","92069","","null","","","null","82","NaN","","","","","","","","","","","","","","",""
"","S2","","html-keyboard-response","524","711292","0.0-1.0-742.0","0","0","92069","","null","","","null","82","","NaN","","","","","","","","","","","","","",""
"","response","","html-keyboard-response","525","712073","0.0-1.0-743.0","0","0","92069","","780","","","75","82","","","2","82","training","adjacent","CD","3","4","L.jpg","N.jpg","1","1","1","",""
"","feedback","","html-keyboard-response","526","713076","0.0-1.0-744.0-0.0","0","0","92069","","null","","","null","82","","","","","","","","","","","","","","","",""
"","ITI","","html-keyboard-response","527","714078","0.0-1.0-747.0","0","0","92069","","null","","","null","82","","","","","","","","","","","","","","","NaN",""
"","S1","","html-keyboard-response","528","714330","0.0-1.0-749.0","0","0","92069","","null","","","null","83","","","","","","","","","","","","","","","",""
"","ISI","","html-keyboard-response","529","716333","0.0-1.0-750.0","0","0","92069","","null","","","null","83","NaN","","","","","","","","","","","","","","",""
"","S2","","html-keyboard-response","530","716586","0.0-1.0-751.0","0","0","92069","","null","","","null","83","","NaN","","","","","","","","","","","","","",""
"","response","","html-keyboard-response","531","717197","0.0-1.0-752.0","0","0","92069","","608","","","68","83","","","2","83","training","adjacent","DC","4","3","N.jpg","L.jpg","0","0","1","",""
"","feedback","","html-keyboard-response","532","718201","0.0-1.0-753.0-0.0","0","0","92069","","null","","","null","83","","","","","","","","","","","","","","","",""
"","ITI","","html-keyboard-response","533","719203","0.0-1.0-756.0","0","0","92069","","null","","","null","83","","","","","","","","","","","","","","","NaN",""
"","S1","","html-keyboard-response","534","719455","0.0-1.0-758.0","0","0","92069","","null","","","null","84","","","","","","","","","","","","","","","",""
"","ISI","","html-keyboard-response","535","721457","0.0-1.0-759.0","0","0","92069","","null","","","null","84","NaN","","","","","","","","","","","","","","",""
"","S2","","html-keyboard-response","536","721712","0.0-1.0-760.0","0","0","92069","","null","","","null","84","","NaN","","","","","","","","","","","","","",""
"","response","","html-keyboard-response","537","722176","0.0-1.0-761.0","0","0","92069","","463","","","75","84","","","2","84","training","adjacent","DE","4","5","N.jpg","O.jpg","1","1","1","",""
"","feedback","","html-keyboard-response","538","723179","0.0-1.0-762.0-0.0","0","0","92069","","null","","","null","84","","","","","","","","","","","","","","","",""
"","ITI","","html-keyboard-response","539","724181","0.0-1.0-765.0","0","0","92069","","null","","","null","84","","","","","","","","","","","","","","","NaN",""
"","S1","","html-keyboard-response","540","724434","0.0-1.0-767.0","0","0","92069","","null","","","null","85","","","","","","","","","","","","","","","",""
"","ISI","","html-keyboard-response","541","726437","0.0-1.0-768.0","0","0","92069","","null","","","null","85","NaN","","","","","","","","","","","","","","",""
"","S2","","html-keyboard-response","542","726689","0.0-1.0-769.0","0","0","92069","","null","","","null","85","","NaN","","","","","","","","","","","","","",""
"","response","","html-keyboard-response","543","727058","0.0-1.0-770.0","0","0","92069","","367","","","75","85","","","2","85","training","adjacent","AB","1","2","M.jpg","P.jpg","1","1","1","",""
"","feedback","","html-keyboard-response","544","728062","0.0-1.0-771.0-0.0","0","0","92069","","null","","","null","85","","","","","","","","","","","","","","","",""
"","ITI","","html-keyboard-response","545","729064","0.0-1.0-774.0","0","0","92069","","null","","","null","85","","","","","","","","","","","","","","","NaN",""
"","S1","","html-keyboard-response","546","729317","0.0-1.0-776.0","0","0","92069","","null","","","null","86","","","","","","","","","","","","","","","",""
"","ISI","","html-keyboard-response","547","731321","0.0-1.0-777.0","0","0","92069","","null","","","null","86","NaN","","","","","","","","","","","","","","",""
"","S2","","html-keyboard-response","548","731573","0.0-1.0-778.0","0","0","92069","","null","","","null","86","","NaN","","","","","","","","","","","","","",""
"","response","","html-keyboard-response","549","732218","0.0-1.0-779.0","0","0","92069","","643","","","68","86","","","2","86","training","adjacent","CB","3","2","L.jpg","P.jpg","0","0","1","",""
"","feedback","","html-keyboard-response","550","733221","0.0-1.0-780.0-0.0","0","0","92069","","null","","","null","86","","","","","","","","","","","","","","","",""
"","ITI","","html-keyboard-response","551","734225","0.0-1.0-783.0","0","0","92069","","null","","","null","86","","","","","","","","","","","","","","","NaN",""
"","S1","","html-keyboard-response","552","734478","0.0-1.0-785.0","0","0","92069","","null","","","null","87","","","","","","","","","","","","","","","",""
"","ISI","","html-keyboard-response","553","736481","0.0-1.0-786.0","0","0","92069","","null","","","null","87","NaN","","","","","","","","","","","","","","",""
"","S2","","html-keyboard-response","554","736735","0.0-1.0-787.0","0","0","92069","","null","","","null","87","","NaN","","","","","","","","","","","","","",""
"","response","","html-keyboard-response","555","737462","0.0-1.0-788.0","0","0","92069","","725","","","75","87","","","2","87","training","adjacent","DE","4","5","N.jpg","O.jpg","1","1","1","",""
"","feedback","","html-keyboard-response","556","738464","0.0-1.0-789.0-0.0","0","0","92069","","null","","","null","87","","","","","","","","","","","","","","","",""
"","ITI","","html-keyboard-response","557","739466","0.0-1.0-792.0","0","0","92069","","null","","","null","87","","","","","","","","","","","","","","","NaN",""
"","S1","","html-keyboard-response","558","739719","0.0-1.0-794.0","0","0","92069","","null","","","null","88","","","","","","","","","","","","","","","",""
"","ISI","","html-keyboard-response","559","741721","0.0-1.0-795.0","0","0","92069","","null","","","null","88","NaN","","","","","","","","","","","","","","",""
"","S2","","html-keyboard-response","560","741974","0.0-1.0-796.0","0","0","92069","","null","","","null","88","","NaN","","","","","","","","","","","","","",""
"","response","","html-keyboard-response","561","742266","0.0-1.0-797.0","0","0","92069","","290","","","75","88","","","2","88","training","adjacent","AB","1","2","M.jpg","P.jpg","1","1","1","",""
"","feedback","","html-keyboard-response","562","743270","0.0-1.0-798.0-0.0","0","0","92069","","null","","","null","88","","","","","","","","","","","","","","","",""
"","ITI","","html-keyboard-response","563","744272","0.0-1.0-801.0","0","0","92069","","null","","","null","88","","","","","","","","","","","","","","","NaN",""
"","S1","","html-keyboard-response","564","744524","0.0-1.0-803.0","0","0","92069","","null","","","null","89","","","","","","","","","","","","","","","",""
"","ISI","","html-keyboard-response","565","746526","0.0-1.0-804.0","0","0","92069","","null","","","null","89","NaN","","","","","","","","","","","","","","",""
"","S2","","html-keyboard-response","566","746779","0.0-1.0-805.0","0","0","92069","","null","","","null","89","","NaN","","","","","","","","","","","","","",""
"","response","","html-keyboard-response","567","747857","0.0-1.0-806.0","0","0","92069","","1076","","","75","89","","","2","89","training","adjacent","BC","2","3","P.jpg","L.jpg","1","1","1","",""
"","feedback","","html-keyboard-response","568","748861","0.0-1.0-807.0-0.0","0","0","92069","","null","","","null","89","","","","","","","","","","","","","","","",""
"","ITI","","html-keyboard-response","569","749864","0.0-1.0-810.0","0","0","92069","","null","","","null","89","","","","","","","","","","","","","","","NaN",""
"","S1","","html-keyboard-response","570","750117","0.0-1.0-812.0","0","0","92069","","null","","","null","90","","","","","","","","","","","","","","","",""
"","ISI","","html-keyboard-response","571","752120","0.0-1.0-813.0","0","0","92069","","null","","","null","90","NaN","","","","","","","","","","","","","","",""
"","S2","","html-keyboard-response","572","752374","0.0-1.0-814.0","0","0","92069","","null","","","null","90","","NaN","","","","","","","","","","","","","",""
"","response","","html-keyboard-response","573","753079","0.0-1.0-815.0","0","0","92069","","703","","","75","90","","","2","90","training","adjacent","EF","5","6","O.jpg","R.jpg","1","1","1","",""
"","feedback","","html-keyboard-response","574","754084","0.0-1.0-816.0-0.0","0","0","92069","","null","","","null","90","","","","","","","","","","","","","","","",""
"","ITI","","html-keyboard-response","575","755087","0.0-1.0-819.0","0","0","92069","","null","","","null","90","","","","","","","","","","","","","","","NaN",""
"","S1","","html-keyboard-response","576","755340","0.0-1.0-821.0","0","0","92069","","null","","","null","91","","","","","","","","","","","","","","","",""
"","ISI","","html-keyboard-response","577","757342","0.0-1.0-822.0","0","0","92069","","null","","","null","91","NaN","","","","","","","","","","","","","","",""
"","S2","","html-keyboard-response","578","757595","0.0-1.0-823.0","0","0","92069","","null","","","null","91","","NaN","","","","","","","","","","","","","",""
"","response","","html-keyboard-response","579","758157","0.0-1.0-824.0","0","0","92069","","559","","","75","91","","","2","91","training","adjacent","CD","3","4","L.jpg","N.jpg","1","1","1","",""
"","feedback","","html-keyboard-response","580","759161","0.0-1.0-825.0-0.0","0","0","92069","","null","","","null","91","","","","","","","","","","","","","","","",""
"","ITI","","html-keyboard-response","581","760163","0.0-1.0-828.0","0","0","92069","","null","","","null","91","","","","","","","","","","","","","","","NaN",""
"","S1","","html-keyboard-response","582","760416","0.0-1.0-830.0","0","0","92069","","null","","","null","92","","","","","","","","","","","","","","","",""
"","ISI","","html-keyboard-response","583","762418","0.0-1.0-831.0","0","0","92069","","null","","","null","92","NaN","","","","","","","","","","","","","","",""
"","S2","","html-keyboard-response","584","762669","0.0-1.0-832.0","0","0","92069","","null","","","null","92","","NaN","","","","","","","","","","","","","",""
