"success","ttype","start_time","trial_type","trial_index","time_elapsed","internal_node_id","warning","missed_checkup","PID","view_history","rt","responses","repeat_instructions","key_press","index","keypress_isi","keypress_S2","block","trial_num","phase","group_type","pair_type","S1_stim","S2_stim","S1_img","S2_img","S1_chosen","S1_higher","accuracy","keypress_iti","total_bonus_tally"
"true","full_screen","d07292022hr1922","fullscreen","0","10098","0.0-0.0","0","0","12977","","","","","","","","","","","","","","","","","","","","","",""
"","instructions","","instructions","1","53931","0.0-1.0-0.0-0.0","0","0","12977","[{""page_index"":0,""viewing_time"":6459},{""page_index"":1,""viewing_time"":27650},{""page_index"":2,""viewing_time"":8084},{""page_index"":3,""viewing_time"":1633}]","43828","","","","","","","","","","","","","","","","","","","",""
"","comprehension_check","","survey-multi-choice","2","80330","0.0-1.0-0.0-1.0","0","0","12977","","26391","{""Q0"":""True"",""Q1"":""K"",""Q2"":""When you see the prompt 'MAKE A CHOICE' after the second image was presented"",""Q3"":""Green mark"",""Q4"":""either D or K""}","0","","","","","","","","","","","","","","","","","",""
"","start_exp","","html-keyboard-response","3","82325","0.0-1.0-1.0","0","0","12977","","1988","","","32","","","","","","","","","","","","","","","","",""
"","S1","","html-keyboard-response","4","82582","0.0-1.0-2.0","0","0","12977","","null","","","null","0","","","","","","","","","","","","","","","",""
"","ISI","","html-keyboard-response","5","84590","0.0-1.0-3.0","0","0","12977","","287","","","75","0","k","","","","","","","","","","","","","","",""
"","S2","","html-keyboard-response","6","84849","0.0-1.0-4.0","0","0","12977","","null","","","null","0","","NaN","","","","","","","","","","","","","",""
"","response","","html-keyboard-response","7","85529","0.0-1.0-5.0","0","0","12977","","676","","","68","0","","","1","0","training","adjacent","BA","2","1","L.jpg","O.jpg","0","0","1","",""
"","feedback","","html-keyboard-response","8","86539","0.0-1.0-6.0-0.0","0","0","12977","","null","","","null","0","","","","","","","","","","","","","","","",""
"","ITI","","html-keyboard-response","9","87547","0.0-1.0-9.0","0","0","12977","","null","","","null","0","","","","","","","","","","","","","","","NaN",""
"","S1","","html-keyboard-response","10","87807","0.0-1.0-11.0","0","0","12977","","null","","","null","1","","","","","","","","","","","","","","","",""
"","ISI","","html-keyboard-response","11","89814","0.0-1.0-12.0","0","0","12977","","null","","","null","1","NaN","","","","","","","","","","","","","","",""
"","S2","","html-keyboard-response","12","90070","0.0-1.0-13.0","0","0","12977","","null","","","null","1","","NaN","","","","","","","","","","","","","",""
"","response","","html-keyboard-response","13","90492","0.0-1.0-14.0","0","0","12977","","418","","","75","1","","","1","1","training","adjacent","CD","3","4","Q.jpg","N.jpg","1","1","1","",""
"","feedback","","html-keyboard-response","14","91499","0.0-1.0-15.0-0.0","0","0","12977","","null","","","null","1","","","","","","","","","","","","","","","",""
"","ITI","","html-keyboard-response","15","92507","0.0-1.0-18.0","0","0","12977","","null","","","null","1","","","","","","","","","","","","","","","NaN",""
"","S1","","html-keyboard-response","16","92763","0.0-1.0-20.0","0","0","12977","","null","","","null","2","","","","","","","","","","","","","","","",""
"","ISI","","html-keyboard-response","17","94769","0.0-1.0-21.0","0","0","12977","","null","","","null","2","NaN","","","","","","","","","","","","","","",""
"","S2","","html-keyboard-response","18","95024","0.0-1.0-22.0","0","0","12977","","null","","","null","2","","NaN","","","","","","","","","","","","","",""
"","response","","html-keyboard-response","19","95475","0.0-1.0-23.0","0","0","12977","","446","","","68","2","","","1","2","training","adjacent","GF","7","6","R.jpg","P.jpg","0","0","1","",""
"","feedback","","html-keyboard-response","20","96481","0.0-1.0-24.0-0.0","0","0","12977","","null","","","null","2","","","","","","","","","","","","","","","",""
"","ITI","","html-keyboard-response","21","97488","0.0-1.0-27.0","0","0","12977","","null","","","null","2","","","","","","","","","","","","","","","NaN",""
"","S1","","html-keyboard-response","22","97744","0.0-1.0-29.0","0","0","12977","","null","","","null","3","","","","","","","","","","","","","","","",""
"","ISI","","html-keyboard-response","23","99750","0.0-1.0-30.0","0","0","12977","","null","","","null","3","NaN","","","","","","","","","","","","","","",""
"","S2","","html-keyboard-response","24","100006","0.0-1.0-31.0","0","0","12977","","null","","","null","3","","NaN","","","","","","","","","","","","","",""
"","response","","html-keyboard-response","25","100405","0.0-1.0-32.0","0","0","12977","","396","","","75","3","","","1","3","training","adjacent","EF","5","6","M.jpg","P.jpg","1","1","1","",""
"","feedback","","html-keyboard-response","26","101414","0.0-1.0-33.0-0.0","0","0","12977","","null","","","null","3","","","","","","","","","","","","","","","",""
"","ITI","","html-keyboard-response","27","102422","0.0-1.0-36.0","0","0","12977","","null","","","null","3","","","","","","","","","","","","","","","NaN",""
"","S1","","html-keyboard-response","28","102682","0.0-1.0-38.0","0","0","12977","","null","","","null","4","","","","","","","","","","","","","","","",""
"","ISI","","html-keyboard-response","29","104688","0.0-1.0-39.0","0","0","12977","","null","","","null","4","NaN","","","","","","","","","","","","","","",""
"","S2","","html-keyboard-response","30","104946","0.0-1.0-40.0","0","0","12977","","null","","","null","4","","NaN","","","","","","","","","","","","","",""
"","response","","html-keyboard-response","31","105365","0.0-1.0-41.0","0","0","12977","","415","","","68","4","","","1","4","training","adjacent","AB","1","2","O.jpg","L.jpg","0","1","0","",""
"","feedback","","html-keyboard-response","32","106373","0.0-1.0-42.0-0.0","0","0","12977","","null","","","null","4","","","","","","","","","","","","","","","",""
"","time_out","","html-keyboard-response","33","108381","0.0-1.0-44.0-0.0","0","0","12977","","null","","","null","4","","","","","","","","","","","","","","","",""
"","ITI","","html-keyboard-response","34","109387","0.0-1.0-45.0","0","0","12977","","null","","","null","4","","","","","","","","","","","","","","","NaN",""
"","S1","","html-keyboard-response","35","109643","0.0-1.0-47.0","0","0","12977","","null","","","null","5","","","","","","","","","","","","","","","",""
"","ISI","","html-keyboard-response","36","111648","0.0-1.0-48.0","0","0","12977","","null","","","null","5","NaN","","","","","","","","","","","","","","",""
"","S2","","html-keyboard-response","37","111904","0.0-1.0-49.0","0","0","12977","","null","","","null","5","","NaN","","","","","","","","","","","","","",""
"","response","","html-keyboard-response","38","112333","0.0-1.0-50.0","0","0","12977","","424","","","75","5","","","1","5","training","adjacent","FE","6","5","P.jpg","M.jpg","1","0","0","",""
"","feedback","","html-keyboard-response","39","113339","0.0-1.0-51.0-0.0","0","0","12977","","null","","","null","5","","","","","","","","","","","","","","","",""
"","time_out","","html-keyboard-response","40","115344","0.0-1.0-53.0-0.0","0","0","12977","","null","","","null","5","","","","","","","","","","","","","","","",""
"","ITI","","html-keyboard-response","41","116352","0.0-1.0-54.0","0","0","12977","","null","","","null","5","","","","","","","","","","","","","","","NaN",""
"","S1","","html-keyboard-response","42","116608","0.0-1.0-56.0","0","0","12977","","null","","","null","6","","","","","","","","","","","","","","","",""
"","ISI","","html-keyboard-response","43","118615","0.0-1.0-57.0","0","0","12977","","null","","","null","6","NaN","","","","","","","","","","","","","","",""
"","S2","","html-keyboard-response","44","118875","0.0-1.0-58.0","0","0","12977","","null","","","null","6","","NaN","","","","","","","","","","","","","",""
"","response","","html-keyboard-response","45","119219","0.0-1.0-59.0","0","0","12977","","340","","","68","6","","","1","6","training","adjacent","ED","5","4","M.jpg","N.jpg","0","0","1","",""
"","feedback","","html-keyboard-response","46","120229","0.0-1.0-60.0-0.0","0","0","12977","","null","","","null","6","","","","","","","","","","","","","","","",""
"","ITI","","html-keyboard-response","47","121238","0.0-1.0-63.0","0","0","12977","","null","","","null","6","","","","","","","","","","","","","","","NaN",""
"","S1","","html-keyboard-response","48","121494","0.0-1.0-65.0","0","0","12977","","null","","","null","7","","","","","","","","","","","","","","","",""
"","ISI","","html-keyboard-response","49","123499","0.0-1.0-66.0","0","0","12977","","null","","","null","7","NaN","","","","","","","","","","","","","","",""
"","S2","","html-keyboard-response","50","123755","0.0-1.0-67.0","0","0","12977","","null","","","null","7","","NaN","","","","","","","","","","","","","",""
"","response","","html-keyboard-response","51","124277","0.0-1.0-68.0","0","0","12977","","517","","","75","7","","","1","7","training","adjacent","CB","3","2","Q.jpg","L.jpg","1","0","0","",""
"","feedback","","html-keyboard-response","52","125285","0.0-1.0-69.0-0.0","0","0","12977","","null","","","null","7","","","","","","","","","","","","","","","",""
"","time_out","","html-keyboard-response","53","127292","0.0-1.0-71.0-0.0","0","0","12977","","null","","","null","7","","","","","","","","","","","","","","","",""
"","ITI","","html-keyboard-response","54","128299","0.0-1.0-72.0","0","0","12977","","null","","","null","7","","","","","","","","","","","","","","","NaN",""
"","S1","","html-keyboard-response","55","128557","0.0-1.0-74.0","0","0","12977","","null","","","null","8","","","","","","","","","","","","","","","",""
"","ISI","","html-keyboard-response","56","130565","0.0-1.0-75.0","0","0","12977","","null","","","null","8","NaN","","","","","","","","","","","","","","",""
"","S2","","html-keyboard-response","57","130821","0.0-1.0-76.0","0","0","12977","","null","","","null","8","","NaN","","","","","","","","","","","","","",""
"","response","","html-keyboard-response","58","132049","0.0-1.0-77.0","0","0","12977","","1223","","","75","8","","","1","8","training","adjacent","DE","4","5","N.jpg","M.jpg","1","1","1","",""
"","feedback","","html-keyboard-response","59","133056","0.0-1.0-78.0-0.0","0","0","12977","","null","","","null","8","","","","","","","","","","","","","","","",""
"","ITI","","html-keyboard-response","60","134064","0.0-1.0-81.0","0","0","12977","","null","","","null","8","","","","","","","","","","","","","","","NaN",""
"","S1","","html-keyboard-response","61","134323","0.0-1.0-83.0","0","0","12977","","null","","","null","9","","","","","","","","","","","","","","","",""
"","ISI","","html-keyboard-response","62","136332","0.0-1.0-84.0","0","0","12977","","null","","","null","9","NaN","","","","","","","","","","","","","","",""
"","S2","","html-keyboard-response","63","136592","0.0-1.0-85.0","0","0","12977","","null","","","null","9","","NaN","","","","","","","","","","","","","",""
"","response","","html-keyboard-response","64","136983","0.0-1.0-86.0","0","0","12977","","386","","","75","9","","","1","9","training","adjacent","BC","2","3","L.jpg","Q.jpg","1","1","1","",""
"","feedback","","html-keyboard-response","65","137990","0.0-1.0-87.0-0.0","0","0","12977","","null","","","null","9","","","","","","","","","","","","","","","",""
"","ITI","","html-keyboard-response","66","138998","0.0-1.0-90.0","0","0","12977","","null","","","null","9","","","","","","","","","","","","","","","NaN",""
"","S1","","html-keyboard-response","67","139256","0.0-1.0-92.0","0","0","12977","","null","","","null","10","","","","","","","","","","","","","","","",""
"","ISI","","html-keyboard-response","68","141264","0.0-1.0-93.0","0","0","12977","","null","","","null","10","NaN","","","","","","","","","","","","","","",""
"","S2","","html-keyboard-response","69","141524","0.0-1.0-94.0","0","0","12977","","null","","","null","10","","NaN","","","","","","","","","","","","","",""
"","response","","html-keyboard-response","70","141898","0.0-1.0-95.0","0","0","12977","","369","","","75","10","","","1","10","training","adjacent","CD","3","4","Q.jpg","N.jpg","1","1","1","",""
"","feedback","","html-keyboard-response","71","142907","0.0-1.0-96.0-0.0","0","0","12977","","null","","","null","10","","","","","","","","","","","","","","","",""
"","ITI","","html-keyboard-response","72","143915","0.0-1.0-99.0","0","0","12977","","null","","","null","10","","","","","","","","","","","","","","","NaN",""
"","S1","","html-keyboard-response","73","144171","0.0-1.0-101.0","0","0","12977","","null","","","null","11","","","","","","","","","","","","","","","",""
"","ISI","","html-keyboard-response","74","146176","0.0-1.0-102.0","0","0","12977","","null","","","null","11","NaN","","","","","","","","","","","","","","",""
"","S2","","html-keyboard-response","75","146432","0.0-1.0-103.0","0","0","12977","","null","","","null","11","","NaN","","","","","","","","","","","","","",""
"","response","","html-keyboard-response","76","147152","0.0-1.0-104.0","0","0","12977","","715","","","75","11","","","1","11","training","adjacent","DE","4","5","N.jpg","M.jpg","1","1","1","",""
"","feedback","","html-keyboard-response","77","148160","0.0-1.0-105.0-0.0","0","0","12977","","null","","","null","11","","","","","","","","","","","","","","","",""
"","ITI","","html-keyboard-response","78","149168","0.0-1.0-108.0","0","0","12977","","null","","","null","11","","","","","","","","","","","","","","","NaN",""
"","S1","","html-keyboard-response","79","149427","0.0-1.0-110.0","0","0","12977","","null","","","null","12","","","","","","","","","","","","","","","",""
"","ISI","","html-keyboard-response","80","151435","0.0-1.0-111.0","0","0","12977","","null","","","null","12","NaN","","","","","","","","","","","","","","",""
"","S2","","html-keyboard-response","81","151691","0.0-1.0-112.0","0","0","12977","","null","","","null","12","","NaN","","","","","","","","","","","","","",""
"","response","","html-keyboard-response","82","152017","0.0-1.0-113.0","0","0","12977","","323","","","75","12","","","1","12","training","adjacent","BC","2","3","L.jpg","Q.jpg","1","1","1","",""
"","feedback","","html-keyboard-response","83","153024","0.0-1.0-114.0-0.0","0","0","12977","","null","","","null","12","","","","","","","","","","","","","","","",""
"","ITI","","html-keyboard-response","84","154031","0.0-1.0-117.0","0","0","12977","","null","","","null","12","","","","","","","","","","","","","","","NaN",""
"","S1","","html-keyboard-response","85","154287","0.0-1.0-119.0","0","0","12977","","null","","","null","13","","","","","","","","","","","","","","","",""
"","ISI","","html-keyboard-response","86","156293","0.0-1.0-120.0","0","0","12977","","null","","","null","13","NaN","","","","","","","","","","","","","","",""
"","S2","","html-keyboard-response","87","156549","0.0-1.0-121.0","0","0","12977","","null","","","null","13","","NaN","","","","","","","","","","","","","",""
"","response","","html-keyboard-response","88","156953","0.0-1.0-122.0","0","0","12977","","400","","","75","13","","","1","13","training","adjacent","EF","5","6","M.jpg","P.jpg","1","1","1","",""
"","feedback","","html-keyboard-response","89","157963","0.0-1.0-123.0-0.0","0","0","12977","","null","","","null","13","","","","","","","","","","","","","","","",""
"","ITI","","html-keyboard-response","90","158971","0.0-1.0-126.0","0","0","12977","","null","","","null","13","","","","","","","","","","","","","","","NaN",""
"","S1","","html-keyboard-response","91","159226","0.0-1.0-128.0","0","0","12977","","null","","","null","14","","","","","","","","","","","","","","","",""
"","ISI","","html-keyboard-response","92","161234","0.0-1.0-129.0","0","0","12977","","null","","","null","14","NaN","","","","","","","","","","","","","","",""
"","S2","","html-keyboard-response","93","161493","0.0-1.0-130.0","0","0","12977","","null","","","null","14","","NaN","","","","","","","","","","","","","",""
"","response","","html-keyboard-response","94","161810","0.0-1.0-131.0","0","0","12977","","313","","","75","14","","","1","14","training","adjacent","FE","6","5","P.jpg","M.jpg","1","0","0","",""
"","feedback","","html-keyboard-response","95","162819","0.0-1.0-132.0-0.0","0","0","12977","","null","","","null","14","","","","","","","","","","","","","","","",""
"","time_out","","html-keyboard-response","96","164826","0.0-1.0-134.0-0.0","0","0","12977","","null","","","null","14","","","","","","","","","","","","","","","",""
"","ITI","","html-keyboard-response","97","165834","0.0-1.0-135.0","0","0","12977","","null","","","null","14","","","","","","","","","","","","","","","NaN",""
"","S1","","html-keyboard-response","98","166090","0.0-1.0-137.0","0","0","12977","","null","","","null","15","","","","","","","","","","","","","","","",""
"","ISI","","html-keyboard-response","99","168097","0.0-1.0-138.0","0","0","12977","","null","","","null","15","NaN","","","","","","","","","","","","","","",""
"","S2","","html-keyboard-response","100","168357","0.0-1.0-139.0","0","0","12977","","null","","","null","15","","NaN","","","","","","","","","","","","","",""
"","response","","html-keyboard-response","101","168986","0.0-1.0-140.0","0","0","12977","","625","","","75","15","","","1","15","training","adjacent","FE","6","5","P.jpg","M.jpg","1","0","0","",""
"","feedback","","html-keyboard-response","102","169994","0.0-1.0-141.0-0.0","0","0","12977","","null","","","null","15","","","","","","","","","","","","","","","",""
"","time_out","","html-keyboard-response","103","172000","0.0-1.0-143.0-0.0","0","0","12977","","null","","","null","15","","","","","","","","","","","","","","","",""
"","ITI","","html-keyboard-response","104","173008","0.0-1.0-144.0","0","0","12977","","null","","","null","15","","","","","","","","","","","","","","","NaN",""
"","S1","","html-keyboard-response","105","173264","0.0-1.0-146.0","0","0","12977","","null","","","null","16","","","","","","","","","","","","","","","",""
"","ISI","","html-keyboard-response","106","175269","0.0-1.0-147.0","0","0","12977","","null","","","null","16","NaN","","","","","","","","","","","","","","",""
"","S2","","html-keyboard-response","107","175526","0.0-1.0-148.0","0","0","12977","","null","","","null","16","","NaN","","","","","","","","","","","","","",""
"","response","","html-keyboard-response","108","175753","0.0-1.0-149.0","0","0","12977","","223","","","75","16","","","1","16","training","adjacent","BA","2","1","L.jpg","O.jpg","1","0","0","",""
"","feedback","","html-keyboard-response","109","176761","0.0-1.0-150.0-0.0","0","0","12977","","null","","","null","16","","","","","","","","","","","","","","","",""
"","time_out","","html-keyboard-response","110","178768","0.0-1.0-152.0-0.0","0","0","12977","","null","","","null","16","","","","","","","","","","","","","","","",""
"","ITI","","html-keyboard-response","111","179773","0.0-1.0-153.0","0","0","12977","","null","","","null","16","","","","","","","","","","","","","","","NaN",""
"","S1","","html-keyboard-response","112","180032","0.0-1.0-155.0","0","0","12977","","null","","","null","17","","","","","","","","","","","","","","","",""
"","ISI","","html-keyboard-response","113","182042","0.0-1.0-156.0","0","0","12977","","null","","","null","17","NaN","","","","","","","","","","","","","","",""
"","S2","","html-keyboard-response","114","182298","0.0-1.0-157.0","0","0","12977","","null","","","null","17","","NaN","","","","","","","","","","","","","",""
"","response","","html-keyboard-response","115","182617","0.0-1.0-158.0","0","0","12977","","314","","","68","17","","","1","17","training","adjacent","FE","6","5","P.jpg","M.jpg","0","0","1","",""
"","feedback","","html-keyboard-response","116","183626","0.0-1.0-159.0-0.0","0","0","12977","","null","","","null","17","","","","","","","","","","","","","","","",""
"","ITI","","html-keyboard-response","117","184634","0.0-1.0-162.0","0","0","12977","","null","","","null","17","","","","","","","","","","","","","","","NaN",""
"","S1","","html-keyboard-response","118","184890","0.0-1.0-164.0","0","0","12977","","null","","","null","18","","","","","","","","","","","","","","","",""
"","ISI","","html-keyboard-response","119","186896","0.0-1.0-165.0","0","0","12977","","null","","","null","18","NaN","","","","","","","","","","","","","","",""
"","S2","","html-keyboard-response","120","187152","0.0-1.0-166.0","0","0","12977","","null","","","null","18","","NaN","","","","","","","","","","","","","",""
"","response","","html-keyboard-response","121","187538","0.0-1.0-167.0","0","0","12977","","382","","","68","18","","","1","18","training","adjacent","BC","2","3","L.jpg","Q.jpg","0","1","0","",""
"","feedback","","html-keyboard-response","122","188544","0.0-1.0-168.0-0.0","0","0","12977","","null","","","null","18","","","","","","","","","","","","","","","",""
"","time_out","","html-keyboard-response","123","190549","0.0-1.0-170.0-0.0","0","0","12977","","null","","","null","18","","","","","","","","","","","","","","","",""
"","ITI","","html-keyboard-response","124","191557","0.0-1.0-171.0","0","0","12977","","null","","","null","18","","","","","","","","","","","","","","","NaN",""
"","S1","","html-keyboard-response","125","191813","0.0-1.0-173.0","0","0","12977","","null","","","null","19","","","","","","","","","","","","","","","",""
"","ISI","","html-keyboard-response","126","193818","0.0-1.0-174.0","0","0","12977","","null","","","null","19","NaN","","","","","","","","","","","","","","",""
"","S2","","html-keyboard-response","127","194074","0.0-1.0-175.0","0","0","12977","","null","","","null","19","","NaN","","","","","","","","","","","","","",""
"","response","","html-keyboard-response","128","194390","0.0-1.0-176.0","0","0","12977","","312","","","75","19","","","1","19","training","adjacent","ED","5","4","M.jpg","N.jpg","1","0","0","",""
"","feedback","","html-keyboard-response","129","195397","0.0-1.0-177.0-0.0","0","0","12977","","null","","","null","19","","","","","","","","","","","","","","","",""
"","time_out","","html-keyboard-response","130","197402","0.0-1.0-179.0-0.0","0","0","12977","","null","","","null","19","","","","","","","","","","","","","","","",""
"","ITI","","html-keyboard-response","131","198410","0.0-1.0-180.0","0","0","12977","","null","","","null","19","","","","","","","","","","","","","","","NaN",""
"","S1","","html-keyboard-response","132","198666","0.0-1.0-182.0","0","0","12977","","null","","","null","20","","","","","","","","","","","","","","","",""
"","ISI","","html-keyboard-response","133","200671","0.0-1.0-183.0","0","0","12977","","null","","","null","20","NaN","","","","","","","","","","","","","","",""
"","S2","","html-keyboard-response","134","200927","0.0-1.0-184.0","0","0","12977","","null","","","null","20","","NaN","","","","","","","","","","","","","",""
"","response","","html-keyboard-response","135","201051","0.0-1.0-185.0","0","0","12977","","119","","","75","20","","","1","20","training","adjacent","BC","2","3","L.jpg","Q.jpg","1","1","1","",""
"","feedback","","html-keyboard-response","136","202058","0.0-1.0-186.0-0.0","0","0","12977","","null","","","null","20","","","","","","","","","","","","","","","",""
"","ITI","","html-keyboard-response","137","203066","0.0-1.0-189.0","0","0","12977","","null","","","null","20","","","","","","","","","","","","","","","NaN",""
"","S1","","html-keyboard-response","138","203322","0.0-1.0-191.0","0","0","12977","","null","","","null","21","","","","","","","","","","","","","","","",""
"","ISI","","html-keyboard-response","139","205327","0.0-1.0-192.0","0","0","12977","","null","","","null","21","NaN","","","","","","","","","","","","","","",""
"","S2","","html-keyboard-response","140","205583","0.0-1.0-193.0","0","0","12977","","null","","","null","21","","NaN","","","","","","","","","","","","","",""
"","response","","html-keyboard-response","141","205898","0.0-1.0-194.0","0","0","12977","","310","","","75","21","","","1","21","training","adjacent","CD","3","4","Q.jpg","N.jpg","1","1","1","",""
"","feedback","","html-keyboard-response","142","206908","0.0-1.0-195.0-0.0","0","0","12977","","null","","","null","21","","","","","","","","","","","","","","","",""
"","ITI","","html-keyboard-response","143","207917","0.0-1.0-198.0","0","0","12977","","null","","","null","21","","","","","","","","","","","","","","","NaN",""
"","S1","","html-keyboard-response","144","208175","0.0-1.0-200.0","0","0","12977","","null","","","null","22","","","","","","","","","","","","","","","",""
"","ISI","","html-keyboard-response","145","210180","0.0-1.0-201.0","0","0","12977","","null","","","null","22","NaN","","","","","","","","","","","","","","",""
"","S2","","html-keyboard-response","146","210437","0.0-1.0-202.0","0","0","12977","","null","","","null","22","","NaN","","","","","","","","","","","","","",""
"","response","","html-keyboard-response","147","210659","0.0-1.0-203.0","0","0","12977","","219","","","75","22","","","1","22","training","adjacent","DE","4","5","N.jpg","M.jpg","1","1","1","",""
"","feedback","","html-keyboard-response","148","211669","0.0-1.0-204.0-0.0","0","0","12977","","null","","","null","22","","","","","","","","","","","","","","","",""
"","ITI","","html-keyboard-response","149","212677","0.0-1.0-207.0","0","0","12977","","null","","","null","22","","","","","","","","","","","","","","","NaN",""
"","S1","","html-keyboard-response","150","212933","0.0-1.0-209.0","0","0","12977","","null","","","null","23","","","","","","","","","","","","","","","",""
"","ISI","","html-keyboard-response","151","214938","0.0-1.0-210.0","0","0","12977","","null","","","null","23","NaN","","","","","","","","","","","","","","",""
"","S2","","html-keyboard-response","152","215194","0.0-1.0-211.0","0","0","12977","","null","","","null","23","","NaN","","","","","","","","","","","","","",""
"","response","","html-keyboard-response","153","216008","0.0-1.0-212.0","0","0","12977","","809","","","68","23","","","1","23","training","adjacent","FG","6","7","P.jpg","R.jpg","0","1","0","",""
"","feedback","","html-keyboard-response","154","217018","0.0-1.0-213.0-0.0","0","0","12977","","null","","","null","23","","","","","","","","","","","","","","","",""
"","time_out","","html-keyboard-response","155","219023","0.0-1.0-215.0-0.0","0","0","12977","","null","","","null","23","","","","","","","","","","","","","","","",""
"","ITI","","html-keyboard-response","156","220031","0.0-1.0-216.0","0","0","12977","","null","","","null","23","","","","","","","","","","","","","","","NaN",""
"","S1","","html-keyboard-response","157","220291","0.0-1.0-218.0","0","0","12977","","null","","","null","24","","","","","","","","","","","","","","","",""
"","ISI","","html-keyboard-response","158","222298","0.0-1.0-219.0","0","0","12977","","null","","","null","24","NaN","","","","","","","","","","","","","","",""
"","S2","","html-keyboard-response","159","222554","0.0-1.0-220.0","0","0","12977","","null","","","null","24","","NaN","","","","","","","","","","","","","",""
"","response","","html-keyboard-response","160","222708","0.0-1.0-221.0","0","0","12977","","149","","","75","24","","","1","24","training","adjacent","AB","1","2","O.jpg","L.jpg","1","1","1","",""
"","feedback","","html-keyboard-response","161","223717","0.0-1.0-222.0-0.0","0","0","12977","","null","","","null","24","","","","","","","","","","","","","","","",""
"","ITI","","html-keyboard-response","162","224724","0.0-1.0-225.0","0","0","12977","","null","","","null","24","","","","","","","","","","","","","","","NaN",""
"","S1","","html-keyboard-response","163","224980","0.0-1.0-227.0","0","0","12977","","null","","","null","25","","","","","","","","","","","","","","","",""
"","ISI","","html-keyboard-response","164","226986","0.0-1.0-228.0","0","0","12977","","null","","","null","25","NaN","","","","","","","","","","","","","","",""
"","S2","","html-keyboard-response","165","227242","0.0-1.0-229.0","0","0","12977","","null","","","null","25","","NaN","","","","","","","","","","","","","",""
"","response","","html-keyboard-response","166","227549","0.0-1.0-230.0","0","0","12977","","303","","","68","25","","","1","25","training","adjacent","DE","4","5","N.jpg","M.jpg","0","1","0","",""
"","feedback","","html-keyboard-response","167","228556","0.0-1.0-231.0-0.0","0","0","12977","","null","","","null","25","","","","","","","","","","","","","","","",""
"","time_out","","html-keyboard-response","168","230563","0.0-1.0-233.0-0.0","0","0","12977","","null","","","null","25","","","","","","","","","","","","","","","",""
"","ITI","","html-keyboard-response","169","231572","0.0-1.0-234.0","0","0","12977","","null","","","null","25","","","","","","","","","","","","","","","NaN",""
"","S1","","html-keyboard-response","170","231830","0.0-1.0-236.0","0","0","12977","","null","","","null","26","","","","","","","","","","","","","","","",""
"","ISI","","html-keyboard-response","171","233839","0.0-1.0-237.0","0","0","12977","","1245","","","75","26","k","","","","","","","","","","","","","","",""
"","S2","","html-keyboard-response","172","234095","0.0-1.0-238.0","0","0","12977","","null","","","null","26","","NaN","","","","","","","","","","","","","",""
"","response","","html-keyboard-response","173","234590","0.0-1.0-239.0","0","0","12977","","492","","","75","26","","","1","26","training","adjacent","AB","1","2","O.jpg","L.jpg","1","1","1","",""
"","feedback","","html-keyboard-response","174","235599","0.0-1.0-240.0-0.0","0","0","12977","","null","","","null","26","","","","","","","","","","","","","","","",""
"","ITI","","html-keyboard-response","175","236607","0.0-1.0-243.0","0","0","12977","","null","","","null","26","","","","","","","","","","","","","","","NaN",""
"","S1","","html-keyboard-response","176","236863","0.0-1.0-245.0","0","0","12977","","null","","","null","27","","","","","","","","","","","","","","","",""
"","ISI","","html-keyboard-response","177","238868","0.0-1.0-246.0","0","0","12977","","null","","","null","27","NaN","","","","","","","","","","","","","","",""
"","S2","","html-keyboard-response","178","239124","0.0-1.0-247.0","0","0","12977","","null","","","null","27","","NaN","","","","","","","","","","","","","",""
"","response","","html-keyboard-response","179","239476","0.0-1.0-248.0","0","0","12977","","348","","","75","27","","","1","27","training","adjacent","CB","3","2","Q.jpg","L.jpg","1","0","0","",""
"","feedback","","html-keyboard-response","180","240483","0.0-1.0-249.0-0.0","0","0","12977","","null","","","null","27","","","","","","","","","","","","","","","",""
"","time_out","","html-keyboard-response","181","242489","0.0-1.0-251.0-0.0","0","0","12977","","null","","","null","27","","","","","","","","","","","","","","","",""
"","ITI","","html-keyboard-response","182","243497","0.0-1.0-252.0","0","0","12977","","null","","","null","27","","","","","","","","","","","","","","","NaN",""
"","S1","","html-keyboard-response","183","243753","0.0-1.0-254.0","0","0","12977","","null","","","null","28","","","","","","","","","","","","","","","",""
"","ISI","","html-keyboard-response","184","245759","0.0-1.0-255.0","0","0","12977","","null","","","null","28","NaN","","","","","","","","","","","","","","",""
"","S2","","html-keyboard-response","185","246016","0.0-1.0-256.0","0","0","12977","","null","","","null","28","","NaN","","","","","","","","","","","","","",""
"","response","","html-keyboard-response","186","246341","0.0-1.0-257.0","0","0","12977","","321","","","68","28","","","1","28","training","adjacent","CB","3","2","Q.jpg","L.jpg","0","0","1","",""
"","feedback","","html-keyboard-response","187","247348","0.0-1.0-258.0-0.0","0","0","12977","","null","","","null","28","","","","","","","","","","","","","","","",""
"","ITI","","html-keyboard-response","188","248356","0.0-1.0-261.0","0","0","12977","","null","","","null","28","","","","","","","","","","","","","","","NaN",""
"","S1","","html-keyboard-response","189","248615","0.0-1.0-263.0","0","0","12977","","null","","","null","29","","","","","","","","","","","","","","","",""
"","ISI","","html-keyboard-response","190","250623","0.0-1.0-264.0","0","0","12977","","null","","","null","29","NaN","","","","","","","","","","","","","","",""
"","S2","","html-keyboard-response","191","250881","0.0-1.0-265.0","0","0","12977","","null","","","null","29","","NaN","","","","","","","","","","","","","",""
"","response","","html-keyboard-response","192","251272","0.0-1.0-266.0","0","0","12977","","386","","","75","29","","","1","29","training","adjacent","DC","4","3","N.jpg","Q.jpg","1","0","0","",""
"","feedback","","html-keyboard-response","193","252279","0.0-1.0-267.0-0.0","0","0","12977","","null","","","null","29","","","","","","","","","","","","","","","",""
"","time_out","","html-keyboard-response","194","254287","0.0-1.0-269.0-0.0","0","0","12977","","null","","","null","29","","","","","","","","","","","","","","","",""
"","ITI","","html-keyboard-response","195","255295","0.0-1.0-270.0","0","0","12977","","null","","","null","29","","","","","","","","","","","","","","","NaN",""
"","S1","","html-keyboard-response","196","255551","0.0-1.0-272.0","0","0","12977","","null","","","null","30","","","","","","","","","","","","","","","",""
"","ISI","","html-keyboard-response","197","257558","0.0-1.0-273.0","0","0","12977","","null","","","null","30","NaN","","","","","","","","","","","","","","",""
"","S2","","html-keyboard-response","198","257817","0.0-1.0-274.0","0","0","12977","","null","","","null","30","","NaN","","","","","","","","","","","","","",""
"","response","","html-keyboard-response","199","258131","0.0-1.0-275.0","0","0","12977","","310","","","68","30","","","1","30","training","adjacent","CB","3","2","Q.jpg","L.jpg","0","0","1","",""
"","feedback","","html-keyboard-response","200","259140","0.0-1.0-276.0-0.0","0","0","12977","","null","","","null","30","","","","","","","","","","","","","","","",""
"","ITI","","html-keyboard-response","201","260148","0.0-1.0-279.0","0","0","12977","","null","","","null","30","","","","","","","","","","","","","","","NaN",""
"","S1","","html-keyboard-response","202","260404","0.0-1.0-281.0","0","0","12977","","null","","","null","31","","","","","","","","","","","","","","","",""
"","ISI","","html-keyboard-response","203","262409","0.0-1.0-282.0","0","0","12977","","null","","","null","31","NaN","","","","","","","","","","","","","","",""
"","S2","","html-keyboard-response","204","262665","0.0-1.0-283.0","0","0","12977","","null","","","null","31","","NaN","","","","","","","","","","","","","",""
"","response","","html-keyboard-response","205","262893","0.0-1.0-284.0","0","0","12977","","224","","","75","31","","","1","31","training","adjacent","GF","7","6","R.jpg","P.jpg","1","0","0","",""
"","feedback","","html-keyboard-response","206","263899","0.0-1.0-285.0-0.0","0","0","12977","","null","","","null","31","","","","","","","","","","","","","","","",""
"","time_out","","html-keyboard-response","207","265907","0.0-1.0-287.0-0.0","0","0","12977","","null","","","null","31","","","","","","","","","","","","","","","",""
"","ITI","","html-keyboard-response","208","266916","0.0-1.0-288.0","0","0","12977","","null","","","null","31","","","","","","","","","","","","","","","NaN",""
"","S1","","html-keyboard-response","209","267172","0.0-1.0-290.0","0","0","12977","","null","","","null","32","","","","","","","","","","","","","","","",""
"","ISI","","html-keyboard-response","210","269180","0.0-1.0-291.0","0","0","12977","","null","","","null","32","NaN","","","","","","","","","","","","","","",""
"","S2","","html-keyboard-response","211","269438","0.0-1.0-292.0","0","0","12977","","null","","","null","32","","NaN","","","","","","","","","","","","","",""
"","response","","html-keyboard-response","212","269577","0.0-1.0-293.0","0","0","12977","","135","","","75","32","","","1","32","training","adjacent","AB","1","2","O.jpg","L.jpg","1","1","1","",""
"","feedback","","html-keyboard-response","213","270585","0.0-1.0-294.0-0.0","0","0","12977","","null","","","null","32","","","","","","","","","","","","","","","",""
"","ITI","","html-keyboard-response","214","271593","0.0-1.0-297.0","0","0","12977","","null","","","null","32","","","","","","","","","","","","","","","NaN",""
"","S1","","html-keyboard-response","215","271849","0.0-1.0-299.0","0","0","12977","","null","","","null","33","","","","","","","","","","","","","","","",""
"","ISI","","html-keyboard-response","216","273853","0.0-1.0-300.0","0","0","12977","","null","","","null","33","NaN","","","","","","","","","","","","","","",""
"","S2","","html-keyboard-response","217","274110","0.0-1.0-301.0","0","0","12977","","null","","","null","33","","NaN","","","","","","","","","","","","","",""
"","response","","html-keyboard-response","218","274332","0.0-1.0-302.0","0","0","12977","","217","","","68","33","","","1","33","training","adjacent","ED","5","4","M.jpg","N.jpg","0","0","1","",""
"","feedback","","html-keyboard-response","219","275337","0.0-1.0-303.0-0.0","0","0","12977","","null","","","null","33","","","","","","","","","","","","","","","",""
"","ITI","","html-keyboard-response","220","276345","0.0-1.0-306.0","0","0","12977","","null","","","null","33","","","","","","","","","","","","","","","NaN",""
"","S1","","html-keyboard-response","221","276601","0.0-1.0-308.0","0","0","12977","","null","","","null","34","","","","","","","","","","","","","","","",""
"","ISI","","html-keyboard-response","222","278608","0.0-1.0-309.0","0","0","12977","","null","","","null","34","NaN","","","","","","","","","","","","","","",""
"","S2","","html-keyboard-response","223","278867","0.0-1.0-310.0","0","0","12977","","null","","","null","34","","NaN","","","","","","","","","","","","","",""
"","response","","html-keyboard-response","224","279183","0.0-1.0-311.0","0","0","12977","","312","","","68","34","","","1","34","training","adjacent","BA","2","1","L.jpg","O.jpg","0","0","1","",""
"","feedback","","html-keyboard-response","225","280190","0.0-1.0-312.0-0.0","0","0","12977","","null","","","null","34","","","","","","","","","","","","","","","",""
"","ITI","","html-keyboard-response","226","281198","0.0-1.0-315.0","0","0","12977","","null","","","null","34","","","","","","","","","","","","","","","NaN",""
"","S1","","html-keyboard-response","227","281454","0.0-1.0-317.0","0","0","12977","","null","","","null","35","","","","","","","","","","","","","","","",""
"","ISI","","html-keyboard-response","228","283460","0.0-1.0-318.0","0","0","12977","","null","","","null","35","NaN","","","","","","","","","","","","","","",""
"","S2","","html-keyboard-response","229","283715","0.0-1.0-319.0","0","0","12977","","null","","","null","35","","NaN","","","","","","","","","","","","","",""
"","response","","html-keyboard-response","230","283804","0.0-1.0-320.0","0","0","12977","","85","","","75","35","","","1","35","training","adjacent","EF","5","6","M.jpg","P.jpg","1","1","1","",""
"","feedback","","html-keyboard-response","231","284811","0.0-1.0-321.0-0.0","0","0","12977","","null","","","null","35","","","","","","","","","","","","","","","",""
"","ITI","","html-keyboard-response","232","285817","0.0-1.0-324.0","0","0","12977","","null","","","null","35","","","","","","","","","","","","","","","NaN",""
"","S1","","html-keyboard-response","233","286075","0.0-1.0-326.0","0","0","12977","","null","","","null","36","","","","","","","","","","","","","","","",""
"","ISI","","html-keyboard-response","234","288084","0.0-1.0-327.0","0","0","12977","","null","","","null","36","NaN","","","","","","","","","","","","","","",""
"","S2","","html-keyboard-response","235","288340","0.0-1.0-328.0","0","0","12977","","null","","","null","36","","NaN","","","","","","","","","","","","","",""
"","response","","html-keyboard-response","236","288871","0.0-1.0-329.0","0","0","12977","","527","","","68","36","","","1","36","training","adjacent","BA","2","1","L.jpg","O.jpg","0","0","1","",""
"","feedback","","html-keyboard-response","237","289880","0.0-1.0-330.0-0.0","0","0","12977","","null","","","null","36","","","","","","","","","","","","","","","",""
"","ITI","","html-keyboard-response","238","290889","0.0-1.0-333.0","0","0","12977","","null","","","null","36","","","","","","","","","","","","","","","NaN",""
"","S1","","html-keyboard-response","239","291145","0.0-1.0-335.0","0","0","12977","","null","","","null","37","","","","","","","","","","","","","","","",""
"","ISI","","html-keyboard-response","240","293150","0.0-1.0-336.0","0","0","12977","","null","","","null","37","NaN","","","","","","","","","","","","","","",""
"","S2","","html-keyboard-response","241","293408","0.0-1.0-337.0","0","0","12977","","null","","","null","37","","NaN","","","","","","","","","","","","","",""
"","response","","html-keyboard-response","242","293714","0.0-1.0-338.0","0","0","12977","","302","","","75","37","","","1","37","training","adjacent","DC","4","3","N.jpg","Q.jpg","1","0","0","",""
"","feedback","","html-keyboard-response","243","294722","0.0-1.0-339.0-0.0","0","0","12977","","null","","","null","37","","","","","","","","","","","","","","","",""
"","time_out","","html-keyboard-response","244","296729","0.0-1.0-341.0-0.0","0","0","12977","","null","","","null","37","","","","","","","","","","","","","","","",""
"","ITI","","html-keyboard-response","245","297737","0.0-1.0-342.0","0","0","12977","","null","","","null","37","","","","","","","","","","","","","","","NaN",""
"","S1","","html-keyboard-response","246","297993","0.0-1.0-344.0","0","0","12977","","null","","","null","38","","","","","","","","","","","","","","","",""
"","ISI","","html-keyboard-response","247","299999","0.0-1.0-345.0","0","0","12977","","601","","","75","38","k","","","","","","","","","","","","","","",""
"","S2","","html-keyboard-response","248","300258","0.0-1.0-346.0","0","0","12977","","null","","","null","38","","NaN","","","","","","","","","","","","","",""
"","response","","html-keyboard-response","249","300940","0.0-1.0-347.0","0","0","12977","","678","","","75","38","","","1","38","training","adjacent","EF","5","6","M.jpg","P.jpg","1","1","1","",""
"","feedback","","html-keyboard-response","250","301950","0.0-1.0-348.0-0.0","0","0","12977","","null","","","null","38","","","","","","","","","","","","","","","",""
"","ITI","","html-keyboard-response","251","302957","0.0-1.0-351.0","0","0","12977","","null","","","null","38","","","","","","","","","","","","","","","NaN",""
"","S1","","html-keyboard-response","252","303214","0.0-1.0-353.0","0","0","12977","","null","","","null","39","","","","","","","","","","","","","","","",""
"","ISI","","html-keyboard-response","253","305219","0.0-1.0-354.0","0","0","12977","","null","","","null","39","NaN","","","","","","","","","","","","","","",""
"","S2","","html-keyboard-response","254","305475","0.0-1.0-355.0","0","0","12977","","null","","","null","39","","NaN","","","","","","","","","","","","","",""
"","response","","html-keyboard-response","255","306276","0.0-1.0-356.0","0","0","12977","","797","","","75","39","","","1","39","training","adjacent","CD","3","4","Q.jpg","N.jpg","1","1","1","",""
"","feedback","","html-keyboard-response","256","307283","0.0-1.0-357.0-0.0","0","0","12977","","null","","","null","39","","","","","","","","","","","","","","","",""
"","ITI","","html-keyboard-response","257","308291","0.0-1.0-360.0","0","0","12977","","null","","","null","39","","","","","","","","","","","","","","","NaN",""
"","S1","","html-keyboard-response","258","308547","0.0-1.0-362.0","0","0","12977","","null","","","null","40","","","","","","","","","","","","","","","",""
"","ISI","","html-keyboard-response","259","310553","0.0-1.0-363.0","0","0","12977","","73","","","75","40","k","","","","","","","","","","","","","","",""
"","S2","","html-keyboard-response","260","310809","0.0-1.0-364.0","0","0","12977","","null","","","null","40","","NaN","","","","","","","","","","","","","",""
"","response","","html-keyboard-response","261","311272","0.0-1.0-365.0","0","0","12977","","460","","","68","40","","","1","40","training","adjacent","GF","7","6","R.jpg","P.jpg","0","0","1","",""
"","feedback","","html-keyboard-response","262","312280","0.0-1.0-366.0-0.0","0","0","12977","","null","","","null","40","","","","","","","","","","","","","","","",""
"","ITI","","html-keyboard-response","263","313288","0.0-1.0-369.0","0","0","12977","","null","","","null","40","","","","","","","","","","","","","","","NaN",""
"","S1","","html-keyboard-response","264","313545","0.0-1.0-371.0","0","0","12977","","null","","","null","41","","","","","","","","","","","","","","","",""
"","ISI","","html-keyboard-response","265","315552","0.0-1.0-372.0","0","0","12977","","null","","","null","41","NaN","","","","","","","","","","","","","","",""
"","S2","","html-keyboard-response","266","315811","0.0-1.0-373.0","0","0","12977","","null","","","null","41","","NaN","","","","","","","","","","","","","",""
"","response","","html-keyboard-response","267","316257","0.0-1.0-374.0","0","0","12977","","442","","","68","41","","","1","41","training","adjacent","DC","4","3","N.jpg","Q.jpg","0","0","1","",""
"","feedback","","html-keyboard-response","268","317267","0.0-1.0-375.0-0.0","0","0","12977","","null","","","null","41","","","","","","","","","","","","","","","",""
"","ITI","","html-keyboard-response","269","318275","0.0-1.0-378.0","0","0","12977","","null","","","null","41","","","","","","","","","","","","","","","NaN",""
"","S1","","html-keyboard-response","270","318533","0.0-1.0-380.0","0","0","12977","","null","","","null","42","","","","","","","","","","","","","","","",""
"","ISI","","html-keyboard-response","271","320542","0.0-1.0-381.0","0","0","12977","","null","","","null","42","NaN","","","","","","","","","","","","","","",""
"","S2","","html-keyboard-response","272","320798","0.0-1.0-382.0","0","0","12977","","null","","","null","42","","NaN","","","","","","","","","","","","","",""
"","response","","html-keyboard-response","273","320855","0.0-1.0-383.0","0","0","12977","","53","","","75","42","","","1","42","training","adjacent","FG","6","7","P.jpg","R.jpg","1","1","1","",""
"","feedback","","html-keyboard-response","274","321864","0.0-1.0-384.0-0.0","0","0","12977","","null","","","null","42","","","","","","","","","","","","","","","",""
"","ITI","","html-keyboard-response","275","322872","0.0-1.0-387.0","0","0","12977","","null","","","null","42","","","","","","","","","","","","","","","NaN",""
"","S1","","html-keyboard-response","276","323129","0.0-1.0-389.0","0","0","12977","","null","","","null","43","","","","","","","","","","","","","","","",""
"","ISI","","html-keyboard-response","277","325134","0.0-1.0-390.0","0","0","12977","","null","","","null","43","NaN","","","","","","","","","","","","","","",""
"","S2","","html-keyboard-response","278","325390","0.0-1.0-391.0","0","0","12977","","null","","","null","43","","NaN","","","","","","","","","","","","","",""
"","response","","html-keyboard-response","279","325460","0.0-1.0-392.0","0","0","12977","","66","","","68","43","","","1","43","training","adjacent","FG","6","7","P.jpg","R.jpg","0","1","0","",""
"","feedback","","html-keyboard-response","280","326467","0.0-1.0-393.0-0.0","0","0","12977","","null","","","null","43","","","","","","","","","","","","","","","",""
"","time_out","","html-keyboard-response","281","328474","0.0-1.0-395.0-0.0","0","0","12977","","null","","","null","43","","","","","","","","","","","","","","","",""
"","ITI","","html-keyboard-response","282","329480","0.0-1.0-396.0","0","0","12977","","null","","","null","43","","","","","","","","","","","","","","","NaN",""
"","S1","","html-keyboard-response","283","329736","0.0-1.0-398.0","0","0","12977","","null","","","null","44","","","","","","","","","","","","","","","",""
"","ISI","","html-keyboard-response","284","331742","0.0-1.0-399.0","0","0","12977","","404","","","75","44","k","","","","","","","","","","","","","","",""
"","S2","","html-keyboard-response","285","331998","0.0-1.0-400.0","0","0","12977","","null","","","null","44","","NaN","","","","","","","","","","","","","",""
"","response","","html-keyboard-response","286","332059","0.0-1.0-401.0","0","0","12977","","57","","","75","44","","","1","44","training","adjacent","ED","5","4","M.jpg","N.jpg","1","0","0","",""
"","feedback","","html-keyboard-response","287","333064","0.0-1.0-402.0-0.0","0","0","12977","","null","","","null","44","","","","","","","","","","","","","","","",""
"","time_out","","html-keyboard-response","288","335070","0.0-1.0-404.0-0.0","0","0","12977","","null","","","null","44","","","","","","","","","","","","","","","",""
"","ITI","","html-keyboard-response","289","336078","0.0-1.0-405.0","0","0","12977","","null","","","null","44","","","","","","","","","","","","","","","NaN",""
"","S1","","html-keyboard-response","290","336333","0.0-1.0-407.0","0","0","12977","","null","","","null","45","","","","","","","","","","","","","","","",""
"","ISI","","html-keyboard-response","291","338339","0.0-1.0-408.0","0","0","12977","","null","","","null","45","NaN","","","","","","","","","","","","","","",""
"","S2","","html-keyboard-response","292","338595","0.0-1.0-409.0","0","0","12977","","null","","","null","45","","NaN","","","","","","","","","","","","","",""
"","response","","html-keyboard-response","293","339279","0.0-1.0-410.0","0","0","12977","","680","","","68","45","","","1","45","training","adjacent","FG","6","7","P.jpg","R.jpg","0","1","0","",""
"","feedback","","html-keyboard-response","294","340286","0.0-1.0-411.0-0.0","0","0","12977","","null","","","null","45","","","","","","","","","","","","","","","",""
"","time_out","","html-keyboard-response","295","342291","0.0-1.0-413.0-0.0","0","0","12977","","null","","","null","45","","","","","","","","","","","","","","","",""
"","ITI","","html-keyboard-response","296","343299","0.0-1.0-414.0","0","0","12977","","null","","","null","45","","","","","","","","","","","","","","","NaN",""
"","S1","","html-keyboard-response","297","343555","0.0-1.0-416.0","0","0","12977","","null","","","null","46","","","","","","","","","","","","","","","",""
"","ISI","","html-keyboard-response","298","345563","0.0-1.0-417.0","0","0","12977","","null","","","null","46","NaN","","","","","","","","","","","","","","",""
"","S2","","html-keyboard-response","299","345822","0.0-1.0-418.0","0","0","12977","","null","","","null","46","","NaN","","","","","","","","","","","","","",""
"","response","","html-keyboard-response","300","345998","0.0-1.0-419.0","0","0","12977","","173","","","75","46","","","1","46","training","adjacent","GF","7","6","R.jpg","P.jpg","1","0","0","",""
"","feedback","","html-keyboard-response","301","347006","0.0-1.0-420.0-0.0","0","0","12977","","null","","","null","46","","","","","","","","","","","","","","","",""
"","time_out","","html-keyboard-response","302","349011","0.0-1.0-422.0-0.0","0","0","12977","","null","","","null","46","","","","","","","","","","","","","","","",""
"","ITI","","html-keyboard-response","303","350019","0.0-1.0-423.0","0","0","12977","","null","","","null","46","","","","","","","","","","","","","","","NaN",""
"","S1","","html-keyboard-response","304","350274","0.0-1.0-425.0","0","0","12977","","null","","","null","47","","","","","","","","","","","","","","","",""
"","ISI","","html-keyboard-response","305","352283","0.0-1.0-426.0","0","0","12977","","null","","","null","47","NaN","","","","","","","","","","","","","","",""
"","S2","","html-keyboard-response","306","352542","0.0-1.0-427.0","0","0","12977","","null","","","null","47","","NaN","","","","","","","","","","","","","",""
"","response","","html-keyboard-response","307","353330","0.0-1.0-428.0","0","0","12977","","783","","","68","47","","","1","47","training","adjacent","DC","4","3","N.jpg","Q.jpg","0","0","1","",""
"","feedback","","html-keyboard-response","308","354339","0.0-1.0-429.0-0.0","0","0","12977","","null","","","null","47","","","","","","","","","","","","","","","",""
"","ITI","","html-keyboard-response","309","355347","0.0-1.0-432.0","0","0","12977","","null","","","null","47","","","","","","","","","","","","","","","NaN",""
"","block_over","","html-keyboard-response","310","361699","0.0-1.0-433.0-0.0","0","0","12977","","6347","","","32","47","","","","","","","","","","","","","","","",""
"","S1","","html-keyboard-response","311","361955","0.0-1.0-434.0","0","0","12977","","null","","","null","48","","","","","","","","","","","","","","","",""
"","ISI","","html-keyboard-response","312","363960","0.0-1.0-435.0","0","0","12977","","null","","","null","48","NaN","","","","","","","","","","","","","","",""
"","S2","","html-keyboard-response","313","364218","0.0-1.0-436.0","0","0","12977","","null","","","null","48","","NaN","","","","","","","","","","","","","",""
"","response","","html-keyboard-response","314","364634","0.0-1.0-437.0","0","0","12977","","412","","","68","48","","","2","48","training","adjacent","DE","4","5","N.jpg","M.jpg","0","1","0","",""
"","feedback","","html-keyboard-response","315","365640","0.0-1.0-438.0-0.0","0","0","12977","","null","","","null","48","","","","","","","","","","","","","","","",""
"","time_out","","html-keyboard-response","316","367645","0.0-1.0-440.0-0.0","0","0","12977","","null","","","null","48","","","","","","","","","","","","","","","",""
"","ITI","","html-keyboard-response","317","368653","0.0-1.0-441.0","0","0","12977","","null","","","null","48","","","","","","","","","","","","","","","NaN",""
"","S1","","html-keyboard-response","318","368909","0.0-1.0-443.0","0","0","12977","","null","","","null","49","","","","","","","","","","","","","","","",""
"","ISI","","html-keyboard-response","319","370915","0.0-1.0-444.0","0","0","12977","","1539","","","75","49","k","","","","","","","","","","","","","","",""
"","S2","","html-keyboard-response","320","371168","0.0-1.0-445.0","0","0","12977","","205","","","75","49","","k","","","","","","","","","","","","","",""
"","response","","html-keyboard-response","321","371651","0.0-1.0-446.0","0","0","12977","","479","","","75","49","","","2","49","training","adjacent","DC","4","3","N.jpg","Q.jpg","1","0","0","",""
"","feedback","","html-keyboard-response","322","372658","0.0-1.0-447.0-0.0","0","0","12977","","null","","","null","49","","","","","","","","","","","","","","","",""
"","time_out","","html-keyboard-response","323","374666","0.0-1.0-449.0-0.0","0","0","12977","","null","","","null","49","","","","","","","","","","","","","","","",""
"","ITI","","html-keyboard-response","324","375672","0.0-1.0-450.0","0","0","12977","","null","","","null","49","","","","","","","","","","","","","","","NaN",""
"","S1","","html-keyboard-response","325","375928","0.0-1.0-452.0","0","0","12977","","null","","","null","50","","","","","","","","","","","","","","","",""
"","ISI","","html-keyboard-response","326","377933","0.0-1.0-453.0","0","0","12977","","null","","","null","50","NaN","","","","","","","","","","","","","","",""
"","S2","","html-keyboard-response","327","378189","0.0-1.0-454.0","0","0","12977","","null","","","null","50","","NaN","","","","","","","","","","","","","",""
"","response","","html-keyboard-response","328","378433","0.0-1.0-455.0","0","0","12977","","240","","","68","50","","","2","50","training","adjacent","ED","5","4","M.jpg","N.jpg","0","0","1","",""
"","feedback","","html-keyboard-response","329","379442","0.0-1.0-456.0-0.0","0","0","12977","","null","","","null","50","","","","","","","","","","","","","","","",""
"","ITI","","html-keyboard-response","330","380451","0.0-1.0-459.0","0","0","12977","","null","","","null","50","","","","","","","","","","","","","","","NaN",""
"","S1","","html-keyboard-response","331","380709","0.0-1.0-461.0","0","0","12977","","null","","","null","51","","","","","","","","","","","","","","","",""
"","ISI","","html-keyboard-response","332","382717","0.0-1.0-462.0","0","0","12977","","null","","","null","51","NaN","","","","","","","","","","","","","","",""
"","S2","","html-keyboard-response","333","382973","0.0-1.0-463.0","0","0","12977","","null","","","null","51","","NaN","","","","","","","","","","","","","",""
"","response","","html-keyboard-response","334","383708","0.0-1.0-464.0","0","0","12977","","730","","","68","51","","","2","51","training","adjacent","FE","6","5","P.jpg","M.jpg","0","0","1","",""
"","feedback","","html-keyboard-response","335","384717","0.0-1.0-465.0-0.0","0","0","12977","","null","","","null","51","","","","","","","","","","","","","","","",""
"","ITI","","html-keyboard-response","336","385725","0.0-1.0-468.0","0","0","12977","","null","","","null","51","","","","","","","","","","","","","","","NaN",""
"","S1","","html-keyboard-response","337","385982","0.0-1.0-470.0","0","0","12977","","null","","","null","52","","","","","","","","","","","","","","","",""
"","ISI","","html-keyboard-response","338","387986","0.0-1.0-471.0","0","0","12977","","null","","","null","52","NaN","","","","","","","","","","","","","","",""
"","S2","","html-keyboard-response","339","388242","0.0-1.0-472.0","0","0","12977","","null","","","null","52","","NaN","","","","","","","","","","","","","",""
"","response","","html-keyboard-response","340","388788","0.0-1.0-473.0","0","0","12977","","542","","","75","52","","","2","52","training","adjacent","AB","1","2","O.jpg","L.jpg","1","1","1","",""
"","feedback","","html-keyboard-response","341","389793","0.0-1.0-474.0-0.0","0","0","12977","","null","","","null","52","","","","","","","","","","","","","","","",""
"","ITI","","html-keyboard-response","342","390797","0.0-1.0-477.0","0","0","12977","","null","","","null","52","","","","","","","","","","","","","","","NaN",""
"","S1","","html-keyboard-response","343","391053","0.0-1.0-479.0","0","0","12977","","null","","","null","53","","","","","","","","","","","","","","","",""
"","ISI","","html-keyboard-response","344","393057","0.0-1.0-480.0","0","0","12977","","null","","","null","53","NaN","","","","","","","","","","","","","","",""
"","S2","","html-keyboard-response","345","393314","0.0-1.0-481.0","0","0","12977","","null","","","null","53","","NaN","","","","","","","","","","","","","",""
"","response","","html-keyboard-response","346","393599","0.0-1.0-482.0","0","0","12977","","281","","","75","53","","","2","53","training","adjacent","GF","7","6","R.jpg","P.jpg","1","0","0","",""
"","feedback","","html-keyboard-response","347","394605","0.0-1.0-483.0-0.0","0","0","12977","","null","","","null","53","","","","","","","","","","","","","","","",""
"","time_out","","html-keyboard-response","348","396614","0.0-1.0-485.0-0.0","0","0","12977","","null","","","null","53","","","","","","","","","","","","","","","",""
"","ITI","","html-keyboard-response","349","397618","0.0-1.0-486.0","0","0","12977","","null","","","null","53","","","","","","","","","","","","","","","NaN",""
"","S1","","html-keyboard-response","350","397875","0.0-1.0-488.0","0","0","12977","","null","","","null","54","","","","","","","","","","","","","","","",""
"","ISI","","html-keyboard-response","351","399878","0.0-1.0-489.0","0","0","12977","","null","","","null","54","NaN","","","","","","","","","","","","","","",""
"","S2","","html-keyboard-response","352","400137","0.0-1.0-490.0","0","0","12977","","null","","","null","54","","NaN","","","","","","","","","","","","","",""
"","response","","html-keyboard-response","353","400592","0.0-1.0-491.0","0","0","12977","","450","","","75","54","","","2","54","training","adjacent","EF","5","6","M.jpg","P.jpg","1","1","1","",""
"","feedback","","html-keyboard-response","354","401597","0.0-1.0-492.0-0.0","0","0","12977","","null","","","null","54","","","","","","","","","","","","","","","",""
"","ITI","","html-keyboard-response","355","402605","0.0-1.0-495.0","0","0","12977","","null","","","null","54","","","","","","","","","","","","","","","NaN",""
"","S1","","html-keyboard-response","356","402861","0.0-1.0-497.0","0","0","12977","","null","","","null","55","","","","","","","","","","","","","","","",""
"","ISI","","html-keyboard-response","357","404866","0.0-1.0-498.0","0","0","12977","","null","","","null","55","NaN","","","","","","","","","","","","","","",""
"","S2","","html-keyboard-response","358","405125","0.0-1.0-499.0","0","0","12977","","null","","","null","55","","NaN","","","","","","","","","","","","","",""
"","response","","html-keyboard-response","359","405547","0.0-1.0-500.0","0","0","12977","","418","","","75","55","","","2","55","training","adjacent","BC","2","3","L.jpg","Q.jpg","1","1","1","",""
"","feedback","","html-keyboard-response","360","406557","0.0-1.0-501.0-0.0","0","0","12977","","null","","","null","55","","","","","","","","","","","","","","","",""
"","ITI","","html-keyboard-response","361","407565","0.0-1.0-504.0","0","0","12977","","null","","","null","55","","","","","","","","","","","","","","","NaN",""
"","S1","","html-keyboard-response","362","407821","0.0-1.0-506.0","0","0","12977","","null","","","null","56","","","","","","","","","","","","","","","",""
"","ISI","","html-keyboard-response","363","409826","0.0-1.0-507.0","0","0","12977","","null","","","null","56","NaN","","","","","","","","","","","","","","",""
"","S2","","html-keyboard-response","364","410082","0.0-1.0-508.0","0","0","12977","","null","","","null","56","","NaN","","","","","","","","","","","","","",""
"","response","","html-keyboard-response","365","410523","0.0-1.0-509.0","0","0","12977","","437","","","68","56","","","2","56","training","adjacent","GF","7","6","R.jpg","P.jpg","0","0","1","",""
"","feedback","","html-keyboard-response","366","411533","0.0-1.0-510.0-0.0","0","0","12977","","null","","","null","56","","","","","","","","","","","","","","","",""
"","ITI","","html-keyboard-response","367","412541","0.0-1.0-513.0","0","0","12977","","null","","","null","56","","","","","","","","","","","","","","","NaN",""
"","S1","","html-keyboard-response","368","412797","0.0-1.0-515.0","0","0","12977","","null","","","null","57","","","","","","","","","","","","","","","",""
"","ISI","","html-keyboard-response","369","414802","0.0-1.0-516.0","0","0","12977","","null","","","null","57","NaN","","","","","","","","","","","","","","",""
"","S2","","html-keyboard-response","370","415058","0.0-1.0-517.0","0","0","12977","","null","","","null","57","","NaN","","","","","","","","","","","","","",""
"","response","","html-keyboard-response","371","415427","0.0-1.0-518.0","0","0","12977","","365","","","75","57","","","2","57","training","adjacent","FG","6","7","P.jpg","R.jpg","1","1","1","",""
"","feedback","","html-keyboard-response","372","416434","0.0-1.0-519.0-0.0","0","0","12977","","null","","","null","57","","","","","","","","","","","","","","","",""
"","ITI","","html-keyboard-response","373","417442","0.0-1.0-522.0","0","0","12977","","null","","","null","57","","","","","","","","","","","","","","","NaN",""
"","S1","","html-keyboard-response","374","417698","0.0-1.0-524.0","0","0","12977","","null","","","null","58","","","","","","","","","","","","","","","",""
"","ISI","","html-keyboard-response","375","419703","0.0-1.0-525.0","0","0","12977","","null","","","null","58","NaN","","","","","","","","","","","","","","",""
"","S2","","html-keyboard-response","376","419959","0.0-1.0-526.0","0","0","12977","","null","","","null","58","","NaN","","","","","","","","","","","","","",""
"","response","","html-keyboard-response","377","420240","0.0-1.0-527.0","0","0","12977","","275","","","75","58","","","2","58","training","adjacent","CD","3","4","Q.jpg","N.jpg","1","1","1","",""
"","feedback","","html-keyboard-response","378","421245","0.0-1.0-528.0-0.0","0","0","12977","","null","","","null","58","","","","","","","","","","","","","","","",""
"","ITI","","html-keyboard-response","379","422253","0.0-1.0-531.0","0","0","12977","","null","","","null","58","","","","","","","","","","","","","","","NaN",""
"","S1","","html-keyboard-response","380","422509","0.0-1.0-533.0","0","0","12977","","null","","","null","59","","","","","","","","","","","","","","","",""
"","ISI","","html-keyboard-response","381","424514","0.0-1.0-534.0","0","0","12977","","null","","","null","59","NaN","","","","","","","","","","","","","","",""
"","S2","","html-keyboard-response","382","424770","0.0-1.0-535.0","0","0","12977","","null","","","null","59","","NaN","","","","","","","","","","","","","",""
"","response","","html-keyboard-response","383","425009","0.0-1.0-536.0","0","0","12977","","234","","","68","59","","","2","59","training","adjacent","AB","1","2","O.jpg","L.jpg","0","1","0","",""
"","feedback","","html-keyboard-response","384","426018","0.0-1.0-537.0-0.0","0","0","12977","","null","","","null","59","","","","","","","","","","","","","","","",""
"","time_out","","html-keyboard-response","385","428023","0.0-1.0-539.0-0.0","0","0","12977","","null","","","null","59","","","","","","","","","","","","","","","",""
"","ITI","","html-keyboard-response","386","429031","0.0-1.0-540.0","0","0","12977","","null","","","null","59","","","","","","","","","","","","","","","NaN",""
"","S1","","html-keyboard-response","387","429287","0.0-1.0-542.0","0","0","12977","","null","","","null","60","","","","","","","","","","","","","","","",""
"","ISI","","html-keyboard-response","388","431293","0.0-1.0-543.0","0","0","12977","","742","","","75","60","k","","","","","","","","","","","","","","",""
"","S2","","html-keyboard-response","389","431548","0.0-1.0-544.0","0","0","12977","","null","","","null","60","","NaN","","","","","","","","","","","","","",""
"","response","","html-keyboard-response","390","431553","0.0-1.0-545.0","0","0","12977","","2","","","75","60","","","2","60","training","adjacent","CB","3","2","Q.jpg","L.jpg","1","0","0","",""
"","feedback","","html-keyboard-response","391","432558","0.0-1.0-546.0-0.0","0","0","12977","","null","","","null","60","","","","","","","","","","","","","","","",""
"","time_out","","html-keyboard-response","392","434567","0.0-1.0-548.0-0.0","0","0","12977","","null","","","null","60","","","","","","","","","","","","","","","",""
"","ITI","","html-keyboard-response","393","435575","0.0-1.0-549.0","0","0","12977","","null","","","null","60","","","","","","","","","","","","","","","NaN",""
"","S1","","html-keyboard-response","394","435831","0.0-1.0-551.0","0","0","12977","","null","","","null","61","","","","","","","","","","","","","","","",""
"","ISI","","html-keyboard-response","395","437837","0.0-1.0-552.0","0","0","12977","","null","","","null","61","NaN","","","","","","","","","","","","","","",""
"","S2","","html-keyboard-response","396","438094","0.0-1.0-553.0","0","0","12977","","null","","","null","61","","NaN","","","","","","","","","","","","","",""
"","response","","html-keyboard-response","397","438464","0.0-1.0-554.0","0","0","12977","","366","","","68","61","","","2","61","training","adjacent","ED","5","4","M.jpg","N.jpg","0","0","1","",""
"","feedback","","html-keyboard-response","398","439474","0.0-1.0-555.0-0.0","0","0","12977","","null","","","null","61","","","","","","","","","","","","","","","",""
"","ITI","","html-keyboard-response","399","440482","0.0-1.0-558.0","0","0","12977","","null","","","null","61","","","","","","","","","","","","","","","NaN",""
"","S1","","html-keyboard-response","400","440738","0.0-1.0-560.0","0","0","12977","","null","","","null","62","","","","","","","","","","","","","","","",""
"","ISI","","html-keyboard-response","401","442743","0.0-1.0-561.0","0","0","12977","","null","","","null","62","NaN","","","","","","","","","","","","","","",""
"","S2","","html-keyboard-response","402","443000","0.0-1.0-562.0","0","0","12977","","null","","","null","62","","NaN","","","","","","","","","","","","","",""
"","response","","html-keyboard-response","403","443228","0.0-1.0-563.0","0","0","12977","","224","","","68","62","","","2","62","training","adjacent","FE","6","5","P.jpg","M.jpg","0","0","1","",""
"","feedback","","html-keyboard-response","404","444238","0.0-1.0-564.0-0.0","0","0","12977","","null","","","null","62","","","","","","","","","","","","","","","",""
"","ITI","","html-keyboard-response","405","445248","0.0-1.0-567.0","0","0","12977","","null","","","null","62","","","","","","","","","","","","","","","NaN",""
"","S1","","html-keyboard-response","406","445508","0.0-1.0-569.0","0","0","12977","","null","","","null","63","","","","","","","","","","","","","","","",""
"","ISI","","html-keyboard-response","407","447517","0.0-1.0-570.0","0","0","12977","","null","","","null","63","NaN","","","","","","","","","","","","","","",""
"","S2","","html-keyboard-response","408","447775","0.0-1.0-571.0","0","0","12977","","null","","","null","63","","NaN","","","","","","","","","","","","","",""
"","response","","html-keyboard-response","409","448116","0.0-1.0-572.0","0","0","12977","","337","","","75","63","","","2","63","training","adjacent","CB","3","2","Q.jpg","L.jpg","1","0","0","",""
"","feedback","","html-keyboard-response","410","449122","0.0-1.0-573.0-0.0","0","0","12977","","null","","","null","63","","","","","","","","","","","","","","","",""
"","time_out","","html-keyboard-response","411","451127","0.0-1.0-575.0-0.0","0","0","12977","","null","","","null","63","","","","","","","","","","","","","","","",""
"","ITI","","html-keyboard-response","412","452135","0.0-1.0-576.0","0","0","12977","","null","","","null","63","","","","","","","","","","","","","","","NaN",""
"","S1","","html-keyboard-response","413","452391","0.0-1.0-578.0","0","0","12977","","null","","","null","64","","","","","","","","","","","","","","","",""
"","ISI","","html-keyboard-response","414","454396","0.0-1.0-579.0","0","0","12977","","201","","","68","64","d","","","","","","","","","","","","","","",""
"","S2","","html-keyboard-response","415","454653","0.0-1.0-580.0","0","0","12977","","null","","","null","64","","NaN","","","","","","","","","","","","","",""
"","response","","html-keyboard-response","416","454655","0.0-1.0-581.0","0","0","12977","","0","","","68","64","","","2","64","training","adjacent","EF","5","6","M.jpg","P.jpg","0","1","0","",""
"","feedback","","html-keyboard-response","417","455661","0.0-1.0-582.0-0.0","0","0","12977","","null","","","null","64","","","","","","","","","","","","","","","",""
"","time_out","","html-keyboard-response","418","457667","0.0-1.0-584.0-0.0","0","0","12977","","null","","","null","64","","","","","","","","","","","","","","","",""
"","ITI","","html-keyboard-response","419","458676","0.0-1.0-585.0","0","0","12977","","null","","","null","64","","","","","","","","","","","","","","","NaN",""
"","S1","","html-keyboard-response","420","458935","0.0-1.0-587.0","0","0","12977","","null","","","null","65","","","","","","","","","","","","","","","",""
"","ISI","","html-keyboard-response","421","460940","0.0-1.0-588.0","0","0","12977","","null","","","null","65","NaN","","","","","","","","","","","","","","",""
"","S2","","html-keyboard-response","422","461201","0.0-1.0-589.0","0","0","12977","","null","","","null","65","","NaN","","","","","","","","","","","","","",""
"","response","","html-keyboard-response","423","461903","0.0-1.0-590.0","0","0","12977","","699","","","75","65","","","2","65","training","adjacent","BA","2","1","L.jpg","O.jpg","1","0","0","",""
"","feedback","","html-keyboard-response","424","462908","0.0-1.0-591.0-0.0","0","0","12977","","null","","","null","65","","","","","","","","","","","","","","","",""
"","time_out","","html-keyboard-response","425","464914","0.0-1.0-593.0-0.0","0","0","12977","","null","","","null","65","","","","","","","","","","","","","","","",""
"","ITI","","html-keyboard-response","426","465921","0.0-1.0-594.0","0","0","12977","","null","","","null","65","","","","","","","","","","","","","","","NaN",""
"","S1","","html-keyboard-response","427","466178","0.0-1.0-596.0","0","0","12977","","null","","","null","66","","","","","","","","","","","","","","","",""
"","ISI","","html-keyboard-response","428","468183","0.0-1.0-597.0","0","0","12977","","null","","","null","66","NaN","","","","","","","","","","","","","","",""
"","S2","","html-keyboard-response","429","468442","0.0-1.0-598.0","0","0","12977","","null","","","null","66","","NaN","","","","","","","","","","","","","",""
"","response","","html-keyboard-response","430","468598","0.0-1.0-599.0","0","0","12977","","151","","","68","66","","","2","66","training","adjacent","FE","6","5","P.jpg","M.jpg","0","0","1","",""
"","feedback","","html-keyboard-response","431","469607","0.0-1.0-600.0-0.0","0","0","12977","","null","","","null","66","","","","","","","","","","","","","","","",""
"","ITI","","html-keyboard-response","432","470615","0.0-1.0-603.0","0","0","12977","","null","","","null","66","","","","","","","","","","","","","","","NaN",""
"","S1","","html-keyboard-response","433","470874","0.0-1.0-605.0","0","0","12977","","null","","","null","67","","","","","","","","","","","","","","","",""
"","ISI","","html-keyboard-response","434","472882","0.0-1.0-606.0","0","0","12977","","null","","","null","67","NaN","","","","","","","","","","","","","","",""
"","S2","","html-keyboard-response","435","473138","0.0-1.0-607.0","0","0","12977","","null","","","null","67","","NaN","","","","","","","","","","","","","",""
"","response","","html-keyboard-response","436","473820","0.0-1.0-608.0","0","0","12977","","677","","","75","67","","","2","67","training","adjacent","DE","4","5","N.jpg","M.jpg","1","1","1","",""
"","feedback","","html-keyboard-response","437","474826","0.0-1.0-609.0-0.0","0","0","12977","","null","","","null","67","","","","","","","","","","","","","","","",""
"","ITI","","html-keyboard-response","438","475834","0.0-1.0-612.0","0","0","12977","","null","","","null","67","","","","","","","","","","","","","","","NaN",""
"","S1","","html-keyboard-response","439","476092","0.0-1.0-614.0","0","0","12977","","null","","","null","68","","","","","","","","","","","","","","","",""
"","ISI","","html-keyboard-response","440","478100","0.0-1.0-615.0","0","0","12977","","null","","","null","68","NaN","","","","","","","","","","","","","","",""
"","S2","","html-keyboard-response","441","478359","0.0-1.0-616.0","0","0","12977","","null","","","null","68","","NaN","","","","","","","","","","","","","",""
"","response","","html-keyboard-response","442","478703","0.0-1.0-617.0","0","0","12977","","340","","","68","68","","","2","68","training","adjacent","EF","5","6","M.jpg","P.jpg","0","1","0","",""
"","feedback","","html-keyboard-response","443","479708","0.0-1.0-618.0-0.0","0","0","12977","","null","","","null","68","","","","","","","","","","","","","","","",""
"","time_out","","html-keyboard-response","444","481714","0.0-1.0-620.0-0.0","0","0","12977","","null","","","null","68","","","","","","","","","","","","","","","",""
"","ITI","","html-keyboard-response","445","482721","0.0-1.0-621.0","0","0","12977","","null","","","null","68","","","","","","","","","","","","","","","NaN",""
"","S1","","html-keyboard-response","446","482980","0.0-1.0-623.0","0","0","12977","","null","","","null","69","","","","","","","","","","","","","","","",""
"","ISI","","html-keyboard-response","447","484988","0.0-1.0-624.0","0","0","12977","","null","","","null","69","NaN","","","","","","","","","","","","","","",""
"","S2","","html-keyboard-response","448","485244","0.0-1.0-625.0","0","0","12977","","null","","","null","69","","NaN","","","","","","","","","","","","","",""
"","response","","html-keyboard-response","449","485432","0.0-1.0-626.0","0","0","12977","","184","","","75","69","","","2","69","training","adjacent","FE","6","5","P.jpg","M.jpg","1","0","0","",""
"","feedback","","html-keyboard-response","450","486439","0.0-1.0-627.0-0.0","0","0","12977","","null","","","null","69","","","","","","","","","","","","","","","",""
"","time_out","","html-keyboard-response","451","488447","0.0-1.0-629.0-0.0","0","0","12977","","null","","","null","69","","","","","","","","","","","","","","","",""
"","ITI","","html-keyboard-response","452","489452","0.0-1.0-630.0","0","0","12977","","859","","","68","69","","","","","","","","","","","","","","","d",""
"","S1","","html-keyboard-response","453","489708","0.0-1.0-632.0","0","0","12977","","null","","","null","70","","","","","","","","","","","","","","","",""
"","ISI","","html-keyboard-response","454","491717","0.0-1.0-633.0","0","0","12977","","447","","","68","70","d","","","","","","","","","","","","","","",""
"","S2","","html-keyboard-response","455","491975","0.0-1.0-634.0","0","0","12977","","191","","","75","70","","k","","","","","","","","","","","","","",""
"","response","","html-keyboard-response","456","492418","0.0-1.0-635.0","0","0","12977","","438","","","75","70","","","2","70","training","adjacent","CD","3","4","Q.jpg","N.jpg","1","1","1","",""
"","feedback","","html-keyboard-response","457","493425","0.0-1.0-636.0-0.0","0","0","12977","","null","","","null","70","","","","","","","","","","","","","","","",""
"","ITI","","html-keyboard-response","458","494433","0.0-1.0-639.0","0","0","12977","","null","","","null","70","","","","","","","","","","","","","","","NaN",""
"","S1","","html-keyboard-response","459","494689","0.0-1.0-641.0","0","0","12977","","null","","","null","71","","","","","","","","","","","","","","","",""
"","ISI","","html-keyboard-response","460","496695","0.0-1.0-642.0","0","0","12977","","null","","","null","71","NaN","","","","","","","","","","","","","","",""
"","S2","","html-keyboard-response","461","496955","0.0-1.0-643.0","0","0","12977","","null","","","null","71","","NaN","","","","","","","","","","","","","",""
"","response","","html-keyboard-response","462","498961","0.0-1.0-644.0","0","0","12977","","null","","","null","71","","","2","71","training","adjacent","BC","2","3","L.jpg","Q.jpg","NaN","1","0","",""
"","too_slow_prompt","","html-keyboard-response","463","499969","0.0-1.0-646.0-0.0","1","0","12977","","null","","","null","","","","","","","","","","","","","","","","",""
"","time_out","","html-keyboard-response","464","501976","0.0-1.0-647.0-0.0","0","0","12977","","null","","","null","71","","","","","","","","","","","","","","","",""
"","ITI","","html-keyboard-response","465","502982","0.0-1.0-648.0","0","0","12977","","null","","","null","71","","","","","","","","","","","","","","","NaN",""
"","S1","","html-keyboard-response","466","503239","0.0-1.0-650.0","0","0","12977","","null","","","null","72","","","","","","","","","","","","","","","",""
"","ISI","","html-keyboard-response","467","505244","0.0-1.0-651.0","0","0","12977","","null","","","null","72","NaN","","","","","","","","","","","","","","",""
"","S2","","html-keyboard-response","468","505500","0.0-1.0-652.0","0","0","12977","","null","","","null","72","","NaN","","","","","","","","","","","","","",""
"","response","","html-keyboard-response","469","505979","0.0-1.0-653.0","0","0","12977","","474","","","68","72","","","2","72","training","adjacent","DC","4","3","N.jpg","Q.jpg","0","0","1","",""
"","feedback","","html-keyboard-response","470","506985","0.0-1.0-654.0-0.0","0","0","12977","","null","","","null","72","","","","","","","","","","","","","","","",""
"","ITI","","html-keyboard-response","471","507991","0.0-1.0-657.0","0","0","12977","","null","","","null","72","","","","","","","","","","","","","","","NaN",""
"","S1","","html-keyboard-response","472","508246","0.0-1.0-659.0","0","0","12977","","null","","","null","73","","","","","","","","","","","","","","","",""
"","ISI","","html-keyboard-response","473","510252","0.0-1.0-660.0","0","0","12977","","280","","","75","73","k","","","","","","","","","","","","","","",""
"","S2","","html-keyboard-response","474","510509","0.0-1.0-661.0","0","0","12977","","null","","","null","73","","NaN","","","","","","","","","","","","","",""
"","response","","html-keyboard-response","475","512519","0.0-1.0-662.0","0","0","12977","","null","","","null","73","","","2","73","training","adjacent","DC","4","3","N.jpg","Q.jpg","NaN","0","0","",""
"","too_slow_prompt","","html-keyboard-response","476","513526","0.0-1.0-664.0-0.0","1","0","12977","","null","","","null","","","","","","","","","","","","","","","","",""
"","time_out","","html-keyboard-response","477","515533","0.0-1.0-665.0-0.0","0","0","12977","","null","","","null","73","","","","","","","","","","","","","","","",""
"","ITI","","html-keyboard-response","478","516542","0.0-1.0-666.0","0","0","12977","","null","","","null","73","","","","","","","","","","","","","","","NaN",""
"","S1","","html-keyboard-response","479","516801","0.0-1.0-668.0","0","0","12977","","null","","","null","74","","","","","","","","","","","","","","","",""
"","ISI","","html-keyboard-response","480","518809","0.0-1.0-669.0","0","0","12977","","null","","","null","74","NaN","","","","","","","","","","","","","","",""
"","S2","","html-keyboard-response","481","519068","0.0-1.0-670.0","0","0","12977","","null","","","null","74","","NaN","","","","","","","","","","","","","",""
"","response","","html-keyboard-response","482","519567","0.0-1.0-671.0","0","0","12977","","494","","","68","74","","","2","74","training","adjacent","AB","1","2","O.jpg","L.jpg","0","1","0","",""
"","feedback","","html-keyboard-response","483","520576","0.0-1.0-672.0-0.0","0","0","12977","","null","","","null","74","","","","","","","","","","","","","","","",""
"","time_out","","html-keyboard-response","484","522584","0.0-1.0-674.0-0.0","0","0","12977","","null","","","null","74","","","","","","","","","","","","","","","",""
"","ITI","","html-keyboard-response","485","523592","0.0-1.0-675.0","0","0","12977","","null","","","null","74","","","","","","","","","","","","","","","NaN",""
"","S1","","html-keyboard-response","486","523852","0.0-1.0-677.0","0","0","12977","","null","","","null","75","","","","","","","","","","","","","","","",""
"","ISI","","html-keyboard-response","487","525859","0.0-1.0-678.0","0","0","12977","","null","","","null","75","NaN","","","","","","","","","","","","","","",""
"","S2","","html-keyboard-response","488","526118","0.0-1.0-679.0","0","0","12977","","null","","","null","75","","NaN","","","","","","","","","","","","","",""
"","response","","html-keyboard-response","489","526469","0.0-1.0-680.0","0","0","12977","","346","","","75","75","","","2","75","training","adjacent","EF","5","6","M.jpg","P.jpg","1","1","1","",""
"","feedback","","html-keyboard-response","490","527478","0.0-1.0-681.0-0.0","0","0","12977","","null","","","null","75","","","","","","","","","","","","","","","",""
"","ITI","","html-keyboard-response","491","528486","0.0-1.0-684.0","0","0","12977","","null","","","null","75","","","","","","","","","","","","","","","NaN",""
"","S1","","html-keyboard-response","492","528742","0.0-1.0-686.0","0","0","12977","","null","","","null","76","","","","","","","","","","","","","","","",""
"","ISI","","html-keyboard-response","493","530747","0.0-1.0-687.0","0","0","12977","","1605","","","75","76","k","","","","","","","","","","","","","","",""
"","S2","","html-keyboard-response","494","531004","0.0-1.0-688.0","0","0","12977","","null","","","null","76","","NaN","","","","","","","","","","","","","",""
"","response","","html-keyboard-response","495","531058","0.0-1.0-689.0","0","0","12977","","49","","","75","76","","","2","76","training","adjacent","ED","5","4","M.jpg","N.jpg","1","0","0","",""
"","feedback","","html-keyboard-response","496","532067","0.0-1.0-690.0-0.0","0","0","12977","","null","","","null","76","","","","","","","","","","","","","","","",""
"","time_out","","html-keyboard-response","497","534076","0.0-1.0-692.0-0.0","0","0","12977","","null","","","null","76","","","","","","","","","","","","","","","",""
"","ITI","","html-keyboard-response","498","535084","0.0-1.0-693.0","0","0","12977","","null","","","null","76","","","","","","","","","","","","","","","NaN",""
"","S1","","html-keyboard-response","499","535340","0.0-1.0-695.0","0","0","12977","","null","","","null","77","","","","","","","","","","","","","","","",""
"","ISI","","html-keyboard-response","500","537346","0.0-1.0-696.0","0","0","12977","","null","","","null","77","NaN","","","","","","","","","","","","","","",""
"","S2","","html-keyboard-response","501","537606","0.0-1.0-697.0","0","0","12977","","null","","","null","77","","NaN","","","","","","","","","","","","","",""
"","response","","html-keyboard-response","502","538046","0.0-1.0-698.0","0","0","12977","","436","","","68","77","","","2","77","training","adjacent","DC","4","3","N.jpg","Q.jpg","0","0","1","",""
"","feedback","","html-keyboard-response","503","539051","0.0-1.0-699.0-0.0","0","0","12977","","null","","","null","77","","","","","","","","","","","","","","","",""
"","ITI","","html-keyboard-response","504","540060","0.0-1.0-702.0","0","0","12977","","null","","","null","77","","","","","","","","","","","","","","","NaN",""
"","S1","","html-keyboard-response","505","540317","0.0-1.0-704.0","0","0","12977","","null","","","null","78","","","","","","","","","","","","","","","",""
"","ISI","","html-keyboard-response","506","542326","0.0-1.0-705.0","0","0","12977","","null","","","null","78","NaN","","","","","","","","","","","","","","",""
"","S2","","html-keyboard-response","507","542582","0.0-1.0-706.0","0","0","12977","","null","","","null","78","","NaN","","","","","","","","","","","","","",""
"","response","","html-keyboard-response","508","543065","0.0-1.0-707.0","0","0","12977","","479","","","68","78","","","2","78","training","adjacent","FG","6","7","P.jpg","R.jpg","0","1","0","",""
"","feedback","","html-keyboard-response","509","544070","0.0-1.0-708.0-0.0","0","0","12977","","null","","","null","78","","","","","","","","","","","","","","","",""
"","time_out","","html-keyboard-response","510","546079","0.0-1.0-710.0-0.0","0","0","12977","","null","","","null","78","","","","","","","","","","","","","","","",""
"","ITI","","html-keyboard-response","511","547089","0.0-1.0-711.0","0","0","12977","","null","","","null","78","","","","","","","","","","","","","","","NaN",""
"","S1","","html-keyboard-response","512","547345","0.0-1.0-713.0","0","0","12977","","null","","","null","79","","","","","","","","","","","","","","","",""
"","ISI","","html-keyboard-response","513","549351","0.0-1.0-714.0","0","0","12977","","null","","","null","79","NaN","","","","","","","","","","","","","","",""
"","S2","","html-keyboard-response","514","549611","0.0-1.0-715.0","0","0","12977","","null","","","null","79","","NaN","","","","","","","","","","","","","",""
"","response","","html-keyboard-response","515","549915","0.0-1.0-716.0","0","0","12977","","299","","","68","79","","","2","79","training","adjacent","GF","7","6","R.jpg","P.jpg","0","0","1","",""
"","feedback","","html-keyboard-response","516","550924","0.0-1.0-717.0-0.0","0","0","12977","","null","","","null","79","","","","","","","","","","","","","","","",""
"","ITI","","html-keyboard-response","517","551933","0.0-1.0-720.0","0","0","12977","","null","","","null","79","","","","","","","","","","","","","","","NaN",""
"","S1","","html-keyboard-response","518","552192","0.0-1.0-722.0","0","0","12977","","null","","","null","80","","","","","","","","","","","","","","","",""
"","ISI","","html-keyboard-response","519","554200","0.0-1.0-723.0","0","0","12977","","null","","","null","80","NaN","","","","","","","","","","","","","","",""
"","S2","","html-keyboard-response","520","554459","0.0-1.0-724.0","0","0","12977","","null","","","null","80","","NaN","","","","","","","","","","","","","",""
"","response","","html-keyboard-response","521","556467","0.0-1.0-725.0","0","0","12977","","null","","","null","80","","","2","80","training","adjacent","ED","5","4","M.jpg","N.jpg","NaN","0","0","",""
"","too_slow_prompt","","html-keyboard-response","522","557476","0.0-1.0-727.0-0.0","1","0","12977","","null","","","null","","","","","","","","","","","","","","","","",""
"","time_out","","html-keyboard-response","523","559484","0.0-1.0-728.0-0.0","0","0","12977","","null","","","null","80","","","","","","","","","","","","","","","",""
"","ITI","","html-keyboard-response","524","560493","0.0-1.0-729.0","0","0","12977","","410","","","75","80","","","","","","","","","","","","","","","k",""
"","S1","","html-keyboard-response","525","560752","0.0-1.0-731.0","0","0","12977","","null","","","null","81","","","","","","","","","","","","","","","",""
"","ISI","","html-keyboard-response","526","562759","0.0-1.0-732.0","0","0","12977","","148","","","68","81","d","","","","","","","","","","","","","","",""
"","S2","","html-keyboard-response","527","563019","0.0-1.0-733.0","0","0","12977","","null","","","null","81","","NaN","","","","","","","","","","","","","",""
"","response","","html-keyboard-response","528","563542","0.0-1.0-734.0","0","0","12977","","519","","","75","81","","","2","81","training","adjacent","CD","3","4","Q.jpg","N.jpg","1","1","1","",""
"","feedback","","html-keyboard-response","529","564550","0.0-1.0-735.0-0.0","0","0","12977","","null","","","null","81","","","","","","","","","","","","","","","",""
"","ITI","","html-keyboard-response","530","565558","0.0-1.0-738.0","0","0","12977","","null","","","null","81","","","","","","","","","","","","","","","NaN",""
"","S1","","html-keyboard-response","531","565814","0.0-1.0-740.0","0","0","12977","","null","","","null","82","","","","","","","","","","","","","","","",""
"","ISI","","html-keyboard-response","532","567821","0.0-1.0-741.0","0","0","12977","","351","","","68","82","d","","","","","","","","","","","","","","",""
"","S2","","html-keyboard-response","533","568080","0.0-1.0-742.0","0","0","12977","","null","","","null","82","","NaN","","","","","","","","","","","","","",""
"","response","","html-keyboard-response","534","568310","0.0-1.0-743.0","0","0","12977","","226","","","68","82","","","2","82","training","adjacent","BC","2","3","L.jpg","Q.jpg","0","1","0","",""
"","feedback","","html-keyboard-response","535","569318","0.0-1.0-744.0-0.0","0","0","12977","","null","","","null","82","","","","","","","","","","","","","","","",""
"","time_out","","html-keyboard-response","536","571323","0.0-1.0-746.0-0.0","0","0","12977","","null","","","null","82","","","","","","","","","","","","","","","",""
"","ITI","","html-keyboard-response","537","572331","0.0-1.0-747.0","0","0","12977","","347","","","75","82","","","","","","","","","","","","","","","k",""
"","S1","","html-keyboard-response","538","572586","0.0-1.0-749.0","0","0","12977","","null","","","null","83","","","","","","","","","","","","","","","",""
"","ISI","","html-keyboard-response","539","574592","0.0-1.0-750.0","0","0","12977","","467","","","75","83","k","","","","","","","","","","","","","","",""
"","S2","","html-keyboard-response","540","574851","0.0-1.0-751.0","0","0","12977","","null","","","null","83","","NaN","","","","","","","","","","","","","",""
"","response","","html-keyboard-response","541","574853","0.0-1.0-752.0","0","0","12977","","0","","","68","83","","","2","83","training","adjacent","CD","3","4","Q.jpg","N.jpg","0","1","0","",""
"","feedback","","html-keyboard-response","542","575862","0.0-1.0-753.0-0.0","0","0","12977","","null","","","null","83","","","","","","","","","","","","","","","",""
"","time_out","","html-keyboard-response","543","577867","0.0-1.0-755.0-0.0","0","0","12977","","null","","","null","83","","","","","","","","","","","","","","","",""
"","ITI","","html-keyboard-response","544","578875","0.0-1.0-756.0","0","0","12977","","null","","","null","83","","","","","","","","","","","","","","","NaN",""
"","S1","","html-keyboard-response","545","579131","0.0-1.0-758.0","0","0","12977","","null","","","null","84","","","","","","","","","","","","","","","",""
"","ISI","","html-keyboard-response","546","581136","0.0-1.0-759.0","0","0","12977","","58","","","75","84","k","","","","","","","","","","","","","","",""
"","S2","","html-keyboard-response","547","581391","0.0-1.0-760.0","0","0","12977","","146","","","68","84","","d","","","","","","","","","","","","","",""
"","response","","html-keyboard-response","548","582116","0.0-1.0-761.0","0","0","12977","","719","","","68","84","","","2","84","training","adjacent","AB","1","2","O.jpg","L.jpg","0","1","0","",""
"","feedback","","html-keyboard-response","549","583125","0.0-1.0-762.0-0.0","0","0","12977","","null","","","null","84","","","","","","","","","","","","","","","",""
"","time_out","","html-keyboard-response","550","585134","0.0-1.0-764.0-0.0","0","0","12977","","null","","","null","84","","","","","","","","","","","","","","","",""
"","ITI","","html-keyboard-response","551","586144","0.0-1.0-765.0","0","0","12977","","null","","","null","84","","","","","","","","","","","","","","","NaN",""
"","S1","","html-keyboard-response","552","586400","0.0-1.0-767.0","0","0","12977","","null","","","null","85","","","","","","","","","","","","","","","",""
"","ISI","","html-keyboard-response","553","588409","0.0-1.0-768.0","0","0","12977","","null","","","null","85","NaN","","","","","","","","","","","","","","",""
"","S2","","html-keyboard-response","554","588666","0.0-1.0-769.0","0","0","12977","","105","","","75","85","","k","","","","","","","","","","","","","",""
"","response","","html-keyboard-response","555","590672","0.0-1.0-770.0","0","0","12977","","null","","","null","85","","","2","85","training","adjacent","CB","3","2","Q.jpg","L.jpg","NaN","0","0","",""
"","too_slow_prompt","","html-keyboard-response","556","591680","0.0-1.0-772.0-0.0","1","0","12977","","null","","","null","","","","","","","","","","","","","","","","",""
"","time_out","","html-keyboard-response","557","593685","0.0-1.0-773.0-0.0","0","0","12977","","null","","","null","85","","","","","","","","","","","","","","","",""
"","ITI","","html-keyboard-response","558","594693","0.0-1.0-774.0","0","0","12977","","null","","","null","85","","","","","","","","","","","","","","","NaN",""
"","S1","","html-keyboard-response","559","594953","0.0-1.0-776.0","0","0","12977","","null","","","null","86","","","","","","","","","","","","","","","",""
"","ISI","","html-keyboard-response","560","596960","0.0-1.0-777.0","0","0","12977","","null","","","null","86","NaN","","","","","","","","","","","","","","",""
"","S2","","html-keyboard-response","561","597216","0.0-1.0-778.0","0","0","12977","","null","","","null","86","","NaN","","","","","","","","","","","","","",""
"","response","","html-keyboard-response","562","597668","0.0-1.0-779.0","0","0","12977","","448","","","68","86","","","2","86","training","adjacent","FG","6","7","P.jpg","R.jpg","0","1","0","",""
"","feedback","","html-keyboard-response","563","598672","0.0-1.0-780.0-0.0","0","0","12977","","null","","","null","86","","","","","","","","","","","","","","","",""
"","time_out","","html-keyboard-response","564","600680","0.0-1.0-782.0-0.0","0","0","12977","","null","","","null","86","","","","","","","","","","","","","","","",""
"","ITI","","html-keyboard-response","565","601686","0.0-1.0-783.0","0","0","12977","","null","","","null","86","","","","","","","","","","","","","","","NaN",""
"","S1","","html-keyboard-response","566","601942","0.0-1.0-785.0","0","0","12977","","null","","","null","87","","","","","","","","","","","","","","","",""
"","ISI","","html-keyboard-response","567","603947","0.0-1.0-786.0","0","0","12977","","323","","","75","87","k","","","","","","","","","","","","","","",""
"","S2","","html-keyboard-response","568","604203","0.0-1.0-787.0","0","0","12977","","null","","","null","87","","NaN","","","","","","","","","","","","","",""
"","response","","html-keyboard-response","569","604478","0.0-1.0-788.0","0","0","12977","","270","","","75","87","","","2","87","training","adjacent","CB","3","2","Q.jpg","L.jpg","1","0","0","",""
"","feedback","","html-keyboard-response","570","605488","0.0-1.0-789.0-0.0","0","0","12977","","null","","","null","87","","","","","","","","","","","","","","","",""
"","time_out","","html-keyboard-response","571","607495","0.0-1.0-791.0-0.0","0","0","12977","","null","","","null","87","","","","","","","","","","","","","","","",""
"","ITI","","html-keyboard-response","572","608501","0.0-1.0-792.0","0","0","12977","","null","","","null","87","","","","","","","","","","","","","","","NaN",""
"","S1","","html-keyboard-response","573","608761","0.0-1.0-794.0","0","0","12977","","null","","","null","88","","","","","","","","","","","","","","","",""
"","ISI","","html-keyboard-response","574","610771","0.0-1.0-795.0","0","0","12977","","251","","","68","88","d","","","","","","","","","","","","","","",""
"","S2","","html-keyboard-response","575","611029","0.0-1.0-796.0","0","0","12977","","null","","","null","88","","NaN","","","","","","","","","","","","","",""
"","response","","html-keyboard-response","576","611230","0.0-1.0-797.0","0","0","12977","","197","","","68","88","","","2","88","training","adjacent","BC","2","3","L.jpg","Q.jpg","0","1","0","",""
"","feedback","","html-keyboard-response","577","612240","0.0-1.0-798.0-0.0","0","0","12977","","null","","","null","88","","","","","","","","","","","","","","","",""
"","time_out","","html-keyboard-response","578","614245","0.0-1.0-800.0-0.0","0","0","12977","","null","","","null","88","","","","","","","","","","","","","","","",""
"","ITI","","html-keyboard-response","579","615253","0.0-1.0-801.0","0","0","12977","","null","","","null","88","","","","","","","","","","","","","","","NaN",""
"","S1","","html-keyboard-response","580","615509","0.0-1.0-803.0","0","0","12977","","null","","","null","89","","","","","","","","","","","","","","","",""
"","ISI","","html-keyboard-response","581","617514","0.0-1.0-804.0","0","0","12977","","820","","","68","89","d","","","","","","","","","","","","","","",""
"","S2","","html-keyboard-response","582","617773","0.0-1.0-805.0","0","0","12977","","null","","","null","89","","NaN","","","","","","","","","","","","","",""
"","response","","html-keyboard-response","583","618243","0.0-1.0-806.0","0","0","12977","","466","","","68","89","","","2","89","training","adjacent","BA","2","1","L.jpg","O.jpg","0","0","1","",""
"","feedback","","html-keyboard-response","584","619253","0.0-1.0-807.0-0.0","0","0","12977","","null","","","null","89","","","","","","","","","","","","","","","",""
"","ITI","","html-keyboard-response","585","620261","0.0-1.0-810.0","0","0","12977","","null","","","null","89","","","","","","","","","","","","","","","NaN",""
