"success","ttype","start_time","trial_type","trial_index","time_elapsed","internal_node_id","warning","missed_checkup","PID","view_history","rt","responses","repeat_instructions","key_press","index","keypress_isi","keypress_S2","block","trial_num","phase","group_type","pair_type","S1_stim","S2_stim","S1_img","S2_img","S1_chosen","S1_higher","accuracy","keypress_iti","total_bonus_tally"
"true","full_screen","d08052022hr1852","fullscreen","0","11369","0.0-0.0","0","0","35816","","","","","","","","","","","","","","","","","","","","","",""
"","instructions","","instructions","1","37470","0.0-1.0-0.0-0.0","0","0","35816","[{""page_index"":0,""viewing_time"":3477},{""page_index"":1,""viewing_time"":12329},{""page_index"":2,""viewing_time"":8975},{""page_index"":3,""viewing_time"":1317}]","26099","","","","","","","","","","","","","","","","","","","",""
"","comprehension_check","","survey-multi-choice","2","54613","0.0-1.0-0.0-1.0","0","0","35816","","17139","{""Q0"":""True"",""Q1"":""D"",""Q2"":""Once the second image appears and while the screen 'MAKE A CHOICE' is shown"",""Q3"":""Green mark"",""Q4"":""either D or K""}","0","","","","","","","","","","","","","","","","","",""
"","start_exp","","html-keyboard-response","3","55709","0.0-1.0-1.0","0","0","35816","","1095","","","32","","","","","","","","","","","","","","","","",""
"","S1","","html-keyboard-response","4","55962","0.0-1.0-2.0","0","0","35816","","null","","","null","0","","","","","","","","","","","","","","","",""
"","ISI","","html-keyboard-response","5","57970","0.0-1.0-3.0","0","0","35816","","null","","","null","0","NaN","","","","","","","","","","","","","","",""
"","S2","","html-keyboard-response","6","58222","0.0-1.0-4.0","0","0","35816","","null","","","null","0","","NaN","","","","","","","","","","","","","",""
"","response","","html-keyboard-response","7","58674","0.0-1.0-5.0-0.0","0","0","35816","","451","","","75","0","","","1","0","training","adjacent","GF","7","6","N.jpg","L.jpg","0","0","1","",""
"","feedback","","html-keyboard-response","8","59677","0.0-1.0-6.0-0.0","0","0","35816","","null","","","null","0","","","","","","","","","","","","","","","",""
"","ITI","","html-keyboard-response","9","60678","0.0-1.0-9.0","0","0","35816","","null","","","null","0","","","","","","","","","","","","","","","NaN",""
"","S1","","html-keyboard-response","10","60931","0.0-1.0-11.0","0","0","35816","","null","","","null","1","","","","","","","","","","","","","","","",""
"","ISI","","html-keyboard-response","11","62934","0.0-1.0-12.0","0","0","35816","","null","","","null","1","NaN","","","","","","","","","","","","","","",""
"","S2","","html-keyboard-response","12","63187","0.0-1.0-13.0","0","0","35816","","null","","","null","1","","NaN","","","","","","","","","","","","","",""
"","response","","html-keyboard-response","13","63445","0.0-1.0-14.0-0.0","0","0","35816","","257","","","75","1","","","1","1","training","adjacent","CD","3","4","Q.jpg","R.jpg","0","1","0","",""
"","feedback","","html-keyboard-response","14","64447","0.0-1.0-15.0-0.0","0","0","35816","","null","","","null","1","","","","","","","","","","","","","","","",""
"","time_out","","html-keyboard-response","15","66450","0.0-1.0-17.0-0.0","0","0","35816","","null","","","null","1","","","","","","","","","","","","","","","",""
"","ITI","","html-keyboard-response","16","67452","0.0-1.0-18.0","0","0","35816","","null","","","null","1","","","","","","","","","","","","","","","NaN",""
"","S1","","html-keyboard-response","17","67712","0.0-1.0-20.0","0","0","35816","","null","","","null","2","","","","","","","","","","","","","","","",""
"","ISI","","html-keyboard-response","18","69714","0.0-1.0-21.0","0","0","35816","","null","","","null","2","NaN","","","","","","","","","","","","","","",""
"","S2","","html-keyboard-response","19","69967","0.0-1.0-22.0","0","0","35816","","null","","","null","2","","NaN","","","","","","","","","","","","","",""
"","response","","html-keyboard-response","20","70370","0.0-1.0-23.0-0.0","0","0","35816","","402","","","68","2","","","1","2","training","adjacent","BC","2","3","M.jpg","Q.jpg","1","1","1","",""
"","feedback","","html-keyboard-response","21","71373","0.0-1.0-24.0-0.0","0","0","35816","","null","","","null","2","","","","","","","","","","","","","","","",""
"","ITI","","html-keyboard-response","22","72376","0.0-1.0-27.0","0","0","35816","","null","","","null","2","","","","","","","","","","","","","","","NaN",""
"","S1","","html-keyboard-response","23","72627","0.0-1.0-29.0","0","0","35816","","null","","","null","3","","","","","","","","","","","","","","","",""
"","ISI","","html-keyboard-response","24","74630","0.0-1.0-30.0","0","0","35816","","null","","","null","3","NaN","","","","","","","","","","","","","","",""
"","S2","","html-keyboard-response","25","74883","0.0-1.0-31.0","0","0","35816","","null","","","null","3","","NaN","","","","","","","","","","","","","",""
"","response","","html-keyboard-response","26","74907","0.0-1.0-32.0-0.0","0","0","35816","","23","","","75","3","","","1","3","training","adjacent","CB","3","2","Q.jpg","M.jpg","0","0","1","",""
"","feedback","","html-keyboard-response","27","75909","0.0-1.0-33.0-0.0","0","0","35816","","null","","","null","3","","","","","","","","","","","","","","","",""
"","ITI","","html-keyboard-response","28","76911","0.0-1.0-36.0","0","0","35816","","null","","","null","3","","","","","","","","","","","","","","","NaN",""
"","S1","","html-keyboard-response","29","77164","0.0-1.0-38.0","0","0","35816","","null","","","null","4","","","","","","","","","","","","","","","",""
"","ISI","","html-keyboard-response","30","79167","0.0-1.0-39.0","0","0","35816","","null","","","null","4","NaN","","","","","","","","","","","","","","",""
"","S2","","html-keyboard-response","31","79419","0.0-1.0-40.0","0","0","35816","","null","","","null","4","","NaN","","","","","","","","","","","","","",""
"","response","","html-keyboard-response","32","79430","0.0-1.0-41.0-0.0","0","0","35816","","9","","","75","4","","","1","4","training","adjacent","CD","3","4","Q.jpg","R.jpg","0","1","0","",""
"","feedback","","html-keyboard-response","33","80433","0.0-1.0-42.0-0.0","0","0","35816","","null","","","null","4","","","","","","","","","","","","","","","",""
"","time_out","","html-keyboard-response","34","82435","0.0-1.0-44.0-0.0","0","0","35816","","null","","","null","4","","","","","","","","","","","","","","","",""
"","ITI","","html-keyboard-response","35","83437","0.0-1.0-45.0","0","0","35816","","null","","","null","4","","","","","","","","","","","","","","","NaN",""
"","S1","","html-keyboard-response","36","83690","0.0-1.0-47.0","0","0","35816","","null","","","null","5","","","","","","","","","","","","","","","",""
"","ISI","","html-keyboard-response","37","85692","0.0-1.0-48.0","0","0","35816","","null","","","null","5","NaN","","","","","","","","","","","","","","",""
"","S2","","html-keyboard-response","38","85945","0.0-1.0-49.0","0","0","35816","","null","","","null","5","","NaN","","","","","","","","","","","","","",""
"","response","","html-keyboard-response","39","86244","0.0-1.0-50.0-0.0","0","0","35816","","297","","","68","5","","","1","5","training","adjacent","FG","6","7","L.jpg","N.jpg","1","1","1","",""
"","feedback","","html-keyboard-response","40","87247","0.0-1.0-51.0-0.0","0","0","35816","","null","","","null","5","","","","","","","","","","","","","","","",""
"","ITI","","html-keyboard-response","41","88251","0.0-1.0-54.0","0","0","35816","","null","","","null","5","","","","","","","","","","","","","","","NaN",""
"","S1","","html-keyboard-response","42","88504","0.0-1.0-56.0","0","0","35816","","null","","","null","6","","","","","","","","","","","","","","","",""
"","ISI","","html-keyboard-response","43","90506","0.0-1.0-57.0","0","0","35816","","null","","","null","6","NaN","","","","","","","","","","","","","","",""
"","S2","","html-keyboard-response","44","90758","0.0-1.0-58.0","0","0","35816","","null","","","null","6","","NaN","","","","","","","","","","","","","",""
"","response","","html-keyboard-response","45","91116","0.0-1.0-59.0-0.0","0","0","35816","","356","","","75","6","","","1","6","training","adjacent","AB","1","2","O.jpg","M.jpg","0","1","0","",""
"","feedback","","html-keyboard-response","46","92119","0.0-1.0-60.0-0.0","0","0","35816","","null","","","null","6","","","","","","","","","","","","","","","",""
"","time_out","","html-keyboard-response","47","94121","0.0-1.0-62.0-0.0","0","0","35816","","null","","","null","6","","","","","","","","","","","","","","","",""
"","ITI","","html-keyboard-response","48","95124","0.0-1.0-63.0","0","0","35816","","null","","","null","6","","","","","","","","","","","","","","","NaN",""
"","S1","","html-keyboard-response","49","95379","0.0-1.0-65.0","0","0","35816","","null","","","null","7","","","","","","","","","","","","","","","",""
"","ISI","","html-keyboard-response","50","97382","0.0-1.0-66.0","0","0","35816","","null","","","null","7","NaN","","","","","","","","","","","","","","",""
"","S2","","html-keyboard-response","51","97634","0.0-1.0-67.0","0","0","35816","","null","","","null","7","","NaN","","","","","","","","","","","","","",""
"","response","","html-keyboard-response","52","98235","0.0-1.0-68.0-0.0","0","0","35816","","600","","","75","7","","","1","7","training","adjacent","FE","6","5","L.jpg","P.jpg","0","0","1","",""
"","feedback","","html-keyboard-response","53","99238","0.0-1.0-69.0-0.0","0","0","35816","","null","","","null","7","","","","","","","","","","","","","","","",""
"","ITI","","html-keyboard-response","54","100241","0.0-1.0-72.0","0","0","35816","","null","","","null","7","","","","","","","","","","","","","","","NaN",""
"","S1","","html-keyboard-response","55","100494","0.0-1.0-74.0","0","0","35816","","null","","","null","8","","","","","","","","","","","","","","","",""
"","ISI","","html-keyboard-response","56","102496","0.0-1.0-75.0","0","0","35816","","null","","","null","8","NaN","","","","","","","","","","","","","","",""
"","S2","","html-keyboard-response","57","102749","0.0-1.0-76.0","0","0","35816","","null","","","null","8","","NaN","","","","","","","","","","","","","",""
"","response","","html-keyboard-response","58","103104","0.0-1.0-77.0-0.0","0","0","35816","","354","","","75","8","","","1","8","training","adjacent","GF","7","6","N.jpg","L.jpg","0","0","1","",""
"","feedback","","html-keyboard-response","59","104106","0.0-1.0-78.0-0.0","0","0","35816","","null","","","null","8","","","","","","","","","","","","","","","",""
"","ITI","","html-keyboard-response","60","105108","0.0-1.0-81.0","0","0","35816","","null","","","null","8","","","","","","","","","","","","","","","NaN",""
"","S1","","html-keyboard-response","61","105373","0.0-1.0-83.0","0","0","35816","","null","","","null","9","","","","","","","","","","","","","","","",""
"","ISI","","html-keyboard-response","62","107375","0.0-1.0-84.0","0","0","35816","","null","","","null","9","NaN","","","","","","","","","","","","","","",""
"","S2","","html-keyboard-response","63","107628","0.0-1.0-85.0","0","0","35816","","null","","","null","9","","NaN","","","","","","","","","","","","","",""
"","response","","html-keyboard-response","64","108006","0.0-1.0-86.0-0.0","0","0","35816","","376","","","68","9","","","1","9","training","adjacent","DC","4","3","R.jpg","Q.jpg","1","0","0","",""
"","feedback","","html-keyboard-response","65","109009","0.0-1.0-87.0-0.0","0","0","35816","","null","","","null","9","","","","","","","","","","","","","","","",""
"","time_out","","html-keyboard-response","66","111012","0.0-1.0-89.0-0.0","0","0","35816","","null","","","null","9","","","","","","","","","","","","","","","",""
"","ITI","","html-keyboard-response","67","112015","0.0-1.0-90.0","0","0","35816","","null","","","null","9","","","","","","","","","","","","","","","NaN",""
"","S1","","html-keyboard-response","68","112267","0.0-1.0-92.0","0","0","35816","","null","","","null","10","","","","","","","","","","","","","","","",""
"","ISI","","html-keyboard-response","69","114269","0.0-1.0-93.0","0","0","35816","","null","","","null","10","NaN","","","","","","","","","","","","","","",""
"","S2","","html-keyboard-response","70","114521","0.0-1.0-94.0","0","0","35816","","null","","","null","10","","NaN","","","","","","","","","","","","","",""
"","response","","html-keyboard-response","71","115243","0.0-1.0-95.0-0.0","0","0","35816","","720","","","75","10","","","1","10","training","adjacent","BA","2","1","M.jpg","O.jpg","0","0","1","",""
"","feedback","","html-keyboard-response","72","116246","0.0-1.0-96.0-0.0","0","0","35816","","null","","","null","10","","","","","","","","","","","","","","","",""
"","ITI","","html-keyboard-response","73","117248","0.0-1.0-99.0","0","0","35816","","null","","","null","10","","","","","","","","","","","","","","","NaN",""
"","S1","","html-keyboard-response","74","117501","0.0-1.0-101.0","0","0","35816","","null","","","null","11","","","","","","","","","","","","","","","",""
"","ISI","","html-keyboard-response","75","119503","0.0-1.0-102.0","0","0","35816","","null","","","null","11","NaN","","","","","","","","","","","","","","",""
"","S2","","html-keyboard-response","76","119756","0.0-1.0-103.0","0","0","35816","","null","","","null","11","","NaN","","","","","","","","","","","","","",""
"","response","","html-keyboard-response","77","120369","0.0-1.0-104.0-0.0","0","0","35816","","613","","","75","11","","","1","11","training","adjacent","ED","5","4","P.jpg","R.jpg","0","0","1","",""
"","feedback","","html-keyboard-response","78","121377","0.0-1.0-105.0-0.0","0","0","35816","","null","","","null","11","","","","","","","","","","","","","","","",""
"","ITI","","html-keyboard-response","79","122380","0.0-1.0-108.0","0","0","35816","","null","","","null","11","","","","","","","","","","","","","","","NaN",""
"","S1","","html-keyboard-response","80","122632","0.0-1.0-110.0","0","0","35816","","null","","","null","12","","","","","","","","","","","","","","","",""
"","ISI","","html-keyboard-response","81","124635","0.0-1.0-111.0","0","0","35816","","null","","","null","12","NaN","","","","","","","","","","","","","","",""
"","S2","","html-keyboard-response","82","124888","0.0-1.0-112.0","0","0","35816","","null","","","null","12","","NaN","","","","","","","","","","","","","",""
"","response","","html-keyboard-response","83","125427","0.0-1.0-113.0-0.0","0","0","35816","","538","","","75","12","","","1","12","training","adjacent","BA","2","1","M.jpg","O.jpg","0","0","1","",""
"","feedback","","html-keyboard-response","84","126431","0.0-1.0-114.0-0.0","0","0","35816","","null","","","null","12","","","","","","","","","","","","","","","",""
"","ITI","","html-keyboard-response","85","127433","0.0-1.0-117.0","0","0","35816","","null","","","null","12","","","","","","","","","","","","","","","NaN",""
"","S1","","html-keyboard-response","86","127686","0.0-1.0-119.0","0","0","35816","","null","","","null","13","","","","","","","","","","","","","","","",""
"","ISI","","html-keyboard-response","87","129688","0.0-1.0-120.0","0","0","35816","","null","","","null","13","NaN","","","","","","","","","","","","","","",""
"","S2","","html-keyboard-response","88","129941","0.0-1.0-121.0","0","0","35816","","null","","","null","13","","NaN","","","","","","","","","","","","","",""
"","response","","html-keyboard-response","89","130497","0.0-1.0-122.0-0.0","0","0","35816","","554","","","68","13","","","1","13","training","adjacent","DE","4","5","R.jpg","P.jpg","1","1","1","",""
"","feedback","","html-keyboard-response","90","131501","0.0-1.0-123.0-0.0","0","0","35816","","null","","","null","13","","","","","","","","","","","","","","","",""
"","ITI","","html-keyboard-response","91","132504","0.0-1.0-126.0","0","0","35816","","null","","","null","13","","","","","","","","","","","","","","","NaN",""
"","S1","","html-keyboard-response","92","132756","0.0-1.0-128.0","0","0","35816","","null","","","null","14","","","","","","","","","","","","","","","",""
"","ISI","","html-keyboard-response","93","134759","0.0-1.0-129.0","0","0","35816","","null","","","null","14","NaN","","","","","","","","","","","","","","",""
"","S2","","html-keyboard-response","94","135012","0.0-1.0-130.0","0","0","35816","","null","","","null","14","","NaN","","","","","","","","","","","","","",""
"","response","","html-keyboard-response","95","135460","0.0-1.0-131.0-0.0","0","0","35816","","447","","","68","14","","","1","14","training","adjacent","FG","6","7","L.jpg","N.jpg","1","1","1","",""
"","feedback","","html-keyboard-response","96","136463","0.0-1.0-132.0-0.0","0","0","35816","","null","","","null","14","","","","","","","","","","","","","","","",""
"","ITI","","html-keyboard-response","97","137465","0.0-1.0-135.0","0","0","35816","","null","","","null","14","","","","","","","","","","","","","","","NaN",""
"","S1","","html-keyboard-response","98","137731","0.0-1.0-137.0","0","0","35816","","null","","","null","15","","","","","","","","","","","","","","","",""
"","ISI","","html-keyboard-response","99","139734","0.0-1.0-138.0","0","0","35816","","null","","","null","15","NaN","","","","","","","","","","","","","","",""
"","S2","","html-keyboard-response","100","139987","0.0-1.0-139.0","0","0","35816","","null","","","null","15","","NaN","","","","","","","","","","","","","",""
"","response","","html-keyboard-response","101","140362","0.0-1.0-140.0-0.0","0","0","35816","","374","","","75","15","","","1","15","training","adjacent","DE","4","5","R.jpg","P.jpg","0","1","0","",""
"","feedback","","html-keyboard-response","102","141365","0.0-1.0-141.0-0.0","0","0","35816","","null","","","null","15","","","","","","","","","","","","","","","",""
"","time_out","","html-keyboard-response","103","143368","0.0-1.0-143.0-0.0","0","0","35816","","null","","","null","15","","","","","","","","","","","","","","","",""
"","ITI","","html-keyboard-response","104","144370","0.0-1.0-144.0","0","0","35816","","null","","","null","15","","","","","","","","","","","","","","","NaN",""
"","S1","","html-keyboard-response","105","144622","0.0-1.0-146.0","0","0","35816","","null","","","null","16","","","","","","","","","","","","","","","",""
"","ISI","","html-keyboard-response","106","146624","0.0-1.0-147.0","0","0","35816","","null","","","null","16","NaN","","","","","","","","","","","","","","",""
"","S2","","html-keyboard-response","107","146877","0.0-1.0-148.0","0","0","35816","","null","","","null","16","","NaN","","","","","","","","","","","","","",""
"","response","","html-keyboard-response","108","147426","0.0-1.0-149.0-0.0","0","0","35816","","548","","","75","16","","","1","16","training","adjacent","EF","5","6","P.jpg","L.jpg","0","1","0","",""
"","feedback","","html-keyboard-response","109","148429","0.0-1.0-150.0-0.0","0","0","35816","","null","","","null","16","","","","","","","","","","","","","","","",""
"","time_out","","html-keyboard-response","110","150431","0.0-1.0-152.0-0.0","0","0","35816","","null","","","null","16","","","","","","","","","","","","","","","",""
"","ITI","","html-keyboard-response","111","151447","0.0-1.0-153.0","0","0","35816","","null","","","null","16","","","","","","","","","","","","","","","NaN",""
"","S1","","html-keyboard-response","112","151699","0.0-1.0-155.0","0","0","35816","","null","","","null","17","","","","","","","","","","","","","","","",""
"","ISI","","html-keyboard-response","113","153703","0.0-1.0-156.0","0","0","35816","","null","","","null","17","NaN","","","","","","","","","","","","","","",""
"","S2","","html-keyboard-response","114","153955","0.0-1.0-157.0","0","0","35816","","null","","","null","17","","NaN","","","","","","","","","","","","","",""
"","response","","html-keyboard-response","115","154336","0.0-1.0-158.0-0.0","0","0","35816","","379","","","68","17","","","1","17","training","adjacent","BC","2","3","M.jpg","Q.jpg","1","1","1","",""
"","feedback","","html-keyboard-response","116","155339","0.0-1.0-159.0-0.0","0","0","35816","","null","","","null","17","","","","","","","","","","","","","","","",""
"","ITI","","html-keyboard-response","117","156341","0.0-1.0-162.0","0","0","35816","","null","","","null","17","","","","","","","","","","","","","","","NaN",""
"","S1","","html-keyboard-response","118","156594","0.0-1.0-164.0","0","0","35816","","null","","","null","18","","","","","","","","","","","","","","","",""
"","ISI","","html-keyboard-response","119","158596","0.0-1.0-165.0","0","0","35816","","null","","","null","18","NaN","","","","","","","","","","","","","","",""
"","S2","","html-keyboard-response","120","158850","0.0-1.0-166.0","0","0","35816","","null","","","null","18","","NaN","","","","","","","","","","","","","",""
"","response","","html-keyboard-response","121","159308","0.0-1.0-167.0-0.0","0","0","35816","","457","","","75","18","","","1","18","training","adjacent","BA","2","1","M.jpg","O.jpg","0","0","1","",""
"","feedback","","html-keyboard-response","122","160311","0.0-1.0-168.0-0.0","0","0","35816","","null","","","null","18","","","","","","","","","","","","","","","",""
"","ITI","","html-keyboard-response","123","161313","0.0-1.0-171.0","0","0","35816","","null","","","null","18","","","","","","","","","","","","","","","NaN",""
"","S1","","html-keyboard-response","124","161566","0.0-1.0-173.0","0","0","35816","","null","","","null","19","","","","","","","","","","","","","","","",""
"","ISI","","html-keyboard-response","125","163569","0.0-1.0-174.0","0","0","35816","","null","","","null","19","NaN","","","","","","","","","","","","","","",""
"","S2","","html-keyboard-response","126","163822","0.0-1.0-175.0","0","0","35816","","null","","","null","19","","NaN","","","","","","","","","","","","","",""
"","response","","html-keyboard-response","127","164071","0.0-1.0-176.0-0.0","0","0","35816","","249","","","68","19","","","1","19","training","adjacent","FG","6","7","L.jpg","N.jpg","1","1","1","",""
"","feedback","","html-keyboard-response","128","165074","0.0-1.0-177.0-0.0","0","0","35816","","null","","","null","19","","","","","","","","","","","","","","","",""
"","ITI","","html-keyboard-response","129","166076","0.0-1.0-180.0","0","0","35816","","null","","","null","19","","","","","","","","","","","","","","","NaN",""
"","S1","","html-keyboard-response","130","166329","0.0-1.0-182.0","0","0","35816","","null","","","null","20","","","","","","","","","","","","","","","",""
"","ISI","","html-keyboard-response","131","168331","0.0-1.0-183.0","0","0","35816","","null","","","null","20","NaN","","","","","","","","","","","","","","",""
"","S2","","html-keyboard-response","132","168583","0.0-1.0-184.0","0","0","35816","","null","","","null","20","","NaN","","","","","","","","","","","","","",""
"","response","","html-keyboard-response","133","169072","0.0-1.0-185.0-0.0","0","0","35816","","487","","","75","20","","","1","20","training","adjacent","ED","5","4","P.jpg","R.jpg","0","0","1","",""
"","feedback","","html-keyboard-response","134","170074","0.0-1.0-186.0-0.0","0","0","35816","","null","","","null","20","","","","","","","","","","","","","","","",""
"","ITI","","html-keyboard-response","135","171077","0.0-1.0-189.0","0","0","35816","","null","","","null","20","","","","","","","","","","","","","","","NaN",""
"","S1","","html-keyboard-response","136","171330","0.0-1.0-191.0","0","0","35816","","null","","","null","21","","","","","","","","","","","","","","","",""
"","ISI","","html-keyboard-response","137","173332","0.0-1.0-192.0","0","0","35816","","null","","","null","21","NaN","","","","","","","","","","","","","","",""
"","S2","","html-keyboard-response","138","173590","0.0-1.0-193.0","0","0","35816","","null","","","null","21","","NaN","","","","","","","","","","","","","",""
"","response","","html-keyboard-response","139","173948","0.0-1.0-194.0-0.0","0","0","35816","","356","","","68","21","","","1","21","training","adjacent","DC","4","3","R.jpg","Q.jpg","1","0","0","",""
"","feedback","","html-keyboard-response","140","174965","0.0-1.0-195.0-0.0","0","0","35816","","null","","","null","21","","","","","","","","","","","","","","","",""
"","time_out","","html-keyboard-response","141","176967","0.0-1.0-197.0-0.0","0","0","35816","","null","","","null","21","","","","","","","","","","","","","","","",""
"","ITI","","html-keyboard-response","142","177971","0.0-1.0-198.0","0","0","35816","","null","","","null","21","","","","","","","","","","","","","","","NaN",""
"","S1","","html-keyboard-response","143","178224","0.0-1.0-200.0","0","0","35816","","null","","","null","22","","","","","","","","","","","","","","","",""
"","ISI","","html-keyboard-response","144","180226","0.0-1.0-201.0","0","0","35816","","null","","","null","22","NaN","","","","","","","","","","","","","","",""
"","S2","","html-keyboard-response","145","180478","0.0-1.0-202.0","0","0","35816","","null","","","null","22","","NaN","","","","","","","","","","","","","",""
"","response","","html-keyboard-response","146","180830","0.0-1.0-203.0-0.0","0","0","35816","","349","","","68","22","","","1","22","training","adjacent","BC","2","3","M.jpg","Q.jpg","1","1","1","",""
"","feedback","","html-keyboard-response","147","181840","0.0-1.0-204.0-0.0","0","0","35816","","null","","","null","22","","","","","","","","","","","","","","","",""
"","ITI","","html-keyboard-response","148","182843","0.0-1.0-207.0","0","0","35816","","null","","","null","22","","","","","","","","","","","","","","","NaN",""
"","S1","","html-keyboard-response","149","183096","0.0-1.0-209.0","0","0","35816","","null","","","null","23","","","","","","","","","","","","","","","",""
"","ISI","","html-keyboard-response","150","185098","0.0-1.0-210.0","0","0","35816","","null","","","null","23","NaN","","","","","","","","","","","","","","",""
"","S2","","html-keyboard-response","151","185355","0.0-1.0-211.0","0","0","35816","","null","","","null","23","","NaN","","","","","","","","","","","","","",""
"","response","","html-keyboard-response","152","186059","0.0-1.0-212.0-0.0","0","0","35816","","702","","","75","23","","","1","23","training","adjacent","ED","5","4","P.jpg","R.jpg","0","0","1","",""
"","feedback","","html-keyboard-response","153","187062","0.0-1.0-213.0-0.0","0","0","35816","","null","","","null","23","","","","","","","","","","","","","","","",""
"","ITI","","html-keyboard-response","154","188064","0.0-1.0-216.0","0","0","35816","","null","","","null","23","","","","","","","","","","","","","","","NaN",""
"","S1","","html-keyboard-response","155","188317","0.0-1.0-218.0","0","0","35816","","null","","","null","24","","","","","","","","","","","","","","","",""
"","ISI","","html-keyboard-response","156","190319","0.0-1.0-219.0","0","0","35816","","null","","","null","24","NaN","","","","","","","","","","","","","","",""
"","S2","","html-keyboard-response","157","190572","0.0-1.0-220.0","0","0","35816","","null","","","null","24","","NaN","","","","","","","","","","","","","",""
"","response","","html-keyboard-response","158","190940","0.0-1.0-221.0-0.0","0","0","35816","","366","","","68","24","","","1","24","training","adjacent","BC","2","3","M.jpg","Q.jpg","1","1","1","",""
"","feedback","","html-keyboard-response","159","191942","0.0-1.0-222.0-0.0","0","0","35816","","null","","","null","24","","","","","","","","","","","","","","","",""
"","ITI","","html-keyboard-response","160","192945","0.0-1.0-225.0","0","0","35816","","null","","","null","24","","","","","","","","","","","","","","","NaN",""
"","S1","","html-keyboard-response","161","193197","0.0-1.0-227.0","0","0","35816","","null","","","null","25","","","","","","","","","","","","","","","",""
"","ISI","","html-keyboard-response","162","195200","0.0-1.0-228.0","0","0","35816","","null","","","null","25","NaN","","","","","","","","","","","","","","",""
"","S2","","html-keyboard-response","163","195452","0.0-1.0-229.0","0","0","35816","","null","","","null","25","","NaN","","","","","","","","","","","","","",""
"","response","","html-keyboard-response","164","195986","0.0-1.0-230.0-0.0","0","0","35816","","532","","","75","25","","","1","25","training","adjacent","FE","6","5","L.jpg","P.jpg","0","0","1","",""
"","feedback","","html-keyboard-response","165","196989","0.0-1.0-231.0-0.0","0","0","35816","","null","","","null","25","","","","","","","","","","","","","","","",""
"","ITI","","html-keyboard-response","166","197991","0.0-1.0-234.0","0","0","35816","","null","","","null","25","","","","","","","","","","","","","","","NaN",""
"","S1","","html-keyboard-response","167","198244","0.0-1.0-236.0","0","0","35816","","null","","","null","26","","","","","","","","","","","","","","","",""
"","ISI","","html-keyboard-response","168","200247","0.0-1.0-237.0","0","0","35816","","null","","","null","26","NaN","","","","","","","","","","","","","","",""
"","S2","","html-keyboard-response","169","200500","0.0-1.0-238.0","0","0","35816","","null","","","null","26","","NaN","","","","","","","","","","","","","",""
"","response","","html-keyboard-response","170","200792","0.0-1.0-239.0-0.0","0","0","35816","","291","","","68","26","","","1","26","training","adjacent","AB","1","2","O.jpg","M.jpg","1","1","1","",""
"","feedback","","html-keyboard-response","171","201795","0.0-1.0-240.0-0.0","0","0","35816","","null","","","null","26","","","","","","","","","","","","","","","",""
"","ITI","","html-keyboard-response","172","202797","0.0-1.0-243.0","0","0","35816","","null","","","null","26","","","","","","","","","","","","","","","NaN",""
"","S1","","html-keyboard-response","173","203050","0.0-1.0-245.0","0","0","35816","","null","","","null","27","","","","","","","","","","","","","","","",""
"","ISI","","html-keyboard-response","174","205053","0.0-1.0-246.0","0","0","35816","","null","","","null","27","NaN","","","","","","","","","","","","","","",""
"","S2","","html-keyboard-response","175","205306","0.0-1.0-247.0","0","0","35816","","null","","","null","27","","NaN","","","","","","","","","","","","","",""
"","response","","html-keyboard-response","176","205614","0.0-1.0-248.0-0.0","0","0","35816","","306","","","75","27","","","1","27","training","adjacent","CD","3","4","Q.jpg","R.jpg","0","1","0","",""
"","feedback","","html-keyboard-response","177","206617","0.0-1.0-249.0-0.0","0","0","35816","","null","","","null","27","","","","","","","","","","","","","","","",""
"","time_out","","html-keyboard-response","178","208620","0.0-1.0-251.0-0.0","0","0","35816","","null","","","null","27","","","","","","","","","","","","","","","",""
"","ITI","","html-keyboard-response","179","209621","0.0-1.0-252.0","0","0","35816","","null","","","null","27","","","","","","","","","","","","","","","NaN",""
"","S1","","html-keyboard-response","180","209874","0.0-1.0-254.0","0","0","35816","","null","","","null","28","","","","","","","","","","","","","","","",""
"","ISI","","html-keyboard-response","181","211877","0.0-1.0-255.0","0","0","35816","","null","","","null","28","NaN","","","","","","","","","","","","","","",""
"","S2","","html-keyboard-response","182","212129","0.0-1.0-256.0","0","0","35816","","null","","","null","28","","NaN","","","","","","","","","","","","","",""
"","response","","html-keyboard-response","183","212475","0.0-1.0-257.0-0.0","0","0","35816","","344","","","68","28","","","1","28","training","adjacent","DC","4","3","R.jpg","Q.jpg","1","0","0","",""
"","feedback","","html-keyboard-response","184","213478","0.0-1.0-258.0-0.0","0","0","35816","","null","","","null","28","","","","","","","","","","","","","","","",""
"","time_out","","html-keyboard-response","185","215480","0.0-1.0-260.0-0.0","0","0","35816","","null","","","null","28","","","","","","","","","","","","","","","",""
"","ITI","","html-keyboard-response","186","216483","0.0-1.0-261.0","0","0","35816","","null","","","null","28","","","","","","","","","","","","","","","NaN",""
"","S1","","html-keyboard-response","187","216736","0.0-1.0-263.0","0","0","35816","","null","","","null","29","","","","","","","","","","","","","","","",""
"","ISI","","html-keyboard-response","188","218738","0.0-1.0-264.0","0","0","35816","","null","","","null","29","NaN","","","","","","","","","","","","","","",""
"","S2","","html-keyboard-response","189","218990","0.0-1.0-265.0","0","0","35816","","null","","","null","29","","NaN","","","","","","","","","","","","","",""
"","response","","html-keyboard-response","190","219356","0.0-1.0-266.0-0.0","0","0","35816","","364","","","75","29","","","1","29","training","adjacent","DC","4","3","R.jpg","Q.jpg","0","0","1","",""
"","feedback","","html-keyboard-response","191","220358","0.0-1.0-267.0-0.0","0","0","35816","","null","","","null","29","","","","","","","","","","","","","","","",""
"","ITI","","html-keyboard-response","192","221360","0.0-1.0-270.0","0","0","35816","","null","","","null","29","","","","","","","","","","","","","","","NaN",""
"","S1","","html-keyboard-response","193","221613","0.0-1.0-272.0","0","0","35816","","null","","","null","30","","","","","","","","","","","","","","","",""
"","ISI","","html-keyboard-response","194","223616","0.0-1.0-273.0","0","0","35816","","null","","","null","30","NaN","","","","","","","","","","","","","","",""
"","S2","","html-keyboard-response","195","223869","0.0-1.0-274.0","0","0","35816","","null","","","null","30","","NaN","","","","","","","","","","","","","",""
"","response","","html-keyboard-response","196","224224","0.0-1.0-275.0-0.0","0","0","35816","","353","","","75","30","","","1","30","training","adjacent","FE","6","5","L.jpg","P.jpg","0","0","1","",""
"","feedback","","html-keyboard-response","197","225226","0.0-1.0-276.0-0.0","0","0","35816","","null","","","null","30","","","","","","","","","","","","","","","",""
"","ITI","","html-keyboard-response","198","226228","0.0-1.0-279.0","0","0","35816","","null","","","null","30","","","","","","","","","","","","","","","NaN",""
"","S1","","html-keyboard-response","199","226490","0.0-1.0-281.0","0","0","35816","","null","","","null","31","","","","","","","","","","","","","","","",""
"","ISI","","html-keyboard-response","200","228492","0.0-1.0-282.0","0","0","35816","","null","","","null","31","NaN","","","","","","","","","","","","","","",""
"","S2","","html-keyboard-response","201","228744","0.0-1.0-283.0","0","0","35816","","null","","","null","31","","NaN","","","","","","","","","","","","","",""
"","response","","html-keyboard-response","202","229078","0.0-1.0-284.0-0.0","0","0","35816","","332","","","75","31","","","1","31","training","adjacent","EF","5","6","P.jpg","L.jpg","0","1","0","",""
"","feedback","","html-keyboard-response","203","230080","0.0-1.0-285.0-0.0","0","0","35816","","null","","","null","31","","","","","","","","","","","","","","","",""
"","time_out","","html-keyboard-response","204","232083","0.0-1.0-287.0-0.0","0","0","35816","","null","","","null","31","","","","","","","","","","","","","","","",""
"","ITI","","html-keyboard-response","205","233085","0.0-1.0-288.0","0","0","35816","","null","","","null","31","","","","","","","","","","","","","","","NaN",""
"","S1","","html-keyboard-response","206","233338","0.0-1.0-290.0","0","0","35816","","null","","","null","32","","","","","","","","","","","","","","","",""
"","ISI","","html-keyboard-response","207","235340","0.0-1.0-291.0","0","0","35816","","null","","","null","32","NaN","","","","","","","","","","","","","","",""
"","S2","","html-keyboard-response","208","235592","0.0-1.0-292.0","0","0","35816","","null","","","null","32","","NaN","","","","","","","","","","","","","",""
"","response","","html-keyboard-response","209","235908","0.0-1.0-293.0-0.0","0","0","35816","","314","","","68","32","","","1","32","training","adjacent","FG","6","7","L.jpg","N.jpg","1","1","1","",""
"","feedback","","html-keyboard-response","210","236910","0.0-1.0-294.0-0.0","0","0","35816","","null","","","null","32","","","","","","","","","","","","","","","",""
"","ITI","","html-keyboard-response","211","237912","0.0-1.0-297.0","0","0","35816","","null","","","null","32","","","","","","","","","","","","","","","NaN",""
"","S1","","html-keyboard-response","212","238165","0.0-1.0-299.0","0","0","35816","","null","","","null","33","","","","","","","","","","","","","","","",""
"","ISI","","html-keyboard-response","213","240168","0.0-1.0-300.0","0","0","35816","","null","","","null","33","NaN","","","","","","","","","","","","","","",""
"","S2","","html-keyboard-response","214","240421","0.0-1.0-301.0","0","0","35816","","null","","","null","33","","NaN","","","","","","","","","","","","","",""
"","response","","html-keyboard-response","215","240762","0.0-1.0-302.0-0.0","0","0","35816","","340","","","75","33","","","1","33","training","adjacent","CB","3","2","Q.jpg","M.jpg","0","0","1","",""
"","feedback","","html-keyboard-response","216","241764","0.0-1.0-303.0-0.0","0","0","35816","","null","","","null","33","","","","","","","","","","","","","","","",""
"","ITI","","html-keyboard-response","217","242767","0.0-1.0-306.0","0","0","35816","","null","","","null","33","","","","","","","","","","","","","","","NaN",""
"","S1","","html-keyboard-response","218","243019","0.0-1.0-308.0","0","0","35816","","null","","","null","34","","","","","","","","","","","","","","","",""
"","ISI","","html-keyboard-response","219","245021","0.0-1.0-309.0","0","0","35816","","null","","","null","34","NaN","","","","","","","","","","","","","","",""
"","S2","","html-keyboard-response","220","245273","0.0-1.0-310.0","0","0","35816","","null","","","null","34","","NaN","","","","","","","","","","","","","",""
"","response","","html-keyboard-response","221","245758","0.0-1.0-311.0-0.0","0","0","35816","","484","","","75","34","","","1","34","training","adjacent","EF","5","6","P.jpg","L.jpg","0","1","0","",""
"","feedback","","html-keyboard-response","222","246762","0.0-1.0-312.0-0.0","0","0","35816","","null","","","null","34","","","","","","","","","","","","","","","",""
"","time_out","","html-keyboard-response","223","248764","0.0-1.0-314.0-0.0","0","0","35816","","null","","","null","34","","","","","","","","","","","","","","","",""
"","ITI","","html-keyboard-response","224","249766","0.0-1.0-315.0","0","0","35816","","null","","","null","34","","","","","","","","","","","","","","","NaN",""
"","S1","","html-keyboard-response","225","250019","0.0-1.0-317.0","0","0","35816","","null","","","null","35","","","","","","","","","","","","","","","",""
"","ISI","","html-keyboard-response","226","252021","0.0-1.0-318.0","0","0","35816","","null","","","null","35","NaN","","","","","","","","","","","","","","",""
"","S2","","html-keyboard-response","227","252274","0.0-1.0-319.0","0","0","35816","","null","","","null","35","","NaN","","","","","","","","","","","","","",""
"","response","","html-keyboard-response","228","252707","0.0-1.0-320.0-0.0","0","0","35816","","432","","","68","35","","","1","35","training","adjacent","DE","4","5","R.jpg","P.jpg","1","1","1","",""
"","feedback","","html-keyboard-response","229","253709","0.0-1.0-321.0-0.0","0","0","35816","","null","","","null","35","","","","","","","","","","","","","","","",""
"","ITI","","html-keyboard-response","230","254711","0.0-1.0-324.0","0","0","35816","","null","","","null","35","","","","","","","","","","","","","","","NaN",""
"","S1","","html-keyboard-response","231","254964","0.0-1.0-326.0","0","0","35816","","null","","","null","36","","","","","","","","","","","","","","","",""
"","ISI","","html-keyboard-response","232","256967","0.0-1.0-327.0","0","0","35816","","null","","","null","36","NaN","","","","","","","","","","","","","","",""
"","S2","","html-keyboard-response","233","257220","0.0-1.0-328.0","0","0","35816","","null","","","null","36","","NaN","","","","","","","","","","","","","",""
"","response","","html-keyboard-response","234","257557","0.0-1.0-329.0-0.0","0","0","35816","","336","","","75","36","","","1","36","training","adjacent","ED","5","4","P.jpg","R.jpg","0","0","1","",""
"","feedback","","html-keyboard-response","235","258561","0.0-1.0-330.0-0.0","0","0","35816","","null","","","null","36","","","","","","","","","","","","","","","",""
"","ITI","","html-keyboard-response","236","259563","0.0-1.0-333.0","0","0","35816","","null","","","null","36","","","","","","","","","","","","","","","NaN",""
"","S1","","html-keyboard-response","237","259816","0.0-1.0-335.0","0","0","35816","","null","","","null","37","","","","","","","","","","","","","","","",""
"","ISI","","html-keyboard-response","238","261820","0.0-1.0-336.0","0","0","35816","","null","","","null","37","NaN","","","","","","","","","","","","","","",""
"","S2","","html-keyboard-response","239","262073","0.0-1.0-337.0","0","0","35816","","null","","","null","37","","NaN","","","","","","","","","","","","","",""
"","response","","html-keyboard-response","240","262381","0.0-1.0-338.0-0.0","0","0","35816","","306","","","68","37","","","1","37","training","adjacent","CD","3","4","Q.jpg","R.jpg","1","1","1","",""
"","feedback","","html-keyboard-response","241","263384","0.0-1.0-339.0-0.0","0","0","35816","","null","","","null","37","","","","","","","","","","","","","","","",""
"","ITI","","html-keyboard-response","242","264387","0.0-1.0-342.0","0","0","35816","","null","","","null","37","","","","","","","","","","","","","","","NaN",""
"","S1","","html-keyboard-response","243","264639","0.0-1.0-344.0","0","0","35816","","null","","","null","38","","","","","","","","","","","","","","","",""
"","ISI","","html-keyboard-response","244","266641","0.0-1.0-345.0","0","0","35816","","null","","","null","38","NaN","","","","","","","","","","","","","","",""
"","S2","","html-keyboard-response","245","266894","0.0-1.0-346.0","0","0","35816","","null","","","null","38","","NaN","","","","","","","","","","","","","",""
"","response","","html-keyboard-response","246","268380","0.0-1.0-347.0-0.0","0","0","35816","","1485","","","68","38","","","1","38","training","adjacent","EF","5","6","P.jpg","L.jpg","1","1","1","",""
"","feedback","","html-keyboard-response","247","269383","0.0-1.0-348.0-0.0","0","0","35816","","null","","","null","38","","","","","","","","","","","","","","","",""
"","ITI","","html-keyboard-response","248","270385","0.0-1.0-351.0","0","0","35816","","null","","","null","38","","","","","","","","","","","","","","","NaN",""
"","S1","","html-keyboard-response","249","270638","0.0-1.0-353.0","0","0","35816","","null","","","null","39","","","","","","","","","","","","","","","",""
"","ISI","","html-keyboard-response","250","272640","0.0-1.0-354.0","0","0","35816","","null","","","null","39","NaN","","","","","","","","","","","","","","",""
"","S2","","html-keyboard-response","251","272893","0.0-1.0-355.0","0","0","35816","","null","","","null","39","","NaN","","","","","","","","","","","","","",""
"","response","","html-keyboard-response","252","273192","0.0-1.0-356.0-0.0","0","0","35816","","297","","","68","39","","","1","39","training","adjacent","AB","1","2","O.jpg","M.jpg","1","1","1","",""
"","feedback","","html-keyboard-response","253","274194","0.0-1.0-357.0-0.0","0","0","35816","","null","","","null","39","","","","","","","","","","","","","","","",""
"","ITI","","html-keyboard-response","254","275197","0.0-1.0-360.0","0","0","35816","","null","","","null","39","","","","","","","","","","","","","","","NaN",""
"","S1","","html-keyboard-response","255","275450","0.0-1.0-362.0","0","0","35816","","null","","","null","40","","","","","","","","","","","","","","","",""
"","ISI","","html-keyboard-response","256","277453","0.0-1.0-363.0","0","0","35816","","null","","","null","40","NaN","","","","","","","","","","","","","","",""
"","S2","","html-keyboard-response","257","277706","0.0-1.0-364.0","0","0","35816","","null","","","null","40","","NaN","","","","","","","","","","","","","",""
"","response","","html-keyboard-response","258","278028","0.0-1.0-365.0-0.0","0","0","35816","","321","","","75","40","","","1","40","training","adjacent","GF","7","6","N.jpg","L.jpg","0","0","1","",""
"","feedback","","html-keyboard-response","259","279030","0.0-1.0-366.0-0.0","0","0","35816","","null","","","null","40","","","","","","","","","","","","","","","",""
"","ITI","","html-keyboard-response","260","280034","0.0-1.0-369.0","0","0","35816","","null","","","null","40","","","","","","","","","","","","","","","NaN",""
"","S1","","html-keyboard-response","261","280286","0.0-1.0-371.0","0","0","35816","","null","","","null","41","","","","","","","","","","","","","","","",""
"","ISI","","html-keyboard-response","262","282288","0.0-1.0-372.0","0","0","35816","","null","","","null","41","NaN","","","","","","","","","","","","","","",""
"","S2","","html-keyboard-response","263","282540","0.0-1.0-373.0","0","0","35816","","null","","","null","41","","NaN","","","","","","","","","","","","","",""
"","response","","html-keyboard-response","264","282859","0.0-1.0-374.0-0.0","0","0","35816","","317","","","68","41","","","1","41","training","adjacent","AB","1","2","O.jpg","M.jpg","1","1","1","",""
"","feedback","","html-keyboard-response","265","283862","0.0-1.0-375.0-0.0","0","0","35816","","null","","","null","41","","","","","","","","","","","","","","","",""
"","ITI","","html-keyboard-response","266","284865","0.0-1.0-378.0","0","0","35816","","null","","","null","41","","","","","","","","","","","","","","","NaN",""
"","S1","","html-keyboard-response","267","285117","0.0-1.0-380.0","0","0","35816","","null","","","null","42","","","","","","","","","","","","","","","",""
"","ISI","","html-keyboard-response","268","287120","0.0-1.0-381.0","0","0","35816","","null","","","null","42","NaN","","","","","","","","","","","","","","",""
"","S2","","html-keyboard-response","269","287372","0.0-1.0-382.0","0","0","35816","","null","","","null","42","","NaN","","","","","","","","","","","","","",""
"","response","","html-keyboard-response","270","287916","0.0-1.0-383.0-0.0","0","0","35816","","543","","","68","42","","","1","42","training","adjacent","DE","4","5","R.jpg","P.jpg","1","1","1","",""
"","feedback","","html-keyboard-response","271","288919","0.0-1.0-384.0-0.0","0","0","35816","","null","","","null","42","","","","","","","","","","","","","","","",""
"","ITI","","html-keyboard-response","272","289921","0.0-1.0-387.0","0","0","35816","","null","","","null","42","","","","","","","","","","","","","","","NaN",""
"","S1","","html-keyboard-response","273","290174","0.0-1.0-389.0","0","0","35816","","null","","","null","43","","","","","","","","","","","","","","","",""
"","ISI","","html-keyboard-response","274","292176","0.0-1.0-390.0","0","0","35816","","null","","","null","43","NaN","","","","","","","","","","","","","","",""
"","S2","","html-keyboard-response","275","292428","0.0-1.0-391.0","0","0","35816","","null","","","null","43","","NaN","","","","","","","","","","","","","",""
"","response","","html-keyboard-response","276","292778","0.0-1.0-392.0-0.0","0","0","35816","","349","","","75","43","","","1","43","training","adjacent","BA","2","1","M.jpg","O.jpg","0","0","1","",""
"","feedback","","html-keyboard-response","277","293781","0.0-1.0-393.0-0.0","0","0","35816","","null","","","null","43","","","","","","","","","","","","","","","",""
"","ITI","","html-keyboard-response","278","294784","0.0-1.0-396.0","0","0","35816","","null","","","null","43","","","","","","","","","","","","","","","NaN",""
"","S1","","html-keyboard-response","279","295037","0.0-1.0-398.0","0","0","35816","","null","","","null","44","","","","","","","","","","","","","","","",""
"","ISI","","html-keyboard-response","280","297040","0.0-1.0-399.0","0","0","35816","","null","","","null","44","NaN","","","","","","","","","","","","","","",""
"","S2","","html-keyboard-response","281","297293","0.0-1.0-400.0","0","0","35816","","null","","","null","44","","NaN","","","","","","","","","","","","","",""
"","response","","html-keyboard-response","282","298087","0.0-1.0-401.0-0.0","0","0","35816","","793","","","68","44","","","1","44","training","adjacent","FE","6","5","L.jpg","P.jpg","1","0","0","",""
"","feedback","","html-keyboard-response","283","299091","0.0-1.0-402.0-0.0","0","0","35816","","null","","","null","44","","","","","","","","","","","","","","","",""
"","time_out","","html-keyboard-response","284","301093","0.0-1.0-404.0-0.0","0","0","35816","","null","","","null","44","","","","","","","","","","","","","","","",""
"","ITI","","html-keyboard-response","285","302095","0.0-1.0-405.0","0","0","35816","","null","","","null","44","","","","","","","","","","","","","","","NaN",""
"","S1","","html-keyboard-response","286","302348","0.0-1.0-407.0","0","0","35816","","null","","","null","45","","","","","","","","","","","","","","","",""
"","ISI","","html-keyboard-response","287","304350","0.0-1.0-408.0","0","0","35816","","null","","","null","45","NaN","","","","","","","","","","","","","","",""
"","S2","","html-keyboard-response","288","304603","0.0-1.0-409.0","0","0","35816","","null","","","null","45","","NaN","","","","","","","","","","","","","",""
"","response","","html-keyboard-response","289","305213","0.0-1.0-410.0-0.0","0","0","35816","","608","","","68","45","","","1","45","training","adjacent","GF","7","6","N.jpg","L.jpg","1","0","0","",""
"","feedback","","html-keyboard-response","290","306216","0.0-1.0-411.0-0.0","0","0","35816","","null","","","null","45","","","","","","","","","","","","","","","",""
"","time_out","","html-keyboard-response","291","308219","0.0-1.0-413.0-0.0","0","0","35816","","null","","","null","45","","","","","","","","","","","","","","","",""
"","ITI","","html-keyboard-response","292","309222","0.0-1.0-414.0","0","0","35816","","null","","","null","45","","","","","","","","","","","","","","","NaN",""
"","S1","","html-keyboard-response","293","309475","0.0-1.0-416.0","0","0","35816","","null","","","null","46","","","","","","","","","","","","","","","",""
"","ISI","","html-keyboard-response","294","311478","0.0-1.0-417.0","0","0","35816","","null","","","null","46","NaN","","","","","","","","","","","","","","",""
"","S2","","html-keyboard-response","295","311730","0.0-1.0-418.0","0","0","35816","","null","","","null","46","","NaN","","","","","","","","","","","","","",""
"","response","","html-keyboard-response","296","312578","0.0-1.0-419.0-0.0","0","0","35816","","845","","","68","46","","","1","46","training","adjacent","CB","3","2","Q.jpg","M.jpg","1","0","0","",""
"","feedback","","html-keyboard-response","297","313581","0.0-1.0-420.0-0.0","0","0","35816","","null","","","null","46","","","","","","","","","","","","","","","",""
"","time_out","","html-keyboard-response","298","315583","0.0-1.0-422.0-0.0","0","0","35816","","null","","","null","46","","","","","","","","","","","","","","","",""
"","ITI","","html-keyboard-response","299","316585","0.0-1.0-423.0","0","0","35816","","null","","","null","46","","","","","","","","","","","","","","","NaN",""
"","S1","","html-keyboard-response","300","316838","0.0-1.0-425.0","0","0","35816","","null","","","null","47","","","","","","","","","","","","","","","",""
"","ISI","","html-keyboard-response","301","318840","0.0-1.0-426.0","0","0","35816","","null","","","null","47","NaN","","","","","","","","","","","","","","",""
"","S2","","html-keyboard-response","302","319092","0.0-1.0-427.0","0","0","35816","","null","","","null","47","","NaN","","","","","","","","","","","","","",""
"","response","","html-keyboard-response","303","319467","0.0-1.0-428.0-0.0","0","0","35816","","373","","","68","47","","","1","47","training","adjacent","CB","3","2","Q.jpg","M.jpg","1","0","0","",""
"","feedback","","html-keyboard-response","304","320470","0.0-1.0-429.0-0.0","0","0","35816","","null","","","null","47","","","","","","","","","","","","","","","",""
"","time_out","","html-keyboard-response","305","322472","0.0-1.0-431.0-0.0","0","0","35816","","null","","","null","47","","","","","","","","","","","","","","","",""
"","ITI","","html-keyboard-response","306","323474","0.0-1.0-432.0","0","0","35816","","null","","","null","47","","","","","","","","","","","","","","","NaN",""
"","block_over","","html-keyboard-response","307","328131","0.0-1.0-433.0-0.0","0","0","35816","","4655","","","32","47","","","","","","","","","","","","","","","",""
"","S1","","html-keyboard-response","308","328384","0.0-1.0-434.0","0","0","35816","","null","","","null","48","","","","","","","","","","","","","","","",""
"","ISI","","html-keyboard-response","309","330386","0.0-1.0-435.0","0","0","35816","","null","","","null","48","NaN","","","","","","","","","","","","","","",""
"","S2","","html-keyboard-response","310","330638","0.0-1.0-436.0","0","0","35816","","null","","","null","48","","NaN","","","","","","","","","","","","","",""
"","response","","html-keyboard-response","311","331246","0.0-1.0-437.0-0.0","0","0","35816","","607","","","68","48","","","2","48","training","adjacent","CB","3","2","Q.jpg","M.jpg","1","0","0","",""
"","feedback","","html-keyboard-response","312","332248","0.0-1.0-438.0-0.0","0","0","35816","","null","","","null","48","","","","","","","","","","","","","","","",""
"","time_out","","html-keyboard-response","313","334251","0.0-1.0-440.0-0.0","0","0","35816","","null","","","null","48","","","","","","","","","","","","","","","",""
"","ITI","","html-keyboard-response","314","335253","0.0-1.0-441.0","0","0","35816","","null","","","null","48","","","","","","","","","","","","","","","NaN",""
"","S1","","html-keyboard-response","315","335513","0.0-1.0-443.0","0","0","35816","","null","","","null","49","","","","","","","","","","","","","","","",""
"","ISI","","html-keyboard-response","316","337515","0.0-1.0-444.0","0","0","35816","","null","","","null","49","NaN","","","","","","","","","","","","","","",""
"","S2","","html-keyboard-response","317","337768","0.0-1.0-445.0","0","0","35816","","null","","","null","49","","NaN","","","","","","","","","","","","","",""
"","response","","html-keyboard-response","318","338088","0.0-1.0-446.0-0.0","0","0","35816","","318","","","75","49","","","2","49","training","adjacent","CB","3","2","Q.jpg","M.jpg","0","0","1","",""
"","feedback","","html-keyboard-response","319","339090","0.0-1.0-447.0-0.0","0","0","35816","","null","","","null","49","","","","","","","","","","","","","","","",""
"","ITI","","html-keyboard-response","320","340091","0.0-1.0-450.0","0","0","35816","","null","","","null","49","","","","","","","","","","","","","","","NaN",""
"","S1","","html-keyboard-response","321","340344","0.0-1.0-452.0","0","0","35816","","null","","","null","50","","","","","","","","","","","","","","","",""
"","ISI","","html-keyboard-response","322","342346","0.0-1.0-453.0","0","0","35816","","null","","","null","50","NaN","","","","","","","","","","","","","","",""
"","S2","","html-keyboard-response","323","342599","0.0-1.0-454.0","0","0","35816","","null","","","null","50","","NaN","","","","","","","","","","","","","",""
"","response","","html-keyboard-response","324","343102","0.0-1.0-455.0-0.0","0","0","35816","","501","","","68","50","","","2","50","training","adjacent","DC","4","3","R.jpg","Q.jpg","1","0","0","",""
"","feedback","","html-keyboard-response","325","344104","0.0-1.0-456.0-0.0","0","0","35816","","null","","","null","50","","","","","","","","","","","","","","","",""
"","time_out","","html-keyboard-response","326","346107","0.0-1.0-458.0-0.0","0","0","35816","","null","","","null","50","","","","","","","","","","","","","","","",""
"","ITI","","html-keyboard-response","327","347110","0.0-1.0-459.0","0","0","35816","","null","","","null","50","","","","","","","","","","","","","","","NaN",""
"","S1","","html-keyboard-response","328","347363","0.0-1.0-461.0","0","0","35816","","null","","","null","51","","","","","","","","","","","","","","","",""
"","ISI","","html-keyboard-response","329","349365","0.0-1.0-462.0","0","0","35816","","null","","","null","51","NaN","","","","","","","","","","","","","","",""
"","S2","","html-keyboard-response","330","349620","0.0-1.0-463.0","0","0","35816","","null","","","null","51","","NaN","","","","","","","","","","","","","",""
"","response","","html-keyboard-response","331","350111","0.0-1.0-464.0-0.0","0","0","35816","","489","","","75","51","","","2","51","training","adjacent","BC","2","3","M.jpg","Q.jpg","0","1","0","",""
"","feedback","","html-keyboard-response","332","351113","0.0-1.0-465.0-0.0","0","0","35816","","null","","","null","51","","","","","","","","","","","","","","","",""
"","time_out","","html-keyboard-response","333","353117","0.0-1.0-467.0-0.0","0","0","35816","","null","","","null","51","","","","","","","","","","","","","","","",""
"","ITI","","html-keyboard-response","334","354120","0.0-1.0-468.0","0","0","35816","","null","","","null","51","","","","","","","","","","","","","","","NaN",""
"","S1","","html-keyboard-response","335","354372","0.0-1.0-470.0","0","0","35816","","null","","","null","52","","","","","","","","","","","","","","","",""
"","ISI","","html-keyboard-response","336","356375","0.0-1.0-471.0","0","0","35816","","null","","","null","52","NaN","","","","","","","","","","","","","","",""
"","S2","","html-keyboard-response","337","356627","0.0-1.0-472.0","0","0","35816","","null","","","null","52","","NaN","","","","","","","","","","","","","",""
"","response","","html-keyboard-response","338","357113","0.0-1.0-473.0-0.0","0","0","35816","","484","","","68","52","","","2","52","training","adjacent","DE","4","5","R.jpg","P.jpg","1","1","1","",""
"","feedback","","html-keyboard-response","339","358116","0.0-1.0-474.0-0.0","0","0","35816","","null","","","null","52","","","","","","","","","","","","","","","",""
"","ITI","","html-keyboard-response","340","359119","0.0-1.0-477.0","0","0","35816","","null","","","null","52","","","","","","","","","","","","","","","NaN",""
"","S1","","html-keyboard-response","341","359371","0.0-1.0-479.0","0","0","35816","","null","","","null","53","","","","","","","","","","","","","","","",""
"","ISI","","html-keyboard-response","342","361375","0.0-1.0-480.0","0","0","35816","","null","","","null","53","NaN","","","","","","","","","","","","","","",""
"","S2","","html-keyboard-response","343","361628","0.0-1.0-481.0","0","0","35816","","null","","","null","53","","NaN","","","","","","","","","","","","","",""
"","response","","html-keyboard-response","344","361825","0.0-1.0-482.0-0.0","0","0","35816","","196","","","75","53","","","2","53","training","adjacent","CB","3","2","Q.jpg","M.jpg","0","0","1","",""
"","feedback","","html-keyboard-response","345","362827","0.0-1.0-483.0-0.0","0","0","35816","","null","","","null","53","","","","","","","","","","","","","","","",""
"","ITI","","html-keyboard-response","346","363829","0.0-1.0-486.0","0","0","35816","","null","","","null","53","","","","","","","","","","","","","","","NaN",""
"","S1","","html-keyboard-response","347","364083","0.0-1.0-488.0","0","0","35816","","null","","","null","54","","","","","","","","","","","","","","","",""
"","ISI","","html-keyboard-response","348","366085","0.0-1.0-489.0","0","0","35816","","null","","","null","54","NaN","","","","","","","","","","","","","","",""
"","S2","","html-keyboard-response","349","366337","0.0-1.0-490.0","0","0","35816","","null","","","null","54","","NaN","","","","","","","","","","","","","",""
"","response","","html-keyboard-response","350","366698","0.0-1.0-491.0-0.0","0","0","35816","","359","","","68","54","","","2","54","training","adjacent","BC","2","3","M.jpg","Q.jpg","1","1","1","",""
"","feedback","","html-keyboard-response","351","367701","0.0-1.0-492.0-0.0","0","0","35816","","null","","","null","54","","","","","","","","","","","","","","","",""
"","ITI","","html-keyboard-response","352","368704","0.0-1.0-495.0","0","0","35816","","null","","","null","54","","","","","","","","","","","","","","","NaN",""
"","S1","","html-keyboard-response","353","368956","0.0-1.0-497.0","0","0","35816","","null","","","null","55","","","","","","","","","","","","","","","",""
"","ISI","","html-keyboard-response","354","370958","0.0-1.0-498.0","0","0","35816","","null","","","null","55","NaN","","","","","","","","","","","","","","",""
"","S2","","html-keyboard-response","355","371212","0.0-1.0-499.0","0","0","35816","","null","","","null","55","","NaN","","","","","","","","","","","","","",""
"","response","","html-keyboard-response","356","371553","0.0-1.0-500.0-0.0","0","0","35816","","340","","","68","55","","","2","55","training","adjacent","BC","2","3","M.jpg","Q.jpg","1","1","1","",""
"","feedback","","html-keyboard-response","357","372556","0.0-1.0-501.0-0.0","0","0","35816","","null","","","null","55","","","","","","","","","","","","","","","",""
"","ITI","","html-keyboard-response","358","373558","0.0-1.0-504.0","0","0","35816","","null","","","null","55","","","","","","","","","","","","","","","NaN",""
"","S1","","html-keyboard-response","359","373811","0.0-1.0-506.0","0","0","35816","","null","","","null","56","","","","","","","","","","","","","","","",""
"","ISI","","html-keyboard-response","360","375814","0.0-1.0-507.0","0","0","35816","","null","","","null","56","NaN","","","","","","","","","","","","","","",""
"","S2","","html-keyboard-response","361","376066","0.0-1.0-508.0","0","0","35816","","null","","","null","56","","NaN","","","","","","","","","","","","","",""
"","response","","html-keyboard-response","362","376956","0.0-1.0-509.0-0.0","0","0","35816","","888","","","75","56","","","2","56","training","adjacent","FE","6","5","L.jpg","P.jpg","0","0","1","",""
"","feedback","","html-keyboard-response","363","377958","0.0-1.0-510.0-0.0","0","0","35816","","null","","","null","56","","","","","","","","","","","","","","","",""
"","ITI","","html-keyboard-response","364","378960","0.0-1.0-513.0","0","0","35816","","null","","","null","56","","","","","","","","","","","","","","","NaN",""
"","S1","","html-keyboard-response","365","379213","0.0-1.0-515.0","0","0","35816","","null","","","null","57","","","","","","","","","","","","","","","",""
"","ISI","","html-keyboard-response","366","381215","0.0-1.0-516.0","0","0","35816","","null","","","null","57","NaN","","","","","","","","","","","","","","",""
"","S2","","html-keyboard-response","367","381475","0.0-1.0-517.0","0","0","35816","","null","","","null","57","","NaN","","","","","","","","","","","","","",""
"","response","","html-keyboard-response","368","381787","0.0-1.0-518.0-0.0","0","0","35816","","310","","","68","57","","","2","57","training","adjacent","DC","4","3","R.jpg","Q.jpg","1","0","0","",""
"","feedback","","html-keyboard-response","369","382789","0.0-1.0-519.0-0.0","0","0","35816","","null","","","null","57","","","","","","","","","","","","","","","",""
"","time_out","","html-keyboard-response","370","384791","0.0-1.0-521.0-0.0","0","0","35816","","null","","","null","57","","","","","","","","","","","","","","","",""
"","ITI","","html-keyboard-response","371","385795","0.0-1.0-522.0","0","0","35816","","null","","","null","57","","","","","","","","","","","","","","","NaN",""
"","S1","","html-keyboard-response","372","386048","0.0-1.0-524.0","0","0","35816","","null","","","null","58","","","","","","","","","","","","","","","",""
"","ISI","","html-keyboard-response","373","388050","0.0-1.0-525.0","0","0","35816","","null","","","null","58","NaN","","","","","","","","","","","","","","",""
"","S2","","html-keyboard-response","374","388302","0.0-1.0-526.0","0","0","35816","","null","","","null","58","","NaN","","","","","","","","","","","","","",""
"","response","","html-keyboard-response","375","388967","0.0-1.0-527.0-0.0","0","0","35816","","664","","","75","58","","","2","58","training","adjacent","EF","5","6","P.jpg","L.jpg","0","1","0","",""
"","feedback","","html-keyboard-response","376","389969","0.0-1.0-528.0-0.0","0","0","35816","","null","","","null","58","","","","","","","","","","","","","","","",""
"","time_out","","html-keyboard-response","377","391972","0.0-1.0-530.0-0.0","0","0","35816","","null","","","null","58","","","","","","","","","","","","","","","",""
"","ITI","","html-keyboard-response","378","392975","0.0-1.0-531.0","0","0","35816","","null","","","null","58","","","","","","","","","","","","","","","NaN",""
"","S1","","html-keyboard-response","379","393227","0.0-1.0-533.0","0","0","35816","","null","","","null","59","","","","","","","","","","","","","","","",""
"","ISI","","html-keyboard-response","380","395230","0.0-1.0-534.0","0","0","35816","","null","","","null","59","NaN","","","","","","","","","","","","","","",""
"","S2","","html-keyboard-response","381","395484","0.0-1.0-535.0","0","0","35816","","null","","","null","59","","NaN","","","","","","","","","","","","","",""
"","response","","html-keyboard-response","382","395900","0.0-1.0-536.0-0.0","0","0","35816","","415","","","68","59","","","2","59","training","adjacent","DE","4","5","R.jpg","P.jpg","1","1","1","",""
"","feedback","","html-keyboard-response","383","396902","0.0-1.0-537.0-0.0","0","0","35816","","null","","","null","59","","","","","","","","","","","","","","","",""
"","ITI","","html-keyboard-response","384","397906","0.0-1.0-540.0","0","0","35816","","null","","","null","59","","","","","","","","","","","","","","","NaN",""
"","S1","","html-keyboard-response","385","398158","0.0-1.0-542.0","0","0","35816","","null","","","null","60","","","","","","","","","","","","","","","",""
"","ISI","","html-keyboard-response","386","400162","0.0-1.0-543.0","0","0","35816","","null","","","null","60","NaN","","","","","","","","","","","","","","",""
"","S2","","html-keyboard-response","387","400414","0.0-1.0-544.0","0","0","35816","","null","","","null","60","","NaN","","","","","","","","","","","","","",""
"","response","","html-keyboard-response","388","401213","0.0-1.0-545.0-0.0","0","0","35816","","797","","","68","60","","","2","60","training","adjacent","FE","6","5","L.jpg","P.jpg","1","0","0","",""
"","feedback","","html-keyboard-response","389","402215","0.0-1.0-546.0-0.0","0","0","35816","","null","","","null","60","","","","","","","","","","","","","","","",""
"","time_out","","html-keyboard-response","390","404218","0.0-1.0-548.0-0.0","0","0","35816","","null","","","null","60","","","","","","","","","","","","","","","",""
"","ITI","","html-keyboard-response","391","405220","0.0-1.0-549.0","0","0","35816","","null","","","null","60","","","","","","","","","","","","","","","NaN",""
"","S1","","html-keyboard-response","392","405473","0.0-1.0-551.0","0","0","35816","","null","","","null","61","","","","","","","","","","","","","","","",""
"","ISI","","html-keyboard-response","393","407475","0.0-1.0-552.0","0","0","35816","","null","","","null","61","NaN","","","","","","","","","","","","","","",""
"","S2","","html-keyboard-response","394","407728","0.0-1.0-553.0","0","0","35816","","null","","","null","61","","NaN","","","","","","","","","","","","","",""
"","response","","html-keyboard-response","395","408183","0.0-1.0-554.0-0.0","0","0","35816","","453","","","68","61","","","2","61","training","adjacent","AB","1","2","O.jpg","M.jpg","1","1","1","",""
"","feedback","","html-keyboard-response","396","409186","0.0-1.0-555.0-0.0","0","0","35816","","null","","","null","61","","","","","","","","","","","","","","","",""
"","ITI","","html-keyboard-response","397","410189","0.0-1.0-558.0","0","0","35816","","null","","","null","61","","","","","","","","","","","","","","","NaN",""
"","S1","","html-keyboard-response","398","410442","0.0-1.0-560.0","0","0","35816","","null","","","null","62","","","","","","","","","","","","","","","",""
"","ISI","","html-keyboard-response","399","412445","0.0-1.0-561.0","0","0","35816","","null","","","null","62","NaN","","","","","","","","","","","","","","",""
"","S2","","html-keyboard-response","400","412697","0.0-1.0-562.0","0","0","35816","","null","","","null","62","","NaN","","","","","","","","","","","","","",""
"","response","","html-keyboard-response","401","412986","0.0-1.0-563.0-0.0","0","0","35816","","288","","","75","62","","","2","62","training","adjacent","CD","3","4","Q.jpg","R.jpg","0","1","0","",""
"","feedback","","html-keyboard-response","402","413989","0.0-1.0-564.0-0.0","0","0","35816","","null","","","null","62","","","","","","","","","","","","","","","",""
"","time_out","","html-keyboard-response","403","415995","0.0-1.0-566.0-0.0","0","0","35816","","null","","","null","62","","","","","","","","","","","","","","","",""
"","ITI","","html-keyboard-response","404","416998","0.0-1.0-567.0","0","0","35816","","null","","","null","62","","","","","","","","","","","","","","","NaN",""
"","S1","","html-keyboard-response","405","417251","0.0-1.0-569.0","0","0","35816","","null","","","null","63","","","","","","","","","","","","","","","",""
"","ISI","","html-keyboard-response","406","419253","0.0-1.0-570.0","0","0","35816","","null","","","null","63","NaN","","","","","","","","","","","","","","",""
"","S2","","html-keyboard-response","407","419511","0.0-1.0-571.0","0","0","35816","","null","","","null","63","","NaN","","","","","","","","","","","","","",""
"","response","","html-keyboard-response","408","419866","0.0-1.0-572.0-0.0","0","0","35816","","353","","","75","63","","","2","63","training","adjacent","AB","1","2","O.jpg","M.jpg","0","1","0","",""
"","feedback","","html-keyboard-response","409","420868","0.0-1.0-573.0-0.0","0","0","35816","","null","","","null","63","","","","","","","","","","","","","","","",""
"","time_out","","html-keyboard-response","410","422871","0.0-1.0-575.0-0.0","0","0","35816","","null","","","null","63","","","","","","","","","","","","","","","",""
"","ITI","","html-keyboard-response","411","423874","0.0-1.0-576.0","0","0","35816","","null","","","null","63","","","","","","","","","","","","","","","NaN",""
"","S1","","html-keyboard-response","412","424126","0.0-1.0-578.0","0","0","35816","","null","","","null","64","","","","","","","","","","","","","","","",""
"","ISI","","html-keyboard-response","413","426128","0.0-1.0-579.0","0","0","35816","","null","","","null","64","NaN","","","","","","","","","","","","","","",""
"","S2","","html-keyboard-response","414","426380","0.0-1.0-580.0","0","0","35816","","null","","","null","64","","NaN","","","","","","","","","","","","","",""
"","response","","html-keyboard-response","415","426863","0.0-1.0-581.0-0.0","0","0","35816","","482","","","75","64","","","2","64","training","adjacent","BA","2","1","M.jpg","O.jpg","0","0","1","",""
"","feedback","","html-keyboard-response","416","427867","0.0-1.0-582.0-0.0","0","0","35816","","null","","","null","64","","","","","","","","","","","","","","","",""
"","ITI","","html-keyboard-response","417","428876","0.0-1.0-585.0","0","0","35816","","null","","","null","64","","","","","","","","","","","","","","","NaN",""
"","S1","","html-keyboard-response","418","429129","0.0-1.0-587.0","0","0","35816","","null","","","null","65","","","","","","","","","","","","","","","",""
"","ISI","","html-keyboard-response","419","431132","0.0-1.0-588.0","0","0","35816","","null","","","null","65","NaN","","","","","","","","","","","","","","",""
"","S2","","html-keyboard-response","420","431385","0.0-1.0-589.0","0","0","35816","","null","","","null","65","","NaN","","","","","","","","","","","","","",""
"","response","","html-keyboard-response","421","431512","0.0-1.0-590.0-0.0","0","0","35816","","126","","","75","65","","","2","65","training","adjacent","BA","2","1","M.jpg","O.jpg","0","0","1","",""
"","feedback","","html-keyboard-response","422","432515","0.0-1.0-591.0-0.0","0","0","35816","","null","","","null","65","","","","","","","","","","","","","","","",""
"","ITI","","html-keyboard-response","423","433518","0.0-1.0-594.0","0","0","35816","","null","","","null","65","","","","","","","","","","","","","","","NaN",""
"","S1","","html-keyboard-response","424","433771","0.0-1.0-596.0","0","0","35816","","null","","","null","66","","","","","","","","","","","","","","","",""
"","ISI","","html-keyboard-response","425","435773","0.0-1.0-597.0","0","0","35816","","null","","","null","66","NaN","","","","","","","","","","","","","","",""
"","S2","","html-keyboard-response","426","436026","0.0-1.0-598.0","0","0","35816","","null","","","null","66","","NaN","","","","","","","","","","","","","",""
"","response","","html-keyboard-response","427","436304","0.0-1.0-599.0-0.0","0","0","35816","","276","","","68","66","","","2","66","training","adjacent","AB","1","2","O.jpg","M.jpg","1","1","1","",""
"","feedback","","html-keyboard-response","428","437306","0.0-1.0-600.0-0.0","0","0","35816","","null","","","null","66","","","","","","","","","","","","","","","",""
"","ITI","","html-keyboard-response","429","438308","0.0-1.0-603.0","0","0","35816","","null","","","null","66","","","","","","","","","","","","","","","NaN",""
"","S1","","html-keyboard-response","430","438561","0.0-1.0-605.0","0","0","35816","","null","","","null","67","","","","","","","","","","","","","","","",""
"","ISI","","html-keyboard-response","431","440564","0.0-1.0-606.0","0","0","35816","","null","","","null","67","NaN","","","","","","","","","","","","","","",""
"","S2","","html-keyboard-response","432","440817","0.0-1.0-607.0","0","0","35816","","null","","","null","67","","NaN","","","","","","","","","","","","","",""
"","response","","html-keyboard-response","433","441111","0.0-1.0-608.0-0.0","0","0","35816","","293","","","68","67","","","2","67","training","adjacent","CB","3","2","Q.jpg","M.jpg","1","0","0","",""
"","feedback","","html-keyboard-response","434","442114","0.0-1.0-609.0-0.0","0","0","35816","","null","","","null","67","","","","","","","","","","","","","","","",""
"","time_out","","html-keyboard-response","435","444117","0.0-1.0-611.0-0.0","0","0","35816","","null","","","null","67","","","","","","","","","","","","","","","",""
"","ITI","","html-keyboard-response","436","445136","0.0-1.0-612.0","0","0","35816","","null","","","null","67","","","","","","","","","","","","","","","NaN",""
"","S1","","html-keyboard-response","437","445389","0.0-1.0-614.0","0","0","35816","","null","","","null","68","","","","","","","","","","","","","","","",""
"","ISI","","html-keyboard-response","438","447391","0.0-1.0-615.0","0","0","35816","","null","","","null","68","NaN","","","","","","","","","","","","","","",""
"","S2","","html-keyboard-response","439","447651","0.0-1.0-616.0","0","0","35816","","null","","","null","68","","NaN","","","","","","","","","","","","","",""
"","response","","html-keyboard-response","440","448512","0.0-1.0-617.0-0.0","0","0","35816","","859","","","75","68","","","2","68","training","adjacent","FG","6","7","L.jpg","N.jpg","0","1","0","",""
"","feedback","","html-keyboard-response","441","449515","0.0-1.0-618.0-0.0","0","0","35816","","null","","","null","68","","","","","","","","","","","","","","","",""
"","time_out","","html-keyboard-response","442","451517","0.0-1.0-620.0-0.0","0","0","35816","","null","","","null","68","","","","","","","","","","","","","","","",""
"","ITI","","html-keyboard-response","443","452519","0.0-1.0-621.0","0","0","35816","","null","","","null","68","","","","","","","","","","","","","","","NaN",""
"","S1","","html-keyboard-response","444","452772","0.0-1.0-623.0","0","0","35816","","null","","","null","69","","","","","","","","","","","","","","","",""
"","ISI","","html-keyboard-response","445","454774","0.0-1.0-624.0","0","0","35816","","null","","","null","69","NaN","","","","","","","","","","","","","","",""
"","S2","","html-keyboard-response","446","455026","0.0-1.0-625.0","0","0","35816","","null","","","null","69","","NaN","","","","","","","","","","","","","",""
"","response","","html-keyboard-response","447","456086","0.0-1.0-626.0-0.0","0","0","35816","","1058","","","75","69","","","2","69","training","adjacent","GF","7","6","N.jpg","L.jpg","0","0","1","",""
"","feedback","","html-keyboard-response","448","457089","0.0-1.0-627.0-0.0","0","0","35816","","null","","","null","69","","","","","","","","","","","","","","","",""
"","ITI","","html-keyboard-response","449","458092","0.0-1.0-630.0","0","0","35816","","null","","","null","69","","","","","","","","","","","","","","","NaN",""
"","S1","","html-keyboard-response","450","458344","0.0-1.0-632.0","0","0","35816","","null","","","null","70","","","","","","","","","","","","","","","",""
"","ISI","","html-keyboard-response","451","460346","0.0-1.0-633.0","0","0","35816","","null","","","null","70","NaN","","","","","","","","","","","","","","",""
"","S2","","html-keyboard-response","452","460599","0.0-1.0-634.0","0","0","35816","","null","","","null","70","","NaN","","","","","","","","","","","","","",""
"","response","","html-keyboard-response","453","461385","0.0-1.0-635.0-0.0","0","0","35816","","784","","","75","70","","","2","70","training","adjacent","BA","2","1","M.jpg","O.jpg","0","0","1","",""
"","feedback","","html-keyboard-response","454","462388","0.0-1.0-636.0-0.0","0","0","35816","","null","","","null","70","","","","","","","","","","","","","","","",""
"","ITI","","html-keyboard-response","455","463391","0.0-1.0-639.0","0","0","35816","","null","","","null","70","","","","","","","","","","","","","","","NaN",""
"","S1","","html-keyboard-response","456","463643","0.0-1.0-641.0","0","0","35816","","null","","","null","71","","","","","","","","","","","","","","","",""
"","ISI","","html-keyboard-response","457","465646","0.0-1.0-642.0","0","0","35816","","null","","","null","71","NaN","","","","","","","","","","","","","","",""
"","S2","","html-keyboard-response","458","465900","0.0-1.0-643.0","0","0","35816","","null","","","null","71","","NaN","","","","","","","","","","","","","",""
"","response","","html-keyboard-response","459","466483","0.0-1.0-644.0-0.0","0","0","35816","","582","","","75","71","","","2","71","training","adjacent","EF","5","6","P.jpg","L.jpg","0","1","0","",""
"","feedback","","html-keyboard-response","460","467485","0.0-1.0-645.0-0.0","0","0","35816","","null","","","null","71","","","","","","","","","","","","","","","",""
"","time_out","","html-keyboard-response","461","469488","0.0-1.0-647.0-0.0","0","0","35816","","null","","","null","71","","","","","","","","","","","","","","","",""
"","ITI","","html-keyboard-response","462","470490","0.0-1.0-648.0","0","0","35816","","null","","","null","71","","","","","","","","","","","","","","","NaN",""
"","S1","","html-keyboard-response","463","470744","0.0-1.0-650.0","0","0","35816","","null","","","null","72","","","","","","","","","","","","","","","",""
"","ISI","","html-keyboard-response","464","472746","0.0-1.0-651.0","0","0","35816","","null","","","null","72","NaN","","","","","","","","","","","","","","",""
"","S2","","html-keyboard-response","465","472999","0.0-1.0-652.0","0","0","35816","","null","","","null","72","","NaN","","","","","","","","","","","","","",""
"","response","","html-keyboard-response","466","473400","0.0-1.0-653.0-0.0","0","0","35816","","399","","","75","72","","","2","72","training","adjacent","BA","2","1","M.jpg","O.jpg","0","0","1","",""
"","feedback","","html-keyboard-response","467","474403","0.0-1.0-654.0-0.0","0","0","35816","","null","","","null","72","","","","","","","","","","","","","","","",""
"","ITI","","html-keyboard-response","468","475406","0.0-1.0-657.0","0","0","35816","","null","","","null","72","","","","","","","","","","","","","","","NaN",""
"","S1","","html-keyboard-response","469","475659","0.0-1.0-659.0","0","0","35816","","null","","","null","73","","","","","","","","","","","","","","","",""
"","ISI","","html-keyboard-response","470","477661","0.0-1.0-660.0","0","0","35816","","null","","","null","73","NaN","","","","","","","","","","","","","","",""
"","S2","","html-keyboard-response","471","477925","0.0-1.0-661.0","0","0","35816","","null","","","null","73","","NaN","","","","","","","","","","","","","",""
"","response","","html-keyboard-response","472","478317","0.0-1.0-662.0-0.0","0","0","35816","","390","","","68","73","","","2","73","training","adjacent","FE","6","5","L.jpg","P.jpg","1","0","0","",""
"","feedback","","html-keyboard-response","473","479320","0.0-1.0-663.0-0.0","0","0","35816","","null","","","null","73","","","","","","","","","","","","","","","",""
"","time_out","","html-keyboard-response","474","481322","0.0-1.0-665.0-0.0","0","0","35816","","null","","","null","73","","","","","","","","","","","","","","","",""
"","ITI","","html-keyboard-response","475","482325","0.0-1.0-666.0","0","0","35816","","null","","","null","73","","","","","","","","","","","","","","","NaN",""
"","S1","","html-keyboard-response","476","482578","0.0-1.0-668.0","0","0","35816","","null","","","null","74","","","","","","","","","","","","","","","",""
"","ISI","","html-keyboard-response","477","484580","0.0-1.0-669.0","0","0","35816","","null","","","null","74","NaN","","","","","","","","","","","","","","",""
"","S2","","html-keyboard-response","478","484833","0.0-1.0-670.0","0","0","35816","","null","","","null","74","","NaN","","","","","","","","","","","","","",""
"","response","","html-keyboard-response","479","486112","0.0-1.0-671.0-0.0","0","0","35816","","1278","","","75","74","","","2","74","training","adjacent","DC","4","3","R.jpg","Q.jpg","0","0","1","",""
"","feedback","","html-keyboard-response","480","487115","0.0-1.0-672.0-0.0","0","0","35816","","null","","","null","74","","","","","","","","","","","","","","","",""
"","ITI","","html-keyboard-response","481","488118","0.0-1.0-675.0","0","0","35816","","null","","","null","74","","","","","","","","","","","","","","","NaN",""
"","S1","","html-keyboard-response","482","488370","0.0-1.0-677.0","0","0","35816","","null","","","null","75","","","","","","","","","","","","","","","",""
"","ISI","","html-keyboard-response","483","490373","0.0-1.0-678.0","0","0","35816","","null","","","null","75","NaN","","","","","","","","","","","","","","",""
"","S2","","html-keyboard-response","484","490625","0.0-1.0-679.0","0","0","35816","","null","","","null","75","","NaN","","","","","","","","","","","","","",""
"","response","","html-keyboard-response","485","491049","0.0-1.0-680.0-0.0","0","0","35816","","423","","","75","75","","","2","75","training","adjacent","ED","5","4","P.jpg","R.jpg","0","0","1","",""
"","feedback","","html-keyboard-response","486","492050","0.0-1.0-681.0-0.0","0","0","35816","","null","","","null","75","","","","","","","","","","","","","","","",""
"","ITI","","html-keyboard-response","487","493053","0.0-1.0-684.0","0","0","35816","","null","","","null","75","","","","","","","","","","","","","","","NaN",""
"","S1","","html-keyboard-response","488","493306","0.0-1.0-686.0","0","0","35816","","null","","","null","76","","","","","","","","","","","","","","","",""
"","ISI","","html-keyboard-response","489","495308","0.0-1.0-687.0","0","0","35816","","null","","","null","76","NaN","","","","","","","","","","","","","","",""
"","S2","","html-keyboard-response","490","495559","0.0-1.0-688.0","0","0","35816","","null","","","null","76","","NaN","","","","","","","","","","","","","",""
"","response","","html-keyboard-response","491","495887","0.0-1.0-689.0-0.0","0","0","35816","","327","","","68","76","","","2","76","training","adjacent","AB","1","2","O.jpg","M.jpg","1","1","1","",""
"","feedback","","html-keyboard-response","492","496890","0.0-1.0-690.0-0.0","0","0","35816","","null","","","null","76","","","","","","","","","","","","","","","",""
"","ITI","","html-keyboard-response","493","497892","0.0-1.0-693.0","0","0","35816","","null","","","null","76","","","","","","","","","","","","","","","NaN",""
"","S1","","html-keyboard-response","494","498145","0.0-1.0-695.0","0","0","35816","","null","","","null","77","","","","","","","","","","","","","","","",""
"","ISI","","html-keyboard-response","495","500146","0.0-1.0-696.0","0","0","35816","","null","","","null","77","NaN","","","","","","","","","","","","","","",""
"","S2","","html-keyboard-response","496","500399","0.0-1.0-697.0","0","0","35816","","null","","","null","77","","NaN","","","","","","","","","","","","","",""
"","response","","html-keyboard-response","497","501009","0.0-1.0-698.0-0.0","0","0","35816","","608","","","75","77","","","2","77","training","adjacent","ED","5","4","P.jpg","R.jpg","0","0","1","",""
"","feedback","","html-keyboard-response","498","502012","0.0-1.0-699.0-0.0","0","0","35816","","null","","","null","77","","","","","","","","","","","","","","","",""
"","ITI","","html-keyboard-response","499","503014","0.0-1.0-702.0","0","0","35816","","null","","","null","77","","","","","","","","","","","","","","","NaN",""
"","S1","","html-keyboard-response","500","503267","0.0-1.0-704.0","0","0","35816","","null","","","null","78","","","","","","","","","","","","","","","",""
"","ISI","","html-keyboard-response","501","505269","0.0-1.0-705.0","0","0","35816","","null","","","null","78","NaN","","","","","","","","","","","","","","",""
"","S2","","html-keyboard-response","502","505533","0.0-1.0-706.0","0","0","35816","","null","","","null","78","","NaN","","","","","","","","","","","","","",""
"","response","","html-keyboard-response","503","506032","0.0-1.0-707.0-0.0","0","0","35816","","498","","","75","78","","","2","78","training","adjacent","ED","5","4","P.jpg","R.jpg","0","0","1","",""
"","feedback","","html-keyboard-response","504","507034","0.0-1.0-708.0-0.0","0","0","35816","","null","","","null","78","","","","","","","","","","","","","","","",""
"","ITI","","html-keyboard-response","505","508037","0.0-1.0-711.0","0","0","35816","","null","","","null","78","","","","","","","","","","","","","","","NaN",""
"","S1","","html-keyboard-response","506","508300","0.0-1.0-713.0","0","0","35816","","null","","","null","79","","","","","","","","","","","","","","","",""
"","ISI","","html-keyboard-response","507","510302","0.0-1.0-714.0","0","0","35816","","null","","","null","79","NaN","","","","","","","","","","","","","","",""
"","S2","","html-keyboard-response","508","510554","0.0-1.0-715.0","0","0","35816","","null","","","null","79","","NaN","","","","","","","","","","","","","",""
"","response","","html-keyboard-response","509","511140","0.0-1.0-716.0-0.0","0","0","35816","","584","","","68","79","","","2","79","training","adjacent","FG","6","7","L.jpg","N.jpg","1","1","1","",""
"","feedback","","html-keyboard-response","510","512143","0.0-1.0-717.0-0.0","0","0","35816","","null","","","null","79","","","","","","","","","","","","","","","",""
"","ITI","","html-keyboard-response","511","513146","0.0-1.0-720.0","0","0","35816","","null","","","null","79","","","","","","","","","","","","","","","NaN",""
"","S1","","html-keyboard-response","512","513399","0.0-1.0-722.0","0","0","35816","","null","","","null","80","","","","","","","","","","","","","","","",""
"","ISI","","html-keyboard-response","513","515400","0.0-1.0-723.0","0","0","35816","","null","","","null","80","NaN","","","","","","","","","","","","","","",""
"","S2","","html-keyboard-response","514","515654","0.0-1.0-724.0","0","0","35816","","null","","","null","80","","NaN","","","","","","","","","","","","","",""
"","response","","html-keyboard-response","515","516089","0.0-1.0-725.0-0.0","0","0","35816","","434","","","68","80","","","2","80","training","adjacent","GF","7","6","N.jpg","L.jpg","1","0","0","",""
"","feedback","","html-keyboard-response","516","517093","0.0-1.0-726.0-0.0","0","0","35816","","null","","","null","80","","","","","","","","","","","","","","","",""
"","time_out","","html-keyboard-response","517","519096","0.0-1.0-728.0-0.0","0","0","35816","","null","","","null","80","","","","","","","","","","","","","","","",""
"","ITI","","html-keyboard-response","518","520099","0.0-1.0-729.0","0","0","35816","","null","","","null","80","","","","","","","","","","","","","","","NaN",""
"","S1","","html-keyboard-response","519","520352","0.0-1.0-731.0","0","0","35816","","null","","","null","81","","","","","","","","","","","","","","","",""
"","ISI","","html-keyboard-response","520","522355","0.0-1.0-732.0","0","0","35816","","null","","","null","81","NaN","","","","","","","","","","","","","","",""
"","S2","","html-keyboard-response","521","522607","0.0-1.0-733.0","0","0","35816","","null","","","null","81","","NaN","","","","","","","","","","","","","",""
"","response","","html-keyboard-response","522","523262","0.0-1.0-734.0-0.0","0","0","35816","","653","","","68","81","","","2","81","training","adjacent","DC","4","3","R.jpg","Q.jpg","1","0","0","",""
"","feedback","","html-keyboard-response","523","524264","0.0-1.0-735.0-0.0","0","0","35816","","null","","","null","81","","","","","","","","","","","","","","","",""
"","time_out","","html-keyboard-response","524","526267","0.0-1.0-737.0-0.0","0","0","35816","","null","","","null","81","","","","","","","","","","","","","","","",""
"","ITI","","html-keyboard-response","525","527270","0.0-1.0-738.0","0","0","35816","","null","","","null","81","","","","","","","","","","","","","","","NaN",""
"","S1","","html-keyboard-response","526","527522","0.0-1.0-740.0","0","0","35816","","null","","","null","82","","","","","","","","","","","","","","","",""
"","ISI","","html-keyboard-response","527","529524","0.0-1.0-741.0","0","0","35816","","null","","","null","82","NaN","","","","","","","","","","","","","","",""
"","S2","","html-keyboard-response","528","529777","0.0-1.0-742.0","0","0","35816","","null","","","null","82","","NaN","","","","","","","","","","","","","",""
"","response","","html-keyboard-response","529","530132","0.0-1.0-743.0-0.0","0","0","35816","","353","","","68","82","","","2","82","training","adjacent","GF","7","6","N.jpg","L.jpg","1","0","0","",""
"","feedback","","html-keyboard-response","530","531135","0.0-1.0-744.0-0.0","0","0","35816","","null","","","null","82","","","","","","","","","","","","","","","",""
"","time_out","","html-keyboard-response","531","533138","0.0-1.0-746.0-0.0","0","0","35816","","null","","","null","82","","","","","","","","","","","","","","","",""
"","ITI","","html-keyboard-response","532","534141","0.0-1.0-747.0","0","0","35816","","null","","","null","82","","","","","","","","","","","","","","","NaN",""
"","S1","","html-keyboard-response","533","534393","0.0-1.0-749.0","0","0","35816","","null","","","null","83","","","","","","","","","","","","","","","",""
"","ISI","","html-keyboard-response","534","536395","0.0-1.0-750.0","0","0","35816","","null","","","null","83","NaN","","","","","","","","","","","","","","",""
"","S2","","html-keyboard-response","535","536648","0.0-1.0-751.0","0","0","35816","","null","","","null","83","","NaN","","","","","","","","","","","","","",""
"","response","","html-keyboard-response","536","537175","0.0-1.0-752.0-0.0","0","0","35816","","526","","","75","83","","","2","83","training","adjacent","BC","2","3","M.jpg","Q.jpg","0","1","0","",""
"","feedback","","html-keyboard-response","537","538177","0.0-1.0-753.0-0.0","0","0","35816","","null","","","null","83","","","","","","","","","","","","","","","",""
"","time_out","","html-keyboard-response","538","540179","0.0-1.0-755.0-0.0","0","0","35816","","null","","","null","83","","","","","","","","","","","","","","","",""
"","ITI","","html-keyboard-response","539","541182","0.0-1.0-756.0","0","0","35816","","null","","","null","83","","","","","","","","","","","","","","","NaN",""
"","S1","","html-keyboard-response","540","541434","0.0-1.0-758.0","0","0","35816","","null","","","null","84","","","","","","","","","","","","","","","",""
"","ISI","","html-keyboard-response","541","543437","0.0-1.0-759.0","0","0","35816","","null","","","null","84","NaN","","","","","","","","","","","","","","",""
"","S2","","html-keyboard-response","542","543690","0.0-1.0-760.0","0","0","35816","","null","","","null","84","","NaN","","","","","","","","","","","","","",""
"","response","","html-keyboard-response","543","544260","0.0-1.0-761.0-0.0","0","0","35816","","568","","","68","84","","","2","84","training","adjacent","CD","3","4","Q.jpg","R.jpg","1","1","1","",""
"","feedback","","html-keyboard-response","544","545262","0.0-1.0-762.0-0.0","0","0","35816","","null","","","null","84","","","","","","","","","","","","","","","",""
"","ITI","","html-keyboard-response","545","546265","0.0-1.0-765.0","0","0","35816","","null","","","null","84","","","","","","","","","","","","","","","NaN",""
"","S1","","html-keyboard-response","546","546517","0.0-1.0-767.0","0","0","35816","","null","","","null","85","","","","","","","","","","","","","","","",""
"","ISI","","html-keyboard-response","547","548529","0.0-1.0-768.0","0","0","35816","","null","","","null","85","NaN","","","","","","","","","","","","","","",""
"","S2","","html-keyboard-response","548","548781","0.0-1.0-769.0","0","0","35816","","null","","","null","85","","NaN","","","","","","","","","","","","","",""
"","response","","html-keyboard-response","549","549081","0.0-1.0-770.0-0.0","0","0","35816","","299","","","68","85","","","2","85","training","adjacent","EF","5","6","P.jpg","L.jpg","1","1","1","",""
"","feedback","","html-keyboard-response","550","550084","0.0-1.0-771.0-0.0","0","0","35816","","null","","","null","85","","","","","","","","","","","","","","","",""
"","ITI","","html-keyboard-response","551","551087","0.0-1.0-774.0","0","0","35816","","null","","","null","85","","","","","","","","","","","","","","","NaN",""
"","S1","","html-keyboard-response","552","551341","0.0-1.0-776.0","0","0","35816","","null","","","null","86","","","","","","","","","","","","","","","",""
"","ISI","","html-keyboard-response","553","553344","0.0-1.0-777.0","0","0","35816","","null","","","null","86","NaN","","","","","","","","","","","","","","",""
"","S2","","html-keyboard-response","554","553609","0.0-1.0-778.0","0","0","35816","","null","","","null","86","","NaN","","","","","","","","","","","","","",""
"","response","","html-keyboard-response","555","553714","0.0-1.0-779.0-0.0","0","0","35816","","104","","","68","86","","","2","86","training","adjacent","EF","5","6","P.jpg","L.jpg","1","1","1","",""
"","feedback","","html-keyboard-response","556","554717","0.0-1.0-780.0-0.0","0","0","35816","","null","","","null","86","","","","","","","","","","","","","","","",""
"","ITI","","html-keyboard-response","557","555720","0.0-1.0-783.0","0","0","35816","","null","","","null","86","","","","","","","","","","","","","","","NaN",""
"","S1","","html-keyboard-response","558","555973","0.0-1.0-785.0","0","0","35816","","null","","","null","87","","","","","","","","","","","","","","","",""
"","ISI","","html-keyboard-response","559","557976","0.0-1.0-786.0","0","0","35816","","null","","","null","87","NaN","","","","","","","","","","","","","","",""
"","S2","","html-keyboard-response","560","558229","0.0-1.0-787.0","0","0","35816","","null","","","null","87","","NaN","","","","","","","","","","","","","",""
"","response","","html-keyboard-response","561","558688","0.0-1.0-788.0-0.0","0","0","35816","","458","","","75","87","","","2","87","training","adjacent","FG","6","7","L.jpg","N.jpg","0","1","0","",""
"","feedback","","html-keyboard-response","562","559690","0.0-1.0-789.0-0.0","0","0","35816","","null","","","null","87","","","","","","","","","","","","","","","",""
"","time_out","","html-keyboard-response","563","561693","0.0-1.0-791.0-0.0","0","0","35816","","null","","","null","87","","","","","","","","","","","","","","","",""
"","ITI","","html-keyboard-response","564","562695","0.0-1.0-792.0","0","0","35816","","null","","","null","87","","","","","","","","","","","","","","","NaN",""
"","S1","","html-keyboard-response","565","562947","0.0-1.0-794.0","0","0","35816","","null","","","null","88","","","","","","","","","","","","","","","",""
"","ISI","","html-keyboard-response","566","564950","0.0-1.0-795.0","0","0","35816","","null","","","null","88","NaN","","","","","","","","","","","","","","",""
"","S2","","html-keyboard-response","567","565202","0.0-1.0-796.0","0","0","35816","","null","","","null","88","","NaN","","","","","","","","","","","","","",""
"","response","","html-keyboard-response","568","566321","0.0-1.0-797.0-0.0","0","0","35816","","1117","","","75","88","","","2","88","training","adjacent","FE","6","5","L.jpg","P.jpg","0","0","1","",""
"","feedback","","html-keyboard-response","569","567324","0.0-1.0-798.0-0.0","0","0","35816","","null","","","null","88","","","","","","","","","","","","","","","",""
"","ITI","","html-keyboard-response","570","568327","0.0-1.0-801.0","0","0","35816","","null","","","null","88","","","","","","","","","","","","","","","NaN",""
"","S1","","html-keyboard-response","571","568579","0.0-1.0-803.0","0","0","35816","","null","","","null","89","","","","","","","","","","","","","","","",""
"","ISI","","html-keyboard-response","572","570582","0.0-1.0-804.0","0","0","35816","","null","","","null","89","NaN","","","","","","","","","","","","","","",""
"","S2","","html-keyboard-response","573","570835","0.0-1.0-805.0","0","0","35816","","null","","","null","89","","NaN","","","","","","","","","","","","","",""
"","response","","html-keyboard-response","574","571127","0.0-1.0-806.0-0.0","0","0","35816","","290","","","68","89","","","2","89","training","adjacent","DE","4","5","R.jpg","P.jpg","1","1","1","",""
"","feedback","","html-keyboard-response","575","572130","0.0-1.0-807.0-0.0","0","0","35816","","null","","","null","89","","","","","","","","","","","","","","","",""
"","ITI","","html-keyboard-response","576","573132","0.0-1.0-810.0","0","0","35816","","null","","","null","89","","","","","","","","","","","","","","","NaN",""
"","S1","","html-keyboard-response","577","573385","0.0-1.0-812.0","0","0","35816","","null","","","null","90","","","","","","","","","","","","","","","",""
"","ISI","","html-keyboard-response","578","575387","0.0-1.0-813.0","0","0","35816","","null","","","null","90","NaN","","","","","","","","","","","","","","",""
"","S2","","html-keyboard-response","579","575640","0.0-1.0-814.0","0","0","35816","","null","","","null","90","","NaN","","","","","","","","","","","","","",""
"","response","","html-keyboard-response","580","575953","0.0-1.0-815.0-0.0","0","0","35816","","312","","","68","90","","","2","90","training","adjacent","DE","4","5","R.jpg","P.jpg","1","1","1","",""
"","feedback","","html-keyboard-response","581","576957","0.0-1.0-816.0-0.0","0","0","35816","","null","","","null","90","","","","","","","","","","","","","","","",""
"","ITI","","html-keyboard-response","582","577960","0.0-1.0-819.0","0","0","35816","","null","","","null","90","","","","","","","","","","","","","","","NaN",""
