"success","ttype","start_time","trial_type","trial_index","time_elapsed","internal_node_id","warning","missed_checkup","PID","view_history","rt","responses","repeat_instructions","key_press","index","keypress_isi","keypress_S2","block","trial_num","phase","group_type","pair_type","S1_stim","S2_stim","S1_img","S2_img","S1_chosen","S1_higher","accuracy","keypress_iti","total_bonus_tally"
"true","full_screen","d04072023hr0021","fullscreen","0","4773","0.0-0.0","0","0","51557","","","","","","","","","","","","","","","","","","","","","",""
"","instructions","","instructions","1","46259","0.0-1.0-0.0-0.0","0","0","51557","[{""page_index"":0,""viewing_time"":5941},{""page_index"":1,""viewing_time"":20100},{""page_index"":2,""viewing_time"":13413},{""page_index"":3,""viewing_time"":2023}]","41479","","","","","","","","","","","","","","","","","","","",""
"","comprehension_check","","survey-multi-choice","2","75198","0.0-1.0-0.0-1.0","0","0","51557","","28922","{""Q0"":""True"",""Q1"":""K"",""Q2"":""Only when the screen 'MAKE A CHOICE' is shown"",""Q3"":""Green mark"",""Q4"":""either D or K""}","1","","","","","","","","","","","","","","","","","",""
"","missed_instruction_checkup","","html-keyboard-response","3","78172","0.0-1.0-0.0-2.0-0.0","0","1","51557","","2960","","","32","","","","","","","","","","","","","","","","",""
"","instructions","","instructions","4","83726","0.0-1.0-0.1-0.1","0","0","51557","[{""page_index"":0,""viewing_time"":3028},{""page_index"":1,""viewing_time"":674},{""page_index"":2,""viewing_time"":880},{""page_index"":3,""viewing_time"":966}]","5549","","","","","","","","","","","","","","","","","","","",""
"","comprehension_check","","survey-multi-choice","5","102765","0.0-1.0-0.1-1.1","0","0","51557","","19013","{""Q0"":""True"",""Q1"":""K"",""Q2"":""Once the second image appears and while the screen 'MAKE A CHOICE' is shown"",""Q3"":""Green mark"",""Q4"":""either D or K""}","0","","","","","","","","","","","","","","","","","",""
"","start_exp","","html-keyboard-response","6","105128","0.0-1.0-1.0","0","0","51557","","2350","","","32","","","","","","","","","","","","","","","","",""
"","S1","","html-keyboard-response","7","105297","0.0-1.0-2.0","0","0","51557","","null","","","null","0","","","","","","","","","","","","","","","",""
"","ISI","","html-keyboard-response","8","107424","0.0-1.0-3.0","0","0","51557","","null","","","null","0","NaN","","","","","","","","","","","","","","",""
"","S2","","html-keyboard-response","9","107587","0.0-1.0-4.0","0","0","51557","","null","","","null","0","","NaN","","","","","","","","","","","","","",""
"","response","","html-keyboard-response","10","109140","0.0-1.0-5.0-0.0","0","0","51557","","1547","","","75","0","","","1","0","training","adjacent","CB","3","2","M.jpg","L.jpg","1","0","0","",""
"","feedback","","html-keyboard-response","11","110146","0.0-1.0-6.0-0.0","0","0","51557","","null","","","null","0","","","","","","","","","","","","","","","",""
"","time_out","","html-keyboard-response","12","112155","0.0-1.0-8.0-0.0","0","0","51557","","null","","","null","0","","","","","","","","","","","","","","","",""
"","ITI","","html-keyboard-response","13","113459","0.0-1.0-9.0","0","0","51557","","null","","","null","0","","","","","","","","","","","","","","","NaN",""
"","S1","","html-keyboard-response","14","113618","0.0-1.0-11.0","0","0","51557","","null","","","null","1","","","","","","","","","","","","","","","",""
"","ISI","","html-keyboard-response","15","115626","0.0-1.0-12.0","0","0","51557","","null","","","null","1","NaN","","","","","","","","","","","","","","",""
"","S2","","html-keyboard-response","16","115787","0.0-1.0-13.0","0","0","51557","","null","","","null","1","","NaN","","","","","","","","","","","","","",""
"","response","","html-keyboard-response","17","117079","0.0-1.0-14.0-0.0","0","0","51557","","1286","","","68","1","","","1","1","training","adjacent","AB","1","2","P.jpg","L.jpg","0","1","0","",""
"","feedback","","html-keyboard-response","18","118091","0.0-1.0-15.0-0.0","0","0","51557","","null","","","null","1","","","","","","","","","","","","","","","",""
"","time_out","","html-keyboard-response","19","120099","0.0-1.0-17.0-0.0","0","0","51557","","null","","","null","1","","","","","","","","","","","","","","","",""
"","ITI","","html-keyboard-response","20","121107","0.0-1.0-18.0","0","0","51557","","null","","","null","1","","","","","","","","","","","","","","","NaN",""
"","S1","","html-keyboard-response","21","121483","0.0-1.0-20.0","0","0","51557","","null","","","null","2","","","","","","","","","","","","","","","",""
"","ISI","","html-keyboard-response","22","123491","0.0-1.0-21.0","0","0","51557","","null","","","null","2","NaN","","","","","","","","","","","","","","",""
"","S2","","html-keyboard-response","23","123663","0.0-1.0-22.0","0","0","51557","","null","","","null","2","","NaN","","","","","","","","","","","","","",""
"","response","","html-keyboard-response","24","124779","0.0-1.0-23.0-0.0","0","0","51557","","1112","","","75","2","","","1","2","training","adjacent","DC","4","3","Q.jpg","M.jpg","1","0","0","",""
"","feedback","","html-keyboard-response","25","125787","0.0-1.0-24.0-0.0","0","0","51557","","null","","","null","2","","","","","","","","","","","","","","","",""
"","time_out","","html-keyboard-response","26","127794","0.0-1.0-26.0-0.0","0","0","51557","","null","","","null","2","","","","","","","","","","","","","","","",""
"","ITI","","html-keyboard-response","27","128802","0.0-1.0-27.0","0","0","51557","","null","","","null","2","","","","","","","","","","","","","","","NaN",""
"","S1","","html-keyboard-response","28","128962","0.0-1.0-29.0","0","0","51557","","null","","","null","3","","","","","","","","","","","","","","","",""
"","ISI","","html-keyboard-response","29","130970","0.0-1.0-30.0","0","0","51557","","null","","","null","3","NaN","","","","","","","","","","","","","","",""
"","S2","","html-keyboard-response","30","131258","0.0-1.0-31.0","0","0","51557","","null","","","null","3","","NaN","","","","","","","","","","","","","",""
"","response","","html-keyboard-response","31","132204","0.0-1.0-32.0-0.0","0","0","51557","","941","","","68","3","","","1","3","training","adjacent","ED","5","4","N.jpg","Q.jpg","0","0","1","",""
"","feedback","","html-keyboard-response","32","133210","0.0-1.0-33.0-0.0","0","0","51557","","null","","","null","3","","","","","","","","","","","","","","","",""
"","ITI","","html-keyboard-response","33","134219","0.0-1.0-36.0","0","0","51557","","null","","","null","3","","","","","","","","","","","","","","","NaN",""
"","S1","","html-keyboard-response","34","134378","0.0-1.0-38.0","0","0","51557","","null","","","null","4","","","","","","","","","","","","","","","",""
"","ISI","","html-keyboard-response","35","136386","0.0-1.0-39.0","0","0","51557","","null","","","null","4","NaN","","","","","","","","","","","","","","",""
"","S2","","html-keyboard-response","36","136546","0.0-1.0-40.0","0","0","51557","","null","","","null","4","","NaN","","","","","","","","","","","","","",""
"","response","","html-keyboard-response","37","138020","0.0-1.0-41.0-0.0","0","0","51557","","1467","","","75","4","","","1","4","training","adjacent","GF","7","6","O.jpg","R.jpg","1","0","0","",""
"","feedback","","html-keyboard-response","38","139028","0.0-1.0-42.0-0.0","0","0","51557","","null","","","null","4","","","","","","","","","","","","","","","",""
"","time_out","","html-keyboard-response","39","141034","0.0-1.0-44.0-0.0","0","0","51557","","null","","","null","4","","","","","","","","","","","","","","","",""
"","ITI","","html-keyboard-response","40","142059","0.0-1.0-45.0","0","0","51557","","null","","","null","4","","","","","","","","","","","","","","","NaN",""
"","S1","","html-keyboard-response","41","142219","0.0-1.0-47.0","0","0","51557","","null","","","null","5","","","","","","","","","","","","","","","",""
"","ISI","","html-keyboard-response","42","144226","0.0-1.0-48.0","0","0","51557","","null","","","null","5","NaN","","","","","","","","","","","","","","",""
"","S2","","html-keyboard-response","43","144424","0.0-1.0-49.0","0","0","51557","","null","","","null","5","","NaN","","","","","","","","","","","","","",""
"","response","","html-keyboard-response","44","145451","0.0-1.0-50.0-0.0","0","0","51557","","1022","","","68","5","","","1","5","training","adjacent","DE","4","5","Q.jpg","N.jpg","0","1","0","",""
"","feedback","","html-keyboard-response","45","146459","0.0-1.0-51.0-0.0","0","0","51557","","null","","","null","5","","","","","","","","","","","","","","","",""
"","time_out","","html-keyboard-response","46","148466","0.0-1.0-53.0-0.0","0","0","51557","","null","","","null","5","","","","","","","","","","","","","","","",""
"","ITI","","html-keyboard-response","47","149492","0.0-1.0-54.0","0","0","51557","","null","","","null","5","","","","","","","","","","","","","","","NaN",""
"","S1","","html-keyboard-response","48","149650","0.0-1.0-56.0","0","0","51557","","null","","","null","6","","","","","","","","","","","","","","","",""
"","ISI","","html-keyboard-response","49","151666","0.0-1.0-57.0","0","0","51557","","null","","","null","6","NaN","","","","","","","","","","","","","","",""
"","S2","","html-keyboard-response","50","151826","0.0-1.0-58.0","0","0","51557","","null","","","null","6","","NaN","","","","","","","","","","","","","",""
"","response","","html-keyboard-response","51","152536","0.0-1.0-59.0-0.0","0","0","51557","","705","","","75","6","","","1","6","training","adjacent","GF","7","6","O.jpg","R.jpg","1","0","0","",""
"","feedback","","html-keyboard-response","52","153547","0.0-1.0-60.0-0.0","0","0","51557","","null","","","null","6","","","","","","","","","","","","","","","",""
"","time_out","","html-keyboard-response","53","155554","0.0-1.0-62.0-0.0","0","0","51557","","null","","","null","6","","","","","","","","","","","","","","","",""
"","ITI","","html-keyboard-response","54","156563","0.0-1.0-63.0","0","0","51557","","null","","","null","6","","","","","","","","","","","","","","","NaN",""
"","S1","","html-keyboard-response","55","156731","0.0-1.0-65.0","0","0","51557","","null","","","null","7","","","","","","","","","","","","","","","",""
"","ISI","","html-keyboard-response","56","158738","0.0-1.0-66.0","0","0","51557","","null","","","null","7","NaN","","","","","","","","","","","","","","",""
"","S2","","html-keyboard-response","57","158898","0.0-1.0-67.0","0","0","51557","","null","","","null","7","","NaN","","","","","","","","","","","","","",""
"","response","","html-keyboard-response","58","159725","0.0-1.0-68.0-0.0","0","0","51557","","821","","","68","7","","","1","7","training","adjacent","FE","6","5","R.jpg","N.jpg","0","0","1","",""
"","feedback","","html-keyboard-response","59","160738","0.0-1.0-69.0-0.0","0","0","51557","","null","","","null","7","","","","","","","","","","","","","","","",""
"","ITI","","html-keyboard-response","60","161746","0.0-1.0-72.0","0","0","51557","","null","","","null","7","","","","","","","","","","","","","","","NaN",""
"","S1","","html-keyboard-response","61","161903","0.0-1.0-74.0","0","0","51557","","null","","","null","8","","","","","","","","","","","","","","","",""
"","ISI","","html-keyboard-response","62","163914","0.0-1.0-75.0","0","0","51557","","null","","","null","8","NaN","","","","","","","","","","","","","","",""
"","S2","","html-keyboard-response","63","164074","0.0-1.0-76.0","0","0","51557","","null","","","null","8","","NaN","","","","","","","","","","","","","",""
"","response","","html-keyboard-response","64","164828","0.0-1.0-77.0-0.0","0","0","51557","","747","","","68","8","","","1","8","training","adjacent","BA","2","1","L.jpg","P.jpg","0","0","1","",""
"","feedback","","html-keyboard-response","65","165834","0.0-1.0-78.0-0.0","0","0","51557","","null","","","null","8","","","","","","","","","","","","","","","",""
"","ITI","","html-keyboard-response","66","166843","0.0-1.0-81.0","0","0","51557","","null","","","null","8","","","","","","","","","","","","","","","NaN",""
"","S1","","html-keyboard-response","67","167002","0.0-1.0-83.0","0","0","51557","","null","","","null","9","","","","","","","","","","","","","","","",""
"","ISI","","html-keyboard-response","68","169013","0.0-1.0-84.0","0","0","51557","","null","","","null","9","NaN","","","","","","","","","","","","","","",""
"","S2","","html-keyboard-response","69","169171","0.0-1.0-85.0","0","0","51557","","null","","","null","9","","NaN","","","","","","","","","","","","","",""
"","response","","html-keyboard-response","70","169864","0.0-1.0-86.0-0.0","0","0","51557","","688","","","68","9","","","1","9","training","adjacent","DC","4","3","Q.jpg","M.jpg","0","0","1","",""
"","feedback","","html-keyboard-response","71","170875","0.0-1.0-87.0-0.0","0","0","51557","","null","","","null","9","","","","","","","","","","","","","","","",""
"","ITI","","html-keyboard-response","72","171882","0.0-1.0-90.0","0","0","51557","","null","","","null","9","","","","","","","","","","","","","","","NaN",""
"","S1","","html-keyboard-response","73","172043","0.0-1.0-92.0","0","0","51557","","null","","","null","10","","","","","","","","","","","","","","","",""
"","ISI","","html-keyboard-response","74","174050","0.0-1.0-93.0","0","0","51557","","null","","","null","10","NaN","","","","","","","","","","","","","","",""
"","S2","","html-keyboard-response","75","174210","0.0-1.0-94.0","0","0","51557","","null","","","null","10","","NaN","","","","","","","","","","","","","",""
"","response","","html-keyboard-response","76","174993","0.0-1.0-95.0-0.0","0","0","51557","","778","","","68","10","","","1","10","training","adjacent","CB","3","2","M.jpg","L.jpg","0","0","1","",""
"","feedback","","html-keyboard-response","77","176002","0.0-1.0-96.0-0.0","0","0","51557","","null","","","null","10","","","","","","","","","","","","","","","",""
"","ITI","","html-keyboard-response","78","177011","0.0-1.0-99.0","0","0","51557","","null","","","null","10","","","","","","","","","","","","","","","NaN",""
"","S1","","html-keyboard-response","79","177170","0.0-1.0-101.0","0","0","51557","","null","","","null","11","","","","","","","","","","","","","","","",""
"","ISI","","html-keyboard-response","80","179178","0.0-1.0-102.0","0","0","51557","","null","","","null","11","NaN","","","","","","","","","","","","","","",""
"","S2","","html-keyboard-response","81","179338","0.0-1.0-103.0","0","0","51557","","null","","","null","11","","NaN","","","","","","","","","","","","","",""
"","response","","html-keyboard-response","82","180617","0.0-1.0-104.0-0.0","0","0","51557","","1274","","","75","11","","","1","11","training","adjacent","FG","6","7","R.jpg","O.jpg","1","1","1","",""
"","feedback","","html-keyboard-response","83","181626","0.0-1.0-105.0-0.0","0","0","51557","","null","","","null","11","","","","","","","","","","","","","","","",""
"","ITI","","html-keyboard-response","84","182639","0.0-1.0-108.0","0","0","51557","","null","","","null","11","","","","","","","","","","","","","","","NaN",""
"","S1","","html-keyboard-response","85","182794","0.0-1.0-110.0","0","0","51557","","null","","","null","12","","","","","","","","","","","","","","","",""
"","ISI","","html-keyboard-response","86","184802","0.0-1.0-111.0","0","0","51557","","null","","","null","12","NaN","","","","","","","","","","","","","","",""
"","S2","","html-keyboard-response","87","184962","0.0-1.0-112.0","0","0","51557","","null","","","null","12","","NaN","","","","","","","","","","","","","",""
"","response","","html-keyboard-response","88","185887","0.0-1.0-113.0-0.0","0","0","51557","","919","","","68","12","","","1","12","training","adjacent","BA","2","1","L.jpg","P.jpg","0","0","1","",""
"","feedback","","html-keyboard-response","89","186899","0.0-1.0-114.0-0.0","0","0","51557","","null","","","null","12","","","","","","","","","","","","","","","",""
"","ITI","","html-keyboard-response","90","187906","0.0-1.0-117.0","0","0","51557","","null","","","null","12","","","","","","","","","","","","","","","NaN",""
"","S1","","html-keyboard-response","91","188067","0.0-1.0-119.0","0","0","51557","","null","","","null","13","","","","","","","","","","","","","","","",""
"","ISI","","html-keyboard-response","92","190074","0.0-1.0-120.0","0","0","51557","","null","","","null","13","NaN","","","","","","","","","","","","","","",""
"","S2","","html-keyboard-response","93","190234","0.0-1.0-121.0","0","0","51557","","null","","","null","13","","NaN","","","","","","","","","","","","","",""
"","response","","html-keyboard-response","94","190842","0.0-1.0-122.0-0.0","0","0","51557","","604","","","68","13","","","1","13","training","adjacent","BC","2","3","L.jpg","M.jpg","0","1","0","",""
"","feedback","","html-keyboard-response","95","191850","0.0-1.0-123.0-0.0","0","0","51557","","null","","","null","13","","","","","","","","","","","","","","","",""
"","time_out","","html-keyboard-response","96","193858","0.0-1.0-125.0-0.0","0","0","51557","","null","","","null","13","","","","","","","","","","","","","","","",""
"","ITI","","html-keyboard-response","97","194866","0.0-1.0-126.0","0","0","51557","","null","","","null","13","","","","","","","","","","","","","","","NaN",""
"","S1","","html-keyboard-response","98","195027","0.0-1.0-128.0","0","0","51557","","null","","","null","14","","","","","","","","","","","","","","","",""
"","ISI","","html-keyboard-response","99","197034","0.0-1.0-129.0","0","0","51557","","null","","","null","14","NaN","","","","","","","","","","","","","","",""
"","S2","","html-keyboard-response","100","197194","0.0-1.0-130.0","0","0","51557","","null","","","null","14","","NaN","","","","","","","","","","","","","",""
"","response","","html-keyboard-response","101","197792","0.0-1.0-131.0-0.0","0","0","51557","","591","","","75","14","","","1","14","training","adjacent","BA","2","1","L.jpg","P.jpg","1","0","0","",""
"","feedback","","html-keyboard-response","102","198803","0.0-1.0-132.0-0.0","0","0","51557","","null","","","null","14","","","","","","","","","","","","","","","",""
"","time_out","","html-keyboard-response","103","200816","0.0-1.0-134.0-0.0","0","0","51557","","null","","","null","14","","","","","","","","","","","","","","","",""
"","ITI","","html-keyboard-response","104","201826","0.0-1.0-135.0","0","0","51557","","null","","","null","14","","","","","","","","","","","","","","","NaN",""
"","S1","","html-keyboard-response","105","201986","0.0-1.0-137.0","0","0","51557","","null","","","null","15","","","","","","","","","","","","","","","",""
"","ISI","","html-keyboard-response","106","203994","0.0-1.0-138.0","0","0","51557","","null","","","null","15","NaN","","","","","","","","","","","","","","",""
"","S2","","html-keyboard-response","107","204154","0.0-1.0-139.0","0","0","51557","","null","","","null","15","","NaN","","","","","","","","","","","","","",""
"","response","","html-keyboard-response","108","205828","0.0-1.0-140.0-0.0","0","0","51557","","1668","","","68","15","","","1","15","training","adjacent","DC","4","3","Q.jpg","M.jpg","0","0","1","",""
"","feedback","","html-keyboard-response","109","206834","0.0-1.0-141.0-0.0","0","0","51557","","null","","","null","15","","","","","","","","","","","","","","","",""
"","ITI","","html-keyboard-response","110","207843","0.0-1.0-144.0","0","0","51557","","null","","","null","15","","","","","","","","","","","","","","","NaN",""
"","S1","","html-keyboard-response","111","208008","0.0-1.0-146.0","0","0","51557","","null","","","null","16","","","","","","","","","","","","","","","",""
"","ISI","","html-keyboard-response","112","210018","0.0-1.0-147.0","0","0","51557","","null","","","null","16","NaN","","","","","","","","","","","","","","",""
"","S2","","html-keyboard-response","113","210179","0.0-1.0-148.0","0","0","51557","","null","","","null","16","","NaN","","","","","","","","","","","","","",""
"","response","","html-keyboard-response","114","210492","0.0-1.0-149.0-0.0","0","0","51557","","308","","","68","16","","","1","16","training","adjacent","DE","4","5","Q.jpg","N.jpg","0","1","0","",""
"","feedback","","html-keyboard-response","115","211499","0.0-1.0-150.0-0.0","0","0","51557","","null","","","null","16","","","","","","","","","","","","","","","",""
"","time_out","","html-keyboard-response","116","213506","0.0-1.0-152.0-0.0","0","0","51557","","null","","","null","16","","","","","","","","","","","","","","","",""
"","ITI","","html-keyboard-response","117","214514","0.0-1.0-153.0","0","0","51557","","null","","","null","16","","","","","","","","","","","","","","","NaN",""
"","S1","","html-keyboard-response","118","214674","0.0-1.0-155.0","0","0","51557","","null","","","null","17","","","","","","","","","","","","","","","",""
"","ISI","","html-keyboard-response","119","216684","0.0-1.0-156.0","0","0","51557","","null","","","null","17","NaN","","","","","","","","","","","","","","",""
"","S2","","html-keyboard-response","120","216842","0.0-1.0-157.0","0","0","51557","","null","","","null","17","","NaN","","","","","","","","","","","","","",""
"","response","","html-keyboard-response","121","217484","0.0-1.0-158.0-0.0","0","0","51557","","629","","","75","17","","","1","17","training","adjacent","ED","5","4","N.jpg","Q.jpg","1","0","0","",""
"","feedback","","html-keyboard-response","122","218490","0.0-1.0-159.0-0.0","0","0","51557","","null","","","null","17","","","","","","","","","","","","","","","",""
"","time_out","","html-keyboard-response","123","220498","0.0-1.0-161.0-0.0","0","0","51557","","null","","","null","17","","","","","","","","","","","","","","","",""
"","ITI","","html-keyboard-response","124","221507","0.0-1.0-162.0","0","0","51557","","null","","","null","17","","","","","","","","","","","","","","","NaN",""
"","S1","","html-keyboard-response","125","221671","0.0-1.0-164.0","0","0","51557","","null","","","null","18","","","","","","","","","","","","","","","",""
"","ISI","","html-keyboard-response","126","223682","0.0-1.0-165.0","0","0","51557","","null","","","null","18","NaN","","","","","","","","","","","","","","",""
"","S2","","html-keyboard-response","127","223842","0.0-1.0-166.0","0","0","51557","","null","","","null","18","","NaN","","","","","","","","","","","","","",""
"","response","","html-keyboard-response","128","224903","0.0-1.0-167.0-0.0","0","0","51557","","1055","","","75","18","","","1","18","training","adjacent","CD","3","4","M.jpg","Q.jpg","1","1","1","",""
"","feedback","","html-keyboard-response","129","225915","0.0-1.0-168.0-0.0","0","0","51557","","null","","","null","18","","","","","","","","","","","","","","","",""
"","ITI","","html-keyboard-response","130","226922","0.0-1.0-171.0","0","0","51557","","null","","","null","18","","","","","","","","","","","","","","","NaN",""
"","S1","","html-keyboard-response","131","227082","0.0-1.0-173.0","0","0","51557","","null","","","null","19","","","","","","","","","","","","","","","",""
"","ISI","","html-keyboard-response","132","229090","0.0-1.0-174.0","0","0","51557","","null","","","null","19","NaN","","","","","","","","","","","","","","",""
"","S2","","html-keyboard-response","133","229352","0.0-1.0-175.0","0","0","51557","","null","","","null","19","","NaN","","","","","","","","","","","","","",""
"","response","","html-keyboard-response","134","230720","0.0-1.0-176.0-0.0","0","0","51557","","1363","","","68","19","","","1","19","training","adjacent","AB","1","2","P.jpg","L.jpg","0","1","0","",""
"","feedback","","html-keyboard-response","135","231730","0.0-1.0-177.0-0.0","0","0","51557","","null","","","null","19","","","","","","","","","","","","","","","",""
"","time_out","","html-keyboard-response","136","233738","0.0-1.0-179.0-0.0","0","0","51557","","null","","","null","19","","","","","","","","","","","","","","","",""
"","ITI","","html-keyboard-response","137","234746","0.0-1.0-180.0","0","0","51557","","null","","","null","19","","","","","","","","","","","","","","","NaN",""
"","S1","","html-keyboard-response","138","234906","0.0-1.0-182.0","0","0","51557","","null","","","null","20","","","","","","","","","","","","","","","",""
"","ISI","","html-keyboard-response","139","236915","0.0-1.0-183.0","0","0","51557","","null","","","null","20","NaN","","","","","","","","","","","","","","",""
"","S2","","html-keyboard-response","140","237075","0.0-1.0-184.0","0","0","51557","","null","","","null","20","","NaN","","","","","","","","","","","","","",""
"","response","","html-keyboard-response","141","238804","0.0-1.0-185.0-0.0","0","0","51557","","1722","","","75","20","","","1","20","training","adjacent","CD","3","4","M.jpg","Q.jpg","1","1","1","",""
"","feedback","","html-keyboard-response","142","239810","0.0-1.0-186.0-0.0","0","0","51557","","null","","","null","20","","","","","","","","","","","","","","","",""
"","ITI","","html-keyboard-response","143","240819","0.0-1.0-189.0","0","0","51557","","null","","","null","20","","","","","","","","","","","","","","","NaN",""
"","S1","","html-keyboard-response","144","240978","0.0-1.0-191.0","0","0","51557","","null","","","null","21","","","","","","","","","","","","","","","",""
"","ISI","","html-keyboard-response","145","242986","0.0-1.0-192.0","0","0","51557","","null","","","null","21","NaN","","","","","","","","","","","","","","",""
"","S2","","html-keyboard-response","146","243156","0.0-1.0-193.0","0","0","51557","","null","","","null","21","","NaN","","","","","","","","","","","","","",""
"","response","","html-keyboard-response","147","244114","0.0-1.0-194.0-0.0","0","0","51557","","953","","","75","21","","","1","21","training","adjacent","DE","4","5","Q.jpg","N.jpg","1","1","1","",""
"","feedback","","html-keyboard-response","148","245127","0.0-1.0-195.0-0.0","0","0","51557","","null","","","null","21","","","","","","","","","","","","","","","",""
"","ITI","","html-keyboard-response","149","246132","0.0-1.0-198.0","0","0","51557","","null","","","null","21","","","","","","","","","","","","","","","NaN",""
"","S1","","html-keyboard-response","150","246291","0.0-1.0-200.0","0","0","51557","","null","","","null","22","","","","","","","","","","","","","","","",""
"","ISI","","html-keyboard-response","151","248299","0.0-1.0-201.0","0","0","51557","","null","","","null","22","NaN","","","","","","","","","","","","","","",""
"","S2","","html-keyboard-response","152","248459","0.0-1.0-202.0","0","0","51557","","null","","","null","22","","NaN","","","","","","","","","","","","","",""
"","response","","html-keyboard-response","153","249970","0.0-1.0-203.0-0.0","0","0","51557","","1506","","","68","22","","","1","22","training","adjacent","BC","2","3","L.jpg","M.jpg","0","1","0","",""
"","feedback","","html-keyboard-response","154","250978","0.0-1.0-204.0-0.0","0","0","51557","","null","","","null","22","","","","","","","","","","","","","","","",""
"","time_out","","html-keyboard-response","155","252986","0.0-1.0-206.0-0.0","0","0","51557","","null","","","null","22","","","","","","","","","","","","","","","",""
"","ITI","","html-keyboard-response","156","253994","0.0-1.0-207.0","0","0","51557","","null","","","null","22","","","","","","","","","","","","","","","NaN",""
"","S1","","html-keyboard-response","157","254154","0.0-1.0-209.0","0","0","51557","","null","","","null","23","","","","","","","","","","","","","","","",""
"","ISI","","html-keyboard-response","158","256164","0.0-1.0-210.0","0","0","51557","","null","","","null","23","NaN","","","","","","","","","","","","","","",""
"","S2","","html-keyboard-response","159","256322","0.0-1.0-211.0","0","0","51557","","null","","","null","23","","NaN","","","","","","","","","","","","","",""
"","response","","html-keyboard-response","160","257432","0.0-1.0-212.0-0.0","0","0","51557","","1104","","","75","23","","","1","23","training","adjacent","BC","2","3","L.jpg","M.jpg","1","1","1","",""
"","feedback","","html-keyboard-response","161","258442","0.0-1.0-213.0-0.0","0","0","51557","","null","","","null","23","","","","","","","","","","","","","","","",""
"","ITI","","html-keyboard-response","162","259592","0.0-1.0-216.0","0","0","51557","","null","","","null","23","","","","","","","","","","","","","","","NaN",""
"","S1","","html-keyboard-response","163","259776","0.0-1.0-218.0","0","0","51557","","null","","","null","24","","","","","","","","","","","","","","","",""
"","ISI","","html-keyboard-response","164","261786","0.0-1.0-219.0","0","0","51557","","null","","","null","24","NaN","","","","","","","","","","","","","","",""
"","S2","","html-keyboard-response","165","261942","0.0-1.0-220.0","0","0","51557","","null","","","null","24","","NaN","","","","","","","","","","","","","",""
"","response","","html-keyboard-response","166","262551","0.0-1.0-221.0-0.0","0","0","51557","","600","","","75","24","","","1","24","training","adjacent","DC","4","3","Q.jpg","M.jpg","1","0","0","",""
"","feedback","","html-keyboard-response","167","263564","0.0-1.0-222.0-0.0","0","0","51557","","null","","","null","24","","","","","","","","","","","","","","","",""
"","time_out","","html-keyboard-response","168","265571","0.0-1.0-224.0-0.0","0","0","51557","","null","","","null","24","","","","","","","","","","","","","","","",""
"","ITI","","html-keyboard-response","169","266580","0.0-1.0-225.0","0","0","51557","","null","","","null","24","","","","","","","","","","","","","","","NaN",""
"","S1","","html-keyboard-response","170","266739","0.0-1.0-227.0","0","0","51557","","null","","","null","25","","","","","","","","","","","","","","","",""
"","ISI","","html-keyboard-response","171","268746","0.0-1.0-228.0","0","0","51557","","null","","","null","25","NaN","","","","","","","","","","","","","","",""
"","S2","","html-keyboard-response","172","268906","0.0-1.0-229.0","0","0","51557","","null","","","null","25","","NaN","","","","","","","","","","","","","",""
"","response","","html-keyboard-response","173","270498","0.0-1.0-230.0-0.0","0","0","51557","","1586","","","75","25","","","1","25","training","adjacent","CB","3","2","M.jpg","L.jpg","1","0","0","",""
"","feedback","","html-keyboard-response","174","271506","0.0-1.0-231.0-0.0","0","0","51557","","null","","","null","25","","","","","","","","","","","","","","","",""
"","time_out","","html-keyboard-response","175","273514","0.0-1.0-233.0-0.0","0","0","51557","","null","","","null","25","","","","","","","","","","","","","","","",""
"","ITI","","html-keyboard-response","176","274523","0.0-1.0-234.0","0","0","51557","","null","","","null","25","","","","","","","","","","","","","","","NaN",""
"","S1","","html-keyboard-response","177","274682","0.0-1.0-236.0","0","0","51557","","null","","","null","26","","","","","","","","","","","","","","","",""
"","ISI","","html-keyboard-response","178","276691","0.0-1.0-237.0","0","0","51557","","null","","","null","26","NaN","","","","","","","","","","","","","","",""
"","S2","","html-keyboard-response","179","276850","0.0-1.0-238.0","0","0","51557","","null","","","null","26","","NaN","","","","","","","","","","","","","",""
"","response","","html-keyboard-response","180","277605","0.0-1.0-239.0-0.0","0","0","51557","","750","","","75","26","","","1","26","training","adjacent","ED","5","4","N.jpg","Q.jpg","1","0","0","",""
"","feedback","","html-keyboard-response","181","278610","0.0-1.0-240.0-0.0","0","0","51557","","null","","","null","26","","","","","","","","","","","","","","","",""
"","time_out","","html-keyboard-response","182","280619","0.0-1.0-242.0-0.0","0","0","51557","","null","","","null","26","","","","","","","","","","","","","","","",""
"","ITI","","html-keyboard-response","183","281627","0.0-1.0-243.0","0","0","51557","","null","","","null","26","","","","","","","","","","","","","","","NaN",""
"","S1","","html-keyboard-response","184","281799","0.0-1.0-245.0","0","0","51557","","null","","","null","27","","","","","","","","","","","","","","","",""
"","ISI","","html-keyboard-response","185","283810","0.0-1.0-246.0","0","0","51557","","null","","","null","27","NaN","","","","","","","","","","","","","","",""
"","S2","","html-keyboard-response","186","283971","0.0-1.0-247.0","0","0","51557","","null","","","null","27","","NaN","","","","","","","","","","","","","",""
"","response","","html-keyboard-response","187","284836","0.0-1.0-248.0-0.0","0","0","51557","","858","","","68","27","","","1","27","training","adjacent","FE","6","5","R.jpg","N.jpg","0","0","1","",""
"","feedback","","html-keyboard-response","188","285850","0.0-1.0-249.0-0.0","0","0","51557","","null","","","null","27","","","","","","","","","","","","","","","",""
"","ITI","","html-keyboard-response","189","286860","0.0-1.0-252.0","0","0","51557","","null","","","null","27","","","","","","","","","","","","","","","NaN",""
"","S1","","html-keyboard-response","190","287019","0.0-1.0-254.0","0","0","51557","","null","","","null","28","","","","","","","","","","","","","","","",""
"","ISI","","html-keyboard-response","191","289029","0.0-1.0-255.0","0","0","51557","","null","","","null","28","NaN","","","","","","","","","","","","","","",""
"","S2","","html-keyboard-response","192","289186","0.0-1.0-256.0","0","0","51557","","null","","","null","28","","NaN","","","","","","","","","","","","","",""
"","response","","html-keyboard-response","193","290071","0.0-1.0-257.0-0.0","0","0","51557","","878","","","75","28","","","1","28","training","adjacent","CD","3","4","M.jpg","Q.jpg","1","1","1","",""
"","feedback","","html-keyboard-response","194","291086","0.0-1.0-258.0-0.0","0","0","51557","","null","","","null","28","","","","","","","","","","","","","","","",""
"","ITI","","html-keyboard-response","195","292101","0.0-1.0-261.0","0","0","51557","","null","","","null","28","","","","","","","","","","","","","","","NaN",""
"","S1","","html-keyboard-response","196","292258","0.0-1.0-263.0","0","0","51557","","null","","","null","29","","","","","","","","","","","","","","","",""
"","ISI","","html-keyboard-response","197","294266","0.0-1.0-264.0","0","0","51557","","null","","","null","29","NaN","","","","","","","","","","","","","","",""
"","S2","","html-keyboard-response","198","294438","0.0-1.0-265.0","0","0","51557","","null","","","null","29","","NaN","","","","","","","","","","","","","",""
"","response","","html-keyboard-response","199","295033","0.0-1.0-266.0-0.0","0","0","51557","","579","","","75","29","","","1","29","training","adjacent","GF","7","6","O.jpg","R.jpg","1","0","0","",""
"","feedback","","html-keyboard-response","200","296043","0.0-1.0-267.0-0.0","0","0","51557","","null","","","null","29","","","","","","","","","","","","","","","",""
"","time_out","","html-keyboard-response","201","298051","0.0-1.0-269.0-0.0","0","0","51557","","null","","","null","29","","","","","","","","","","","","","","","",""
"","ITI","","html-keyboard-response","202","299058","0.0-1.0-270.0","0","0","51557","","null","","","null","29","","","","","","","","","","","","","","","NaN",""
"","S1","","html-keyboard-response","203","299337","0.0-1.0-272.0","0","0","51557","","null","","","null","30","","","","","","","","","","","","","","","",""
"","ISI","","html-keyboard-response","204","301346","0.0-1.0-273.0","0","0","51557","","null","","","null","30","NaN","","","","","","","","","","","","","","",""
"","S2","","html-keyboard-response","205","301506","0.0-1.0-274.0","0","0","51557","","null","","","null","30","","NaN","","","","","","","","","","","","","",""
"","response","","html-keyboard-response","206","303318","0.0-1.0-275.0-0.0","0","0","51557","","1798","","","68","30","","","1","30","training","adjacent","EF","5","6","N.jpg","R.jpg","0","1","0","",""
"","feedback","","html-keyboard-response","207","304330","0.0-1.0-276.0-0.0","0","0","51557","","null","","","null","30","","","","","","","","","","","","","","","",""
"","time_out","","html-keyboard-response","208","306338","0.0-1.0-278.0-0.0","0","0","51557","","null","","","null","30","","","","","","","","","","","","","","","",""
"","ITI","","html-keyboard-response","209","307373","0.0-1.0-279.0","0","0","51557","","null","","","null","30","","","","","","","","","","","","","","","NaN",""
"","S1","","html-keyboard-response","210","307532","0.0-1.0-281.0","0","0","51557","","null","","","null","31","","","","","","","","","","","","","","","",""
"","ISI","","html-keyboard-response","211","309538","0.0-1.0-282.0","0","0","51557","","null","","","null","31","NaN","","","","","","","","","","","","","","",""
"","S2","","html-keyboard-response","212","309701","0.0-1.0-283.0","0","0","51557","","null","","","null","31","","NaN","","","","","","","","","","","","","",""
"","response","","html-keyboard-response","213","310957","0.0-1.0-284.0-0.0","0","0","51557","","1249","","","68","31","","","1","31","training","adjacent","BA","2","1","L.jpg","P.jpg","0","0","1","",""
"","feedback","","html-keyboard-response","214","311973","0.0-1.0-285.0-0.0","0","0","51557","","null","","","null","31","","","","","","","","","","","","","","","",""
"","ITI","","html-keyboard-response","215","312989","0.0-1.0-288.0","0","0","51557","","null","","","null","31","","","","","","","","","","","","","","","NaN",""
"","S1","","html-keyboard-response","216","313146","0.0-1.0-290.0","0","0","51557","","null","","","null","32","","","","","","","","","","","","","","","",""
"","ISI","","html-keyboard-response","217","315154","0.0-1.0-291.0","0","0","51557","","null","","","null","32","NaN","","","","","","","","","","","","","","",""
"","S2","","html-keyboard-response","218","315493","0.0-1.0-292.0","0","0","51557","","null","","","null","32","","NaN","","","","","","","","","","","","","",""
"","response","","html-keyboard-response","219","315855","0.0-1.0-293.0-0.0","0","0","51557","","356","","","75","32","","","1","32","training","adjacent","DE","4","5","Q.jpg","N.jpg","1","1","1","",""
"","feedback","","html-keyboard-response","220","316869","0.0-1.0-294.0-0.0","0","0","51557","","null","","","null","32","","","","","","","","","","","","","","","",""
"","ITI","","html-keyboard-response","221","317885","0.0-1.0-297.0","0","0","51557","","null","","","null","32","","","","","","","","","","","","","","","NaN",""
"","S1","","html-keyboard-response","222","318044","0.0-1.0-299.0","0","0","51557","","null","","","null","33","","","","","","","","","","","","","","","",""
"","ISI","","html-keyboard-response","223","320052","0.0-1.0-300.0","0","0","51557","","null","","","null","33","NaN","","","","","","","","","","","","","","",""
"","S2","","html-keyboard-response","224","320211","0.0-1.0-301.0","0","0","51557","","null","","","null","33","","NaN","","","","","","","","","","","","","",""
"","response","","html-keyboard-response","225","322076","0.0-1.0-302.0-0.0","0","0","51557","","null","","","null","33","","","1","33","training","adjacent","BC","2","3","L.jpg","M.jpg","NaN","1","0","",""
"","too_slow_prompt","","html-keyboard-response","226","323082","0.0-1.0-304.0-0.0","1","0","51557","","null","","","null","","","","","","","","","","","","","","","","",""
"","time_out","","html-keyboard-response","227","325090","0.0-1.0-305.0-0.0","0","0","51557","","null","","","null","33","","","","","","","","","","","","","","","",""
"","ITI","","html-keyboard-response","228","326100","0.0-1.0-306.0","0","0","51557","","null","","","null","33","","","","","","","","","","","","","","","NaN",""
"","S1","","html-keyboard-response","229","326258","0.0-1.0-308.0","0","0","51557","","null","","","null","34","","","","","","","","","","","","","","","",""
"","ISI","","html-keyboard-response","230","328270","0.0-1.0-309.0","0","0","51557","","520","","","75","34","k","","","","","","","","","","","","","","",""
"","S2","","html-keyboard-response","231","328434","0.0-1.0-310.0","0","0","51557","","null","","","null","34","","NaN","","","","","","","","","","","","","",""
"","response","","html-keyboard-response","232","328968","0.0-1.0-311.0-0.0","0","0","51557","","526","","","75","34","","","1","34","training","adjacent","FG","6","7","R.jpg","O.jpg","1","1","1","",""
"","feedback","","html-keyboard-response","233","329980","0.0-1.0-312.0-0.0","0","0","51557","","null","","","null","34","","","","","","","","","","","","","","","",""
"","ITI","","html-keyboard-response","234","330997","0.0-1.0-315.0","0","0","51557","","null","","","null","34","","","","","","","","","","","","","","","NaN",""
"","S1","","html-keyboard-response","235","331160","0.0-1.0-317.0","0","0","51557","","null","","","null","35","","","","","","","","","","","","","","","",""
"","ISI","","html-keyboard-response","236","333312","0.0-1.0-318.0","0","0","51557","","null","","","null","35","NaN","","","","","","","","","","","","","","",""
"","S2","","html-keyboard-response","237","333474","0.0-1.0-319.0","0","0","51557","","null","","","null","35","","NaN","","","","","","","","","","","","","",""
"","response","","html-keyboard-response","238","334146","0.0-1.0-320.0-0.0","0","0","51557","","658","","","68","35","","","1","35","training","adjacent","EF","5","6","N.jpg","R.jpg","0","1","0","",""
"","feedback","","html-keyboard-response","239","335159","0.0-1.0-321.0-0.0","0","0","51557","","null","","","null","35","","","","","","","","","","","","","","","",""
"","time_out","","html-keyboard-response","240","337170","0.0-1.0-323.0-0.0","0","0","51557","","null","","","null","35","","","","","","","","","","","","","","","",""
"","ITI","","html-keyboard-response","241","338179","0.0-1.0-324.0","0","0","51557","","null","","","null","35","","","","","","","","","","","","","","","NaN",""
"","S1","","html-keyboard-response","242","338338","0.0-1.0-326.0","0","0","51557","","null","","","null","36","","","","","","","","","","","","","","","",""
"","ISI","","html-keyboard-response","243","340346","0.0-1.0-327.0","0","0","51557","","null","","","null","36","NaN","","","","","","","","","","","","","","",""
"","S2","","html-keyboard-response","244","340506","0.0-1.0-328.0","0","0","51557","","null","","","null","36","","NaN","","","","","","","","","","","","","",""
"","response","","html-keyboard-response","245","341340","0.0-1.0-329.0-0.0","0","0","51557","","822","","","68","36","","","1","36","training","adjacent","FE","6","5","R.jpg","N.jpg","0","0","1","",""
"","feedback","","html-keyboard-response","246","342349","0.0-1.0-330.0-0.0","0","0","51557","","null","","","null","36","","","","","","","","","","","","","","","",""
"","ITI","","html-keyboard-response","247","343383","0.0-1.0-333.0","0","0","51557","","null","","","null","36","","","","","","","","","","","","","","","NaN",""
"","S1","","html-keyboard-response","248","343554","0.0-1.0-335.0","0","0","51557","","null","","","null","37","","","","","","","","","","","","","","","",""
"","ISI","","html-keyboard-response","249","345563","0.0-1.0-336.0","0","0","51557","","null","","","null","37","NaN","","","","","","","","","","","","","","",""
"","S2","","html-keyboard-response","250","345722","0.0-1.0-337.0","0","0","51557","","null","","","null","37","","NaN","","","","","","","","","","","","","",""
"","response","","html-keyboard-response","251","346267","0.0-1.0-338.0-0.0","0","0","51557","","537","","","68","37","","","1","37","training","adjacent","FE","6","5","R.jpg","N.jpg","0","0","1","",""
"","feedback","","html-keyboard-response","252","347414","0.0-1.0-339.0-0.0","0","0","51557","","null","","","null","37","","","","","","","","","","","","","","","",""
"","ITI","","html-keyboard-response","253","348428","0.0-1.0-342.0","0","0","51557","","null","","","null","37","","","","","","","","","","","","","","","NaN",""
"","S1","","html-keyboard-response","254","348588","0.0-1.0-344.0","0","0","51557","","null","","","null","38","","","","","","","","","","","","","","","",""
"","ISI","","html-keyboard-response","255","350598","0.0-1.0-345.0","0","0","51557","","null","","","null","38","NaN","","","","","","","","","","","","","","",""
"","S2","","html-keyboard-response","256","350754","0.0-1.0-346.0","0","0","51557","","null","","","null","38","","NaN","","","","","","","","","","","","","",""
"","response","","html-keyboard-response","257","351616","0.0-1.0-347.0-0.0","0","0","51557","","856","","","75","38","","","1","38","training","adjacent","CD","3","4","M.jpg","Q.jpg","1","1","1","",""
"","feedback","","html-keyboard-response","258","352629","0.0-1.0-348.0-0.0","0","0","51557","","null","","","null","38","","","","","","","","","","","","","","","",""
"","ITI","","html-keyboard-response","259","353649","0.0-1.0-351.0","0","0","51557","","null","","","null","38","","","","","","","","","","","","","","","NaN",""
"","S1","","html-keyboard-response","260","353810","0.0-1.0-353.0","0","0","51557","","null","","","null","39","","","","","","","","","","","","","","","",""
"","ISI","","html-keyboard-response","261","355818","0.0-1.0-354.0","0","0","51557","","null","","","null","39","NaN","","","","","","","","","","","","","","",""
"","S2","","html-keyboard-response","262","355981","0.0-1.0-355.0","0","0","51557","","null","","","null","39","","NaN","","","","","","","","","","","","","",""
"","response","","html-keyboard-response","263","356742","0.0-1.0-356.0-0.0","0","0","51557","","755","","","68","39","","","1","39","training","adjacent","EF","5","6","N.jpg","R.jpg","0","1","0","",""
"","feedback","","html-keyboard-response","264","357755","0.0-1.0-357.0-0.0","0","0","51557","","null","","","null","39","","","","","","","","","","","","","","","",""
"","time_out","","html-keyboard-response","265","359762","0.0-1.0-359.0-0.0","0","0","51557","","null","","","null","39","","","","","","","","","","","","","","","",""
"","ITI","","html-keyboard-response","266","360771","0.0-1.0-360.0","0","0","51557","","null","","","null","39","","","","","","","","","","","","","","","NaN",""
"","S1","","html-keyboard-response","267","360930","0.0-1.0-362.0","0","0","51557","","null","","","null","40","","","","","","","","","","","","","","","",""
"","ISI","","html-keyboard-response","268","362938","0.0-1.0-363.0","0","0","51557","","null","","","null","40","NaN","","","","","","","","","","","","","","",""
"","S2","","html-keyboard-response","269","363099","0.0-1.0-364.0","0","0","51557","","null","","","null","40","","NaN","","","","","","","","","","","","","",""
"","response","","html-keyboard-response","270","363837","0.0-1.0-365.0-0.0","0","0","51557","","732","","","68","40","","","1","40","training","adjacent","EF","5","6","N.jpg","R.jpg","0","1","0","",""
"","feedback","","html-keyboard-response","271","364850","0.0-1.0-366.0-0.0","0","0","51557","","null","","","null","40","","","","","","","","","","","","","","","",""
"","time_out","","html-keyboard-response","272","366860","0.0-1.0-368.0-0.0","0","0","51557","","null","","","null","40","","","","","","","","","","","","","","","",""
"","ITI","","html-keyboard-response","273","367868","0.0-1.0-369.0","0","0","51557","","null","","","null","40","","","","","","","","","","","","","","","NaN",""
"","S1","","html-keyboard-response","274","368027","0.0-1.0-371.0","0","0","51557","","null","","","null","41","","","","","","","","","","","","","","","",""
"","ISI","","html-keyboard-response","275","370036","0.0-1.0-372.0","0","0","51557","","null","","","null","41","NaN","","","","","","","","","","","","","","",""
"","S2","","html-keyboard-response","276","370194","0.0-1.0-373.0","0","0","51557","","null","","","null","41","","NaN","","","","","","","","","","","","","",""
"","response","","html-keyboard-response","277","370580","0.0-1.0-374.0-0.0","0","0","51557","","378","","","75","41","","","1","41","training","adjacent","GF","7","6","O.jpg","R.jpg","1","0","0","",""
"","feedback","","html-keyboard-response","278","371590","0.0-1.0-375.0-0.0","0","0","51557","","null","","","null","41","","","","","","","","","","","","","","","",""
"","time_out","","html-keyboard-response","279","373602","0.0-1.0-377.0-0.0","0","0","51557","","null","","","null","41","","","","","","","","","","","","","","","",""
"","ITI","","html-keyboard-response","280","374612","0.0-1.0-378.0","0","0","51557","","null","","","null","41","","","","","","","","","","","","","","","NaN",""
"","S1","","html-keyboard-response","281","374773","0.0-1.0-380.0","0","0","51557","","null","","","null","42","","","","","","","","","","","","","","","",""
"","ISI","","html-keyboard-response","282","376788","0.0-1.0-381.0","0","0","51557","","null","","","null","42","NaN","","","","","","","","","","","","","","",""
"","S2","","html-keyboard-response","283","376948","0.0-1.0-382.0","0","0","51557","","null","","","null","42","","NaN","","","","","","","","","","","","","",""
"","response","","html-keyboard-response","284","378516","0.0-1.0-383.0-0.0","0","0","51557","","1562","","","68","42","","","1","42","training","adjacent","CB","3","2","M.jpg","L.jpg","0","0","1","",""
"","feedback","","html-keyboard-response","285","379524","0.0-1.0-384.0-0.0","0","0","51557","","null","","","null","42","","","","","","","","","","","","","","","",""
"","ITI","","html-keyboard-response","286","380532","0.0-1.0-387.0","0","0","51557","","null","","","null","42","","","","","","","","","","","","","","","NaN",""
"","S1","","html-keyboard-response","287","380690","0.0-1.0-389.0","0","0","51557","","null","","","null","43","","","","","","","","","","","","","","","",""
"","ISI","","html-keyboard-response","288","382700","0.0-1.0-390.0","0","0","51557","","null","","","null","43","NaN","","","","","","","","","","","","","","",""
"","S2","","html-keyboard-response","289","382861","0.0-1.0-391.0","0","0","51557","","null","","","null","43","","NaN","","","","","","","","","","","","","",""
"","response","","html-keyboard-response","290","383882","0.0-1.0-392.0-0.0","0","0","51557","","1015","","","68","43","","","1","43","training","adjacent","AB","1","2","P.jpg","L.jpg","0","1","0","",""
"","feedback","","html-keyboard-response","291","384893","0.0-1.0-393.0-0.0","0","0","51557","","null","","","null","43","","","","","","","","","","","","","","","",""
"","time_out","","html-keyboard-response","292","386908","0.0-1.0-395.0-0.0","0","0","51557","","null","","","null","43","","","","","","","","","","","","","","","",""
"","ITI","","html-keyboard-response","293","387924","0.0-1.0-396.0","0","0","51557","","null","","","null","43","","","","","","","","","","","","","","","NaN",""
"","S1","","html-keyboard-response","294","388082","0.0-1.0-398.0","0","0","51557","","null","","","null","44","","","","","","","","","","","","","","","",""
"","ISI","","html-keyboard-response","295","390092","0.0-1.0-399.0","0","0","51557","","null","","","null","44","NaN","","","","","","","","","","","","","","",""
"","S2","","html-keyboard-response","296","390250","0.0-1.0-400.0","0","0","51557","","null","","","null","44","","NaN","","","","","","","","","","","","","",""
"","response","","html-keyboard-response","297","390857","0.0-1.0-401.0-0.0","0","0","51557","","598","","","75","44","","","1","44","training","adjacent","ED","5","4","N.jpg","Q.jpg","1","0","0","",""
"","feedback","","html-keyboard-response","298","391869","0.0-1.0-402.0-0.0","0","0","51557","","null","","","null","44","","","","","","","","","","","","","","","",""
"","time_out","","html-keyboard-response","299","393884","0.0-1.0-404.0-0.0","0","0","51557","","null","","","null","44","","","","","","","","","","","","","","","",""
"","ITI","","html-keyboard-response","300","394893","0.0-1.0-405.0","0","0","51557","","null","","","null","44","","","","","","","","","","","","","","","NaN",""
"","S1","","html-keyboard-response","301","395050","0.0-1.0-407.0","0","0","51557","","null","","","null","45","","","","","","","","","","","","","","","",""
"","ISI","","html-keyboard-response","302","397059","0.0-1.0-408.0","0","0","51557","","null","","","null","45","NaN","","","","","","","","","","","","","","",""
"","S2","","html-keyboard-response","303","397377","0.0-1.0-409.0","0","0","51557","","null","","","null","45","","NaN","","","","","","","","","","","","","",""
"","response","","html-keyboard-response","304","398352","0.0-1.0-410.0-0.0","0","0","51557","","969","","","75","45","","","1","45","training","adjacent","AB","1","2","P.jpg","L.jpg","1","1","1","",""
"","feedback","","html-keyboard-response","305","399362","0.0-1.0-411.0-0.0","0","0","51557","","null","","","null","45","","","","","","","","","","","","","","","",""
"","ITI","","html-keyboard-response","306","400371","0.0-1.0-414.0","0","0","51557","","null","","","null","45","","","","","","","","","","","","","","","NaN",""
"","S1","","html-keyboard-response","307","400530","0.0-1.0-416.0","0","0","51557","","null","","","null","46","","","","","","","","","","","","","","","",""
"","ISI","","html-keyboard-response","308","402540","0.0-1.0-417.0","0","0","51557","","null","","","null","46","NaN","","","","","","","","","","","","","","",""
"","S2","","html-keyboard-response","309","402698","0.0-1.0-418.0","0","0","51557","","null","","","null","46","","NaN","","","","","","","","","","","","","",""
"","response","","html-keyboard-response","310","403322","0.0-1.0-419.0-0.0","0","0","51557","","619","","","68","46","","","1","46","training","adjacent","FG","6","7","R.jpg","O.jpg","0","1","0","",""
"","feedback","","html-keyboard-response","311","404332","0.0-1.0-420.0-0.0","0","0","51557","","null","","","null","46","","","","","","","","","","","","","","","",""
"","time_out","","html-keyboard-response","312","406347","0.0-1.0-422.0-0.0","0","0","51557","","null","","","null","46","","","","","","","","","","","","","","","",""
"","ITI","","html-keyboard-response","313","407437","0.0-1.0-423.0","0","0","51557","","222","","","68","46","","","","","","","","","","","","","","","d",""
"","S1","","html-keyboard-response","314","407594","0.0-1.0-425.0","0","0","51557","","null","","","null","47","","","","","","","","","","","","","","","",""
"","ISI","","html-keyboard-response","315","409602","0.0-1.0-426.0","0","0","51557","","196","","","75","47","k","","","","","","","","","","","","","","",""
"","S2","","html-keyboard-response","316","409762","0.0-1.0-427.0","0","0","51557","","null","","","null","47","","NaN","","","","","","","","","","","","","",""
"","response","","html-keyboard-response","317","409876","0.0-1.0-428.0-0.0","0","0","51557","","109","","","68","47","","","1","47","training","adjacent","FG","6","7","R.jpg","O.jpg","0","1","0","",""
"","feedback","","html-keyboard-response","318","410884","0.0-1.0-429.0-0.0","0","0","51557","","null","","","null","47","","","","","","","","","","","","","","","",""
"","time_out","","html-keyboard-response","319","412893","0.0-1.0-431.0-0.0","0","0","51557","","null","","","null","47","","","","","","","","","","","","","","","",""
"","ITI","","html-keyboard-response","320","413906","0.0-1.0-432.0","0","0","51557","","434","","","68","47","","","","","","","","","","","","","","","d",""
"","block_over","","html-keyboard-response","321","421250","0.0-1.0-433.0-0.0","0","0","51557","","7331","","","32","47","","","","","","","","","","","","","","","",""
"","S1","","html-keyboard-response","322","421410","0.0-1.0-434.0","0","0","51557","","null","","","null","48","","","","","","","","","","","","","","","",""
"","ISI","","html-keyboard-response","323","423420","0.0-1.0-435.0","0","0","51557","","1110","","","75","48","k","","","","","","","","","","","","","","",""
"","S2","","html-keyboard-response","324","423564","0.0-1.0-436.0","0","0","51557","","133","","","75","48","","k","2","48","training","adjacent","DC","4","3","Q.jpg","M.jpg","1","0","0","",""
"","feedback","","html-keyboard-response","325","424571","0.0-1.0-438.0-0.0","0","0","51557","","null","","","null","48","","","","","","","","","","","","","","","",""
"","time_out","","html-keyboard-response","326","426578","0.0-1.0-440.0-0.0","0","0","51557","","null","","","null","48","","","","","","","","","","","","","","","",""
"","ITI","","html-keyboard-response","327","427587","0.0-1.0-441.0","0","0","51557","","11","","","68","48","","","","","","","","","","","","","","","d",""
"","S1","","html-keyboard-response","328","427746","0.0-1.0-443.0","0","0","51557","","null","","","null","49","","","","","","","","","","","","","","","",""
"","ISI","","html-keyboard-response","329","429756","0.0-1.0-444.0","0","0","51557","","75","","","75","49","k","","","","","","","","","","","","","","",""
"","S2","","html-keyboard-response","330","429914","0.0-1.0-445.0","0","0","51557","","null","","","null","49","","NaN","","","","","","","","","","","","","",""
"","response","","html-keyboard-response","331","429993","0.0-1.0-446.0-0.0","0","0","51557","","74","","","68","49","","","2","49","training","adjacent","FG","6","7","R.jpg","O.jpg","0","1","0","",""
"","feedback","","html-keyboard-response","332","431004","0.0-1.0-447.0-0.0","0","0","51557","","null","","","null","49","","","","","","","","","","","","","","","",""
"","time_out","","html-keyboard-response","333","433016","0.0-1.0-449.0-0.0","0","0","51557","","null","","","null","49","","","","","","","","","","","","","","","",""
"","ITI","","html-keyboard-response","334","434028","0.0-1.0-450.0","0","0","51557","","15","","","75","49","","","","","","","","","","","","","","","k",""
"","S1","","html-keyboard-response","335","434196","0.0-1.0-452.0","0","0","51557","","null","","","null","50","","","","","","","","","","","","","","","",""
"","ISI","","html-keyboard-response","336","436204","0.0-1.0-453.0","0","0","51557","","232","","","68","50","d","","","","","","","","","","","","","","",""
"","S2","","html-keyboard-response","337","436335","0.0-1.0-454.0","0","0","51557","","123","","","68","50","","d","2","50","training","adjacent","GF","7","6","O.jpg","R.jpg","0","0","1","",""
"","feedback","","html-keyboard-response","338","437346","0.0-1.0-456.0-0.0","0","0","51557","","null","","","null","50","","","","","","","","","","","","","","","",""
"","ITI","","html-keyboard-response","339","438357","0.0-1.0-459.0","0","0","51557","","466","","","75","50","","","","","","","","","","","","","","","k",""
"","S1","","html-keyboard-response","340","438517","0.0-1.0-461.0","0","0","51557","","null","","","null","51","","","","","","","","","","","","","","","",""
"","ISI","","html-keyboard-response","341","440533","0.0-1.0-462.0","0","0","51557","","89","","","68","51","d","","","","","","","","","","","","","","",""
"","S2","","html-keyboard-response","342","440559","0.0-1.0-463.0","0","0","51557","","12","","","68","51","","d","2","51","training","adjacent","CD","3","4","M.jpg","Q.jpg","0","1","0","",""
"","feedback","","html-keyboard-response","343","441570","0.0-1.0-465.0-0.0","0","0","51557","","null","","","null","51","","","","","","","","","","","","","","","",""
"","time_out","","html-keyboard-response","344","443580","0.0-1.0-467.0-0.0","0","0","51557","","null","","","null","51","","","","","","","","","","","","","","","",""
"","ITI","","html-keyboard-response","345","444588","0.0-1.0-468.0","0","0","51557","","151","","","68","51","","","","","","","","","","","","","","","d",""
"","S1","","html-keyboard-response","346","444748","0.0-1.0-470.0","0","0","51557","","null","","","null","52","","","","","","","","","","","","","","","",""
"","ISI","","html-keyboard-response","347","446766","0.0-1.0-471.0","0","0","51557","","82","","","75","52","k","","","","","","","","","","","","","","",""
"","S2","","html-keyboard-response","348","446893","0.0-1.0-472.0","0","0","51557","","120","","","75","52","","k","2","52","training","adjacent","CB","3","2","M.jpg","L.jpg","1","0","0","",""
"","feedback","","html-keyboard-response","349","447908","0.0-1.0-474.0-0.0","0","0","51557","","null","","","null","52","","","","","","","","","","","","","","","",""
"","time_out","","html-keyboard-response","350","449925","0.0-1.0-476.0-0.0","0","0","51557","","null","","","null","52","","","","","","","","","","","","","","","",""
"","ITI","","html-keyboard-response","351","450941","0.0-1.0-477.0","0","0","51557","","121","","","75","52","","","","","","","","","","","","","","","k",""
"","S1","","html-keyboard-response","352","451101","0.0-1.0-479.0","0","0","51557","","null","","","null","53","","","","","","","","","","","","","","","",""
"","ISI","","html-keyboard-response","353","453106","0.0-1.0-480.0","0","0","51557","","null","","","null","53","NaN","","","","","","","","","","","","","","",""
"","S2","","html-keyboard-response","354","453385","0.0-1.0-481.0","0","0","51557","","null","","","null","53","","NaN","","","","","","","","","","","","","",""
"","response","","html-keyboard-response","355","454401","0.0-1.0-482.0-0.0","0","0","51557","","1009","","","75","53","","","2","53","training","adjacent","EF","5","6","N.jpg","R.jpg","1","1","1","",""
"","feedback","","html-keyboard-response","356","455422","0.0-1.0-483.0-0.0","0","0","51557","","null","","","null","53","","","","","","","","","","","","","","","",""
"","ITI","","html-keyboard-response","357","456436","0.0-1.0-486.0","0","0","51557","","null","","","null","53","","","","","","","","","","","","","","","NaN",""
"","S1","","html-keyboard-response","358","456596","0.0-1.0-488.0","0","0","51557","","null","","","null","54","","","","","","","","","","","","","","","",""
"","ISI","","html-keyboard-response","359","458602","0.0-1.0-489.0","0","0","51557","","null","","","null","54","NaN","","","","","","","","","","","","","","",""
"","S2","","html-keyboard-response","360","458762","0.0-1.0-490.0","0","0","51557","","null","","","null","54","","NaN","","","","","","","","","","","","","",""
"","response","","html-keyboard-response","361","459554","0.0-1.0-491.0-0.0","0","0","51557","","786","","","68","54","","","2","54","training","adjacent","CD","3","4","M.jpg","Q.jpg","0","1","0","",""
"","feedback","","html-keyboard-response","362","460570","0.0-1.0-492.0-0.0","0","0","51557","","null","","","null","54","","","","","","","","","","","","","","","",""
"","time_out","","html-keyboard-response","363","462581","0.0-1.0-494.0-0.0","0","0","51557","","null","","","null","54","","","","","","","","","","","","","","","",""
"","ITI","","html-keyboard-response","364","463594","0.0-1.0-495.0","0","0","51557","","null","","","null","54","","","","","","","","","","","","","","","NaN",""
"","S1","","html-keyboard-response","365","463754","0.0-1.0-497.0","0","0","51557","","null","","","null","55","","","","","","","","","","","","","","","",""
"","ISI","","html-keyboard-response","366","465763","0.0-1.0-498.0","0","0","51557","","null","","","null","55","NaN","","","","","","","","","","","","","","",""
"","S2","","html-keyboard-response","367","465922","0.0-1.0-499.0","0","0","51557","","null","","","null","55","","NaN","","","","","","","","","","","","","",""
"","response","","html-keyboard-response","368","466610","0.0-1.0-500.0-0.0","0","0","51557","","680","","","75","55","","","2","55","training","adjacent","FE","6","5","R.jpg","N.jpg","1","0","0","",""
"","feedback","","html-keyboard-response","369","467627","0.0-1.0-501.0-0.0","0","0","51557","","null","","","null","55","","","","","","","","","","","","","","","",""
"","time_out","","html-keyboard-response","370","469634","0.0-1.0-503.0-0.0","0","0","51557","","null","","","null","55","","","","","","","","","","","","","","","",""
"","ITI","","html-keyboard-response","371","470645","0.0-1.0-504.0","0","0","51557","","null","","","null","55","","","","","","","","","","","","","","","NaN",""
"","S1","","html-keyboard-response","372","470802","0.0-1.0-506.0","0","0","51557","","null","","","null","56","","","","","","","","","","","","","","","",""
"","ISI","","html-keyboard-response","373","472813","0.0-1.0-507.0","0","0","51557","","567","","","75","56","k","","","","","","","","","","","","","","",""
"","S2","","html-keyboard-response","374","472973","0.0-1.0-508.0","0","0","51557","","null","","","null","56","","NaN","","","","","","","","","","","","","",""
"","response","","html-keyboard-response","375","473299","0.0-1.0-509.0-0.0","0","0","51557","","320","","","75","56","","","2","56","training","adjacent","DC","4","3","Q.jpg","M.jpg","1","0","0","",""
"","feedback","","html-keyboard-response","376","474306","0.0-1.0-510.0-0.0","0","0","51557","","null","","","null","56","","","","","","","","","","","","","","","",""
"","time_out","","html-keyboard-response","377","476314","0.0-1.0-512.0-0.0","0","0","51557","","null","","","null","56","","","","","","","","","","","","","","","",""
"","ITI","","html-keyboard-response","378","477324","0.0-1.0-513.0","0","0","51557","","null","","","null","56","","","","","","","","","","","","","","","NaN",""
"","S1","","html-keyboard-response","379","477501","0.0-1.0-515.0","0","0","51557","","null","","","null","57","","","","","","","","","","","","","","","",""
"","ISI","","html-keyboard-response","380","479514","0.0-1.0-516.0","0","0","51557","","336","","","75","57","k","","","","","","","","","","","","","","",""
"","S2","","html-keyboard-response","381","479567","0.0-1.0-517.0","0","0","51557","","47","","","75","57","","k","2","57","training","adjacent","FE","6","5","R.jpg","N.jpg","1","0","0","",""
"","feedback","","html-keyboard-response","382","480578","0.0-1.0-519.0-0.0","0","0","51557","","null","","","null","57","","","","","","","","","","","","","","","",""
"","time_out","","html-keyboard-response","383","482586","0.0-1.0-521.0-0.0","0","0","51557","","null","","","null","57","","","","","","","","","","","","","","","",""
"","ITI","","html-keyboard-response","384","483595","0.0-1.0-522.0","0","0","51557","","236","","","75","57","","","","","","","","","","","","","","","k",""
"","S1","","html-keyboard-response","385","483754","0.0-1.0-524.0","0","0","51557","","null","","","null","58","","","","","","","","","","","","","","","",""
"","ISI","","html-keyboard-response","386","485762","0.0-1.0-525.0","0","0","51557","","113","","","75","58","k","","","","","","","","","","","","","","",""
"","S2","","html-keyboard-response","387","485922","0.0-1.0-526.0","0","0","51557","","null","","","null","58","","NaN","","","","","","","","","","","","","",""
"","response","","html-keyboard-response","388","486249","0.0-1.0-527.0-0.0","0","0","51557","","321","","","75","58","","","2","58","training","adjacent","ED","5","4","N.jpg","Q.jpg","1","0","0","",""
"","feedback","","html-keyboard-response","389","487259","0.0-1.0-528.0-0.0","0","0","51557","","null","","","null","58","","","","","","","","","","","","","","","",""
"","time_out","","html-keyboard-response","390","489356","0.0-1.0-530.0-0.0","0","0","51557","","null","","","null","58","","","","","","","","","","","","","","","",""
"","ITI","","html-keyboard-response","391","490373","0.0-1.0-531.0","0","0","51557","","183","","","75","58","","","","","","","","","","","","","","","k",""
"","S1","","html-keyboard-response","392","490532","0.0-1.0-533.0","0","0","51557","","null","","","null","59","","","","","","","","","","","","","","","",""
"","ISI","","html-keyboard-response","393","492540","0.0-1.0-534.0","0","0","51557","","373","","","75","59","k","","","","","","","","","","","","","","",""
"","S2","","html-keyboard-response","394","492700","0.0-1.0-535.0","0","0","51557","","null","","","null","59","","NaN","","","","","","","","","","","","","",""
"","response","","html-keyboard-response","395","492995","0.0-1.0-536.0-0.0","0","0","51557","","284","","","75","59","","","2","59","training","adjacent","CD","3","4","M.jpg","Q.jpg","1","1","1","",""
"","feedback","","html-keyboard-response","396","494005","0.0-1.0-537.0-0.0","0","0","51557","","null","","","null","59","","","","","","","","","","","","","","","",""
"","ITI","","html-keyboard-response","397","495014","0.0-1.0-540.0","0","0","51557","","340","","","75","59","","","","","","","","","","","","","","","k",""
"","S1","","html-keyboard-response","398","495183","0.0-1.0-542.0","0","0","51557","","null","","","null","60","","","","","","","","","","","","","","","",""
"","ISI","","html-keyboard-response","399","497319","0.0-1.0-543.0","0","0","51557","","273","","","75","60","k","","","","","","","","","","","","","","",""
"","S2","","html-keyboard-response","400","497459","0.0-1.0-544.0","0","0","51557","","135","","","75","60","","k","2","60","training","adjacent","FE","6","5","R.jpg","N.jpg","1","0","0","",""
"","feedback","","html-keyboard-response","401","498469","0.0-1.0-546.0-0.0","0","0","51557","","null","","","null","60","","","","","","","","","","","","","","","",""
"","time_out","","html-keyboard-response","402","500484","0.0-1.0-548.0-0.0","0","0","51557","","null","","","null","60","","","","","","","","","","","","","","","",""
"","ITI","","html-keyboard-response","403","501491","0.0-1.0-549.0","0","0","51557","","136","","","75","60","","","","","","","","","","","","","","","k",""
"","S1","","html-keyboard-response","404","501650","0.0-1.0-551.0","0","0","51557","","null","","","null","61","","","","","","","","","","","","","","","",""
"","ISI","","html-keyboard-response","405","503659","0.0-1.0-552.0","0","0","51557","","174","","","75","61","k","","","","","","","","","","","","","","",""
"","S2","","html-keyboard-response","406","503702","0.0-1.0-553.0","0","0","51557","","38","","","75","61","","k","2","61","training","adjacent","EF","5","6","N.jpg","R.jpg","1","1","1","",""
"","feedback","","html-keyboard-response","407","504716","0.0-1.0-555.0-0.0","0","0","51557","","null","","","null","61","","","","","","","","","","","","","","","",""
"","ITI","","html-keyboard-response","408","505731","0.0-1.0-558.0","0","0","51557","","325","","","75","61","","","","","","","","","","","","","","","k",""
"","S1","","html-keyboard-response","409","505894","0.0-1.0-560.0","0","0","51557","","null","","","null","62","","","","","","","","","","","","","","","",""
"","ISI","","html-keyboard-response","410","507909","0.0-1.0-561.0","0","0","51557","","139","","","75","62","k","","","","","","","","","","","","","","",""
"","S2","","html-keyboard-response","411","508066","0.0-1.0-562.0","0","0","51557","","null","","","null","62","","NaN","","","","","","","","","","","","","",""
"","response","","html-keyboard-response","412","508073","0.0-1.0-563.0-0.0","0","0","51557","","2","","","75","62","","","2","62","training","adjacent","GF","7","6","O.jpg","R.jpg","1","0","0","",""
"","feedback","","html-keyboard-response","413","509083","0.0-1.0-564.0-0.0","0","0","51557","","null","","","null","62","","","","","","","","","","","","","","","",""
"","time_out","","html-keyboard-response","414","511090","0.0-1.0-566.0-0.0","0","0","51557","","null","","","null","62","","","","","","","","","","","","","","","",""
"","ITI","","html-keyboard-response","415","512101","0.0-1.0-567.0","0","0","51557","","309","","","70","62","","","","","","","","","","","","","","","f",""
"","S1","","html-keyboard-response","416","512260","0.0-1.0-569.0","0","0","51557","","null","","","null","63","","","","","","","","","","","","","","","",""
"","ISI","","html-keyboard-response","417","514269","0.0-1.0-570.0","0","0","51557","","169","","","70","63","f","","","","","","","","","","","","","","",""
"","S2","","html-keyboard-response","418","514428","0.0-1.0-571.0","0","0","51557","","null","","","null","63","","NaN","","","","","","","","","","","","","",""
"","response","","html-keyboard-response","419","516292","0.0-1.0-572.0-0.0","0","0","51557","","null","","","null","63","","","2","63","training","adjacent","BC","2","3","L.jpg","M.jpg","NaN","1","0","",""
"","too_slow_prompt","","html-keyboard-response","420","517317","0.0-1.0-574.0-0.0","1","0","51557","","null","","","null","","","","","","","","","","","","","","","","",""
"","time_out","","html-keyboard-response","421","519405","0.0-1.0-575.0-0.0","0","0","51557","","null","","","null","63","","","","","","","","","","","","","","","",""
"","ITI","","html-keyboard-response","422","520412","0.0-1.0-576.0","0","0","51557","","52","","","68","63","","","","","","","","","","","","","","","d",""
"","S1","","html-keyboard-response","423","520573","0.0-1.0-578.0","0","0","51557","","null","","","null","64","","","","","","","","","","","","","","","",""
"","ISI","","html-keyboard-response","424","522588","0.0-1.0-579.0","0","0","51557","","169","","","68","64","d","","","","","","","","","","","","","","",""
"","S2","","html-keyboard-response","425","522599","0.0-1.0-580.0","0","0","51557","","2","","","68","64","","d","2","64","training","adjacent","BA","2","1","L.jpg","P.jpg","0","0","1","",""
"","feedback","","html-keyboard-response","426","523610","0.0-1.0-582.0-0.0","0","0","51557","","null","","","null","64","","","","","","","","","","","","","","","",""
"","ITI","","html-keyboard-response","427","524621","0.0-1.0-585.0","0","0","51557","","247","","","68","64","","","","","","","","","","","","","","","d",""
"","S1","","html-keyboard-response","428","524779","0.0-1.0-587.0","0","0","51557","","null","","","null","65","","","","","","","","","","","","","","","",""
"","ISI","","html-keyboard-response","429","526788","0.0-1.0-588.0","0","0","51557","","183","","","68","65","d","","","","","","","","","","","","","","",""
"","S2","","html-keyboard-response","430","526948","0.0-1.0-589.0","0","0","51557","","null","","","null","65","","NaN","","","","","","","","","","","","","",""
"","response","","html-keyboard-response","431","527078","0.0-1.0-590.0-0.0","0","0","51557","","115","","","68","65","","","2","65","training","adjacent","BC","2","3","L.jpg","M.jpg","0","1","0","",""
"","feedback","","html-keyboard-response","432","528091","0.0-1.0-591.0-0.0","0","0","51557","","null","","","null","65","","","","","","","","","","","","","","","",""
"","time_out","","html-keyboard-response","433","530112","0.0-1.0-593.0-0.0","0","0","51557","","null","","","null","65","","","","","","","","","","","","","","","",""
"","ITI","","html-keyboard-response","434","531122","0.0-1.0-594.0","0","0","51557","","98","","","75","65","","","","","","","","","","","","","","","k",""
"","S1","","html-keyboard-response","435","531483","0.0-1.0-596.0","0","0","51557","","null","","","null","66","","","","","","","","","","","","","","","",""
"","ISI","","html-keyboard-response","436","533496","0.0-1.0-597.0","0","0","51557","","17","","","75","66","k","","","","","","","","","","","","","","",""
"","S2","","html-keyboard-response","437","533658","0.0-1.0-598.0","0","0","51557","","null","","","null","66","","NaN","","","","","","","","","","","","","",""
"","response","","html-keyboard-response","438","533729","0.0-1.0-599.0-0.0","0","0","51557","","67","","","75","66","","","2","66","training","adjacent","EF","5","6","N.jpg","R.jpg","1","1","1","",""
"","feedback","","html-keyboard-response","439","534738","0.0-1.0-600.0-0.0","0","0","51557","","null","","","null","66","","","","","","","","","","","","","","","",""
"","ITI","","html-keyboard-response","440","535746","0.0-1.0-603.0","0","0","51557","","186","","","75","66","","","","","","","","","","","","","","","k",""
"","S1","","html-keyboard-response","441","535906","0.0-1.0-605.0","0","0","51557","","null","","","null","67","","","","","","","","","","","","","","","",""
"","ISI","","html-keyboard-response","442","537914","0.0-1.0-606.0","0","0","51557","","726","","","75","67","k","","","","","","","","","","","","","","",""
"","S2","","html-keyboard-response","443","537961","0.0-1.0-607.0","0","0","51557","","38","","","75","67","","k","2","67","training","adjacent","BA","2","1","L.jpg","P.jpg","1","0","0","",""
"","feedback","","html-keyboard-response","444","538971","0.0-1.0-609.0-0.0","0","0","51557","","null","","","null","67","","","","","","","","","","","","","","","",""
"","time_out","","html-keyboard-response","445","540978","0.0-1.0-611.0-0.0","0","0","51557","","null","","","null","67","","","","","","","","","","","","","","","",""
"","ITI","","html-keyboard-response","446","541986","0.0-1.0-612.0","0","0","51557","","461","","","68","67","","","","","","","","","","","","","","","d",""
"","S1","","html-keyboard-response","447","542147","0.0-1.0-614.0","0","0","51557","","null","","","null","68","","","","","","","","","","","","","","","",""
"","ISI","","html-keyboard-response","448","544155","0.0-1.0-615.0","0","0","51557","","288","","","68","68","d","","","","","","","","","","","","","","",""
"","S2","","html-keyboard-response","449","544315","0.0-1.0-616.0","0","0","51557","","null","","","null","68","","NaN","","","","","","","","","","","","","",""
"","response","","html-keyboard-response","450","544338","0.0-1.0-617.0-0.0","0","0","51557","","19","","","68","68","","","2","68","training","adjacent","CB","3","2","M.jpg","L.jpg","0","0","1","",""
"","feedback","","html-keyboard-response","451","545347","0.0-1.0-618.0-0.0","0","0","51557","","null","","","null","68","","","","","","","","","","","","","","","",""
"","ITI","","html-keyboard-response","452","546354","0.0-1.0-621.0","0","0","51557","","280","","","68","68","","","","","","","","","","","","","","","d",""
"","S1","","html-keyboard-response","453","546514","0.0-1.0-623.0","0","0","51557","","null","","","null","69","","","","","","","","","","","","","","","",""
"","ISI","","html-keyboard-response","454","548522","0.0-1.0-624.0","0","0","51557","","92","","","68","69","d","","","","","","","","","","","","","","",""
"","S2","","html-keyboard-response","455","548597","0.0-1.0-625.0","0","0","51557","","69","","","68","69","","d","2","69","training","adjacent","DE","4","5","Q.jpg","N.jpg","0","1","0","",""
"","feedback","","html-keyboard-response","456","549610","0.0-1.0-627.0-0.0","0","0","51557","","null","","","null","69","","","","","","","","","","","","","","","",""
"","time_out","","html-keyboard-response","457","551619","0.0-1.0-629.0-0.0","0","0","51557","","null","","","null","69","","","","","","","","","","","","","","","",""
"","ITI","","html-keyboard-response","458","552626","0.0-1.0-630.0","0","0","51557","","118","","","68","69","","","","","","","","","","","","","","","d",""
"","S1","","html-keyboard-response","459","552790","0.0-1.0-632.0","0","0","51557","","null","","","null","70","","","","","","","","","","","","","","","",""
"","ISI","","html-keyboard-response","460","554805","0.0-1.0-633.0","0","0","51557","","44","","","68","70","d","","","","","","","","","","","","","","",""
"","S2","","html-keyboard-response","461","554966","0.0-1.0-634.0","0","0","51557","","null","","","null","70","","NaN","","","","","","","","","","","","","",""
"","response","","html-keyboard-response","462","555085","0.0-1.0-635.0-0.0","0","0","51557","","112","","","68","70","","","2","70","training","adjacent","BC","2","3","L.jpg","M.jpg","0","1","0","",""
"","feedback","","html-keyboard-response","463","556102","0.0-1.0-636.0-0.0","0","0","51557","","null","","","null","70","","","","","","","","","","","","","","","",""
"","time_out","","html-keyboard-response","464","558117","0.0-1.0-638.0-0.0","0","0","51557","","null","","","null","70","","","","","","","","","","","","","","","",""
"","ITI","","html-keyboard-response","465","559131","0.0-1.0-639.0","0","0","51557","","null","","","null","70","","","","","","","","","","","","","","","NaN",""
"","S1","","html-keyboard-response","466","559504","0.0-1.0-641.0","0","0","51557","","null","","","null","71","","","","","","","","","","","","","","","",""
"","ISI","","html-keyboard-response","467","561514","0.0-1.0-642.0","0","0","51557","","null","","","null","71","NaN","","","","","","","","","","","","","","",""
"","S2","","html-keyboard-response","468","561674","0.0-1.0-643.0","0","0","51557","","null","","","null","71","","NaN","","","","","","","","","","","","","",""
"","response","","html-keyboard-response","469","562288","0.0-1.0-644.0-0.0","0","0","51557","","606","","","75","71","","","2","71","training","adjacent","CB","3","2","M.jpg","L.jpg","1","0","0","",""
"","feedback","","html-keyboard-response","470","563383","0.0-1.0-645.0-0.0","0","0","51557","","null","","","null","71","","","","","","","","","","","","","","","",""
"","time_out","","html-keyboard-response","471","565394","0.0-1.0-647.0-0.0","0","0","51557","","null","","","null","71","","","","","","","","","","","","","","","",""
"","ITI","","html-keyboard-response","472","566405","0.0-1.0-648.0","0","0","51557","","null","","","null","71","","","","","","","","","","","","","","","NaN",""
"","S1","","html-keyboard-response","473","566562","0.0-1.0-650.0","0","0","51557","","null","","","null","72","","","","","","","","","","","","","","","",""
"","ISI","","html-keyboard-response","474","568572","0.0-1.0-651.0","0","0","51557","","null","","","null","72","NaN","","","","","","","","","","","","","","",""
"","S2","","html-keyboard-response","475","568730","0.0-1.0-652.0","0","0","51557","","null","","","null","72","","NaN","","","","","","","","","","","","","",""
"","response","","html-keyboard-response","476","569331","0.0-1.0-653.0-0.0","0","0","51557","","595","","","75","72","","","2","72","training","adjacent","DE","4","5","Q.jpg","N.jpg","1","1","1","",""
"","feedback","","html-keyboard-response","477","570340","0.0-1.0-654.0-0.0","0","0","51557","","null","","","null","72","","","","","","","","","","","","","","","",""
"","ITI","","html-keyboard-response","478","571390","0.0-1.0-657.0","0","0","51557","","null","","","null","72","","","","","","","","","","","","","","","NaN",""
"","S1","","html-keyboard-response","479","571546","0.0-1.0-659.0","0","0","51557","","null","","","null","73","","","","","","","","","","","","","","","",""
"","ISI","","html-keyboard-response","480","573562","0.0-1.0-660.0","0","0","51557","","null","","","null","73","NaN","","","","","","","","","","","","","","",""
"","S2","","html-keyboard-response","481","573722","0.0-1.0-661.0","0","0","51557","","null","","","null","73","","NaN","","","","","","","","","","","","","",""
"","response","","html-keyboard-response","482","574195","0.0-1.0-662.0-0.0","0","0","51557","","466","","","75","73","","","2","73","training","adjacent","FG","6","7","R.jpg","O.jpg","1","1","1","",""
"","feedback","","html-keyboard-response","483","575411","0.0-1.0-663.0-0.0","0","0","51557","","null","","","null","73","","","","","","","","","","","","","","","",""
"","ITI","","html-keyboard-response","484","576421","0.0-1.0-666.0","0","0","51557","","null","","","null","73","","","","","","","","","","","","","","","NaN",""
"","S1","","html-keyboard-response","485","576578","0.0-1.0-668.0","0","0","51557","","null","","","null","74","","","","","","","","","","","","","","","",""
"","ISI","","html-keyboard-response","486","578586","0.0-1.0-669.0","0","0","51557","","null","","","null","74","NaN","","","","","","","","","","","","","","",""
"","S2","","html-keyboard-response","487","578746","0.0-1.0-670.0","0","0","51557","","null","","","null","74","","NaN","","","","","","","","","","","","","",""
"","response","","html-keyboard-response","488","579642","0.0-1.0-671.0-0.0","0","0","51557","","890","","","75","74","","","2","74","training","adjacent","AB","1","2","P.jpg","L.jpg","1","1","1","",""
"","feedback","","html-keyboard-response","489","580652","0.0-1.0-672.0-0.0","0","0","51557","","null","","","null","74","","","","","","","","","","","","","","","",""
"","ITI","","html-keyboard-response","490","581666","0.0-1.0-675.0","0","0","51557","","null","","","null","74","","","","","","","","","","","","","","","NaN",""
"","S1","","html-keyboard-response","491","581830","0.0-1.0-677.0","0","0","51557","","null","","","null","75","","","","","","","","","","","","","","","",""
"","ISI","","html-keyboard-response","492","583845","0.0-1.0-678.0","0","0","51557","","null","","","null","75","NaN","","","","","","","","","","","","","","",""
"","S2","","html-keyboard-response","493","584007","0.0-1.0-679.0","0","0","51557","","null","","","null","75","","NaN","","","","","","","","","","","","","",""
"","response","","html-keyboard-response","494","584220","0.0-1.0-680.0-0.0","0","0","51557","","205","","","75","75","","","2","75","training","adjacent","AB","1","2","P.jpg","L.jpg","1","1","1","",""
"","feedback","","html-keyboard-response","495","585331","0.0-1.0-681.0-0.0","0","0","51557","","null","","","null","75","","","","","","","","","","","","","","","",""
"","ITI","","html-keyboard-response","496","586340","0.0-1.0-684.0","0","0","51557","","null","","","null","75","","","","","","","","","","","","","","","NaN",""
"","S1","","html-keyboard-response","497","586498","0.0-1.0-686.0","0","0","51557","","null","","","null","76","","","","","","","","","","","","","","","",""
"","ISI","","html-keyboard-response","498","588508","0.0-1.0-687.0","0","0","51557","","null","","","null","76","NaN","","","","","","","","","","","","","","",""
"","S2","","html-keyboard-response","499","588669","0.0-1.0-688.0","0","0","51557","","null","","","null","76","","NaN","","","","","","","","","","","","","",""
"","response","","html-keyboard-response","500","589333","0.0-1.0-689.0-0.0","0","0","51557","","658","","","75","76","","","2","76","training","adjacent","DC","4","3","Q.jpg","M.jpg","1","0","0","",""
"","feedback","","html-keyboard-response","501","590349","0.0-1.0-690.0-0.0","0","0","51557","","null","","","null","76","","","","","","","","","","","","","","","",""
"","time_out","","html-keyboard-response","502","592363","0.0-1.0-692.0-0.0","0","0","51557","","null","","","null","76","","","","","","","","","","","","","","","",""
"","ITI","","html-keyboard-response","503","593371","0.0-1.0-693.0","0","0","51557","","null","","","null","76","","","","","","","","","","","","","","","NaN",""
"","S1","","html-keyboard-response","504","593530","0.0-1.0-695.0","0","0","51557","","null","","","null","77","","","","","","","","","","","","","","","",""
"","ISI","","html-keyboard-response","505","595563","0.0-1.0-696.0","0","0","51557","","null","","","null","77","NaN","","","","","","","","","","","","","","",""
"","S2","","html-keyboard-response","506","595722","0.0-1.0-697.0","0","0","51557","","null","","","null","77","","NaN","","","","","","","","","","","","","",""
"","response","","html-keyboard-response","507","596036","0.0-1.0-698.0-0.0","0","0","51557","","300","","","68","77","","","2","77","training","adjacent","AB","1","2","P.jpg","L.jpg","0","1","0","",""
"","feedback","","html-keyboard-response","508","597043","0.0-1.0-699.0-0.0","0","0","51557","","null","","","null","77","","","","","","","","","","","","","","","",""
"","time_out","","html-keyboard-response","509","599050","0.0-1.0-701.0-0.0","0","0","51557","","null","","","null","77","","","","","","","","","","","","","","","",""
"","ITI","","html-keyboard-response","510","600059","0.0-1.0-702.0","0","0","51557","","null","","","null","77","","","","","","","","","","","","","","","NaN",""
"","S1","","html-keyboard-response","511","600218","0.0-1.0-704.0","0","0","51557","","null","","","null","78","","","","","","","","","","","","","","","",""
"","ISI","","html-keyboard-response","512","602227","0.0-1.0-705.0","0","0","51557","","340","","","75","78","k","","","","","","","","","","","","","","",""
"","S2","","html-keyboard-response","513","602386","0.0-1.0-706.0","0","0","51557","","null","","","null","78","","NaN","","","","","","","","","","","","","",""
"","response","","html-keyboard-response","514","602517","0.0-1.0-707.0-0.0","0","0","51557","","125","","","75","78","","","2","78","training","adjacent","GF","7","6","O.jpg","R.jpg","1","0","0","",""
"","feedback","","html-keyboard-response","515","603530","0.0-1.0-708.0-0.0","0","0","51557","","null","","","null","78","","","","","","","","","","","","","","","",""
"","time_out","","html-keyboard-response","516","605537","0.0-1.0-710.0-0.0","0","0","51557","","null","","","null","78","","","","","","","","","","","","","","","",""
"","ITI","","html-keyboard-response","517","606546","0.0-1.0-711.0","0","0","51557","","null","","","null","78","","","","","","","","","","","","","","","NaN",""
"","S1","","html-keyboard-response","518","606713","0.0-1.0-713.0","0","0","51557","","null","","","null","79","","","","","","","","","","","","","","","",""
"","ISI","","html-keyboard-response","519","608724","0.0-1.0-714.0","0","0","51557","","null","","","null","79","NaN","","","","","","","","","","","","","","",""
"","S2","","html-keyboard-response","520","608882","0.0-1.0-715.0","0","0","51557","","null","","","null","79","","NaN","","","","","","","","","","","","","",""
"","response","","html-keyboard-response","521","609319","0.0-1.0-716.0-0.0","0","0","51557","","430","","","68","79","","","2","79","training","adjacent","DE","4","5","Q.jpg","N.jpg","0","1","0","",""
"","feedback","","html-keyboard-response","522","610332","0.0-1.0-717.0-0.0","0","0","51557","","null","","","null","79","","","","","","","","","","","","","","","",""
"","time_out","","html-keyboard-response","523","612348","0.0-1.0-719.0-0.0","0","0","51557","","null","","","null","79","","","","","","","","","","","","","","","",""
"","ITI","","html-keyboard-response","524","613362","0.0-1.0-720.0","0","0","51557","","null","","","null","79","","","","","","","","","","","","","","","NaN",""
"","S1","","html-keyboard-response","525","613522","0.0-1.0-722.0","0","0","51557","","null","","","null","80","","","","","","","","","","","","","","","",""
"","ISI","","html-keyboard-response","526","615538","0.0-1.0-723.0","0","0","51557","","528","","","75","80","k","","","","","","","","","","","","","","",""
"","S2","","html-keyboard-response","527","615698","0.0-1.0-724.0","0","0","51557","","null","","","null","80","","NaN","","","","","","","","","","","","","",""
"","response","","html-keyboard-response","528","615827","0.0-1.0-725.0-0.0","0","0","51557","","123","","","75","80","","","2","80","training","adjacent","DE","4","5","Q.jpg","N.jpg","1","1","1","",""
"","feedback","","html-keyboard-response","529","616836","0.0-1.0-726.0-0.0","0","0","51557","","null","","","null","80","","","","","","","","","","","","","","","",""
"","ITI","","html-keyboard-response","530","617853","0.0-1.0-729.0","0","0","51557","","null","","","null","80","","","","","","","","","","","","","","","NaN",""
"","S1","","html-keyboard-response","531","618013","0.0-1.0-731.0","0","0","51557","","null","","","null","81","","","","","","","","","","","","","","","",""
"","ISI","","html-keyboard-response","532","620028","0.0-1.0-732.0","0","0","51557","","330","","","75","81","k","","","","","","","","","","","","","","",""
"","S2","","html-keyboard-response","533","620186","0.0-1.0-733.0","0","0","51557","","null","","","null","81","","NaN","","","","","","","","","","","","","",""
"","response","","html-keyboard-response","534","620306","0.0-1.0-734.0-0.0","0","0","51557","","114","","","75","81","","","2","81","training","adjacent","EF","5","6","N.jpg","R.jpg","1","1","1","",""
"","feedback","","html-keyboard-response","535","621314","0.0-1.0-735.0-0.0","0","0","51557","","null","","","null","81","","","","","","","","","","","","","","","",""
"","ITI","","html-keyboard-response","536","622324","0.0-1.0-738.0","0","0","51557","","null","","","null","81","","","","","","","","","","","","","","","NaN",""
"","S1","","html-keyboard-response","537","622484","0.0-1.0-740.0","0","0","51557","","null","","","null","82","","","","","","","","","","","","","","","",""
"","ISI","","html-keyboard-response","538","624493","0.0-1.0-741.0","0","0","51557","","631","","","75","82","k","","","","","","","","","","","","","","",""
"","S2","","html-keyboard-response","539","624650","0.0-1.0-742.0","0","0","51557","","null","","","null","82","","NaN","","","","","","","","","","","","","",""
"","response","","html-keyboard-response","540","624777","0.0-1.0-743.0-0.0","0","0","51557","","119","","","75","82","","","2","82","training","adjacent","ED","5","4","N.jpg","Q.jpg","1","0","0","",""
"","feedback","","html-keyboard-response","541","625788","0.0-1.0-744.0-0.0","0","0","51557","","null","","","null","82","","","","","","","","","","","","","","","",""
"","time_out","","html-keyboard-response","542","627804","0.0-1.0-746.0-0.0","0","0","51557","","null","","","null","82","","","","","","","","","","","","","","","",""
"","ITI","","html-keyboard-response","543","628812","0.0-1.0-747.0","0","0","51557","","null","","","null","82","","","","","","","","","","","","","","","NaN",""
"","S1","","html-keyboard-response","544","628971","0.0-1.0-749.0","0","0","51557","","null","","","null","83","","","","","","","","","","","","","","","",""
"","ISI","","html-keyboard-response","545","630980","0.0-1.0-750.0","0","0","51557","","324","","","68","83","d","","","","","","","","","","","","","","",""
"","S2","","html-keyboard-response","546","631154","0.0-1.0-751.0","0","0","51557","","null","","","null","83","","NaN","","","","","","","","","","","","","",""
"","response","","html-keyboard-response","547","631459","0.0-1.0-752.0-0.0","0","0","51557","","300","","","68","83","","","2","83","training","adjacent","CD","3","4","M.jpg","Q.jpg","0","1","0","",""
"","feedback","","html-keyboard-response","548","632468","0.0-1.0-753.0-0.0","0","0","51557","","null","","","null","83","","","","","","","","","","","","","","","",""
"","time_out","","html-keyboard-response","549","634484","0.0-1.0-755.0-0.0","0","0","51557","","null","","","null","83","","","","","","","","","","","","","","","",""
"","ITI","","html-keyboard-response","550","635490","0.0-1.0-756.0","0","0","51557","","null","","","null","83","","","","","","","","","","","","","","","NaN",""
"","S1","","html-keyboard-response","551","635650","0.0-1.0-758.0","0","0","51557","","null","","","null","84","","","","","","","","","","","","","","","",""
"","ISI","","html-keyboard-response","552","637659","0.0-1.0-759.0","0","0","51557","","796","","","75","84","k","","","","","","","","","","","","","","",""
"","S2","","html-keyboard-response","553","637818","0.0-1.0-760.0","0","0","51557","","null","","","null","84","","NaN","","","","","","","","","","","","","",""
"","response","","html-keyboard-response","554","638064","0.0-1.0-761.0-0.0","0","0","51557","","237","","","75","84","","","2","84","training","adjacent","FG","6","7","R.jpg","O.jpg","1","1","1","",""
"","feedback","","html-keyboard-response","555","639074","0.0-1.0-762.0-0.0","0","0","51557","","null","","","null","84","","","","","","","","","","","","","","","",""
"","ITI","","html-keyboard-response","556","640082","0.0-1.0-765.0","0","0","51557","","null","","","null","84","","","","","","","","","","","","","","","NaN",""
"","S1","","html-keyboard-response","557","640242","0.0-1.0-767.0","0","0","51557","","null","","","null","85","","","","","","","","","","","","","","","",""
"","ISI","","html-keyboard-response","558","642252","0.0-1.0-768.0","0","0","51557","","null","","","null","85","NaN","","","","","","","","","","","","","","",""
"","S2","","html-keyboard-response","559","642410","0.0-1.0-769.0","0","0","51557","","null","","","null","85","","NaN","","","","","","","","","","","","","",""
"","response","","html-keyboard-response","560","642731","0.0-1.0-770.0-0.0","0","0","51557","","313","","","75","85","","","2","85","training","adjacent","ED","5","4","N.jpg","Q.jpg","1","0","0","",""
"","feedback","","html-keyboard-response","561","643747","0.0-1.0-771.0-0.0","0","0","51557","","null","","","null","85","","","","","","","","","","","","","","","",""
"","time_out","","html-keyboard-response","562","645755","0.0-1.0-773.0-0.0","0","0","51557","","null","","","null","85","","","","","","","","","","","","","","","",""
"","ITI","","html-keyboard-response","563","646764","0.0-1.0-774.0","0","0","51557","","33","","","68","85","","","","","","","","","","","","","","","d",""
"","S1","","html-keyboard-response","564","646922","0.0-1.0-776.0","0","0","51557","","null","","","null","86","","","","","","","","","","","","","","","",""
"","ISI","","html-keyboard-response","565","648933","0.0-1.0-777.0","0","0","51557","","222","","","68","86","d","","","","","","","","","","","","","","",""
"","S2","","html-keyboard-response","566","649091","0.0-1.0-778.0","0","0","51557","","null","","","null","86","","NaN","","","","","","","","","","","","","",""
"","response","","html-keyboard-response","567","649358","0.0-1.0-779.0-0.0","0","0","51557","","256","","","68","86","","","2","86","training","adjacent","FG","6","7","R.jpg","O.jpg","0","1","0","",""
"","feedback","","html-keyboard-response","568","650372","0.0-1.0-780.0-0.0","0","0","51557","","null","","","null","86","","","","","","","","","","","","","","","",""
"","time_out","","html-keyboard-response","569","652390","0.0-1.0-782.0-0.0","0","0","51557","","null","","","null","86","","","","","","","","","","","","","","","",""
"","ITI","","html-keyboard-response","570","653403","0.0-1.0-783.0","0","0","51557","","null","","","null","86","","","","","","","","","","","","","","","NaN",""
"","S1","","html-keyboard-response","571","653562","0.0-1.0-785.0","0","0","51557","","null","","","null","87","","","","","","","","","","","","","","","",""
"","ISI","","html-keyboard-response","572","655571","0.0-1.0-786.0","0","0","51557","","413","","","75","87","k","","","","","","","","","","","","","","",""
"","S2","","html-keyboard-response","573","655730","0.0-1.0-787.0","0","0","51557","","null","","","null","87","","NaN","","","","","","","","","","","","","",""
"","response","","html-keyboard-response","574","655988","0.0-1.0-788.0-0.0","0","0","51557","","252","","","75","87","","","2","87","training","adjacent","ED","5","4","N.jpg","Q.jpg","1","0","0","",""
"","feedback","","html-keyboard-response","575","656995","0.0-1.0-789.0-0.0","0","0","51557","","null","","","null","87","","","","","","","","","","","","","","","",""
"","time_out","","html-keyboard-response","576","659003","0.0-1.0-791.0-0.0","0","0","51557","","null","","","null","87","","","","","","","","","","","","","","","",""
"","ITI","","html-keyboard-response","577","660010","0.0-1.0-792.0","0","0","51557","","null","","","null","87","","","","","","","","","","","","","","","NaN",""
"","S1","","html-keyboard-response","578","660172","0.0-1.0-794.0","0","0","51557","","null","","","null","88","","","","","","","","","","","","","","","",""
"","ISI","","html-keyboard-response","579","662178","0.0-1.0-795.0","0","0","51557","","494","","","75","88","k","","","","","","","","","","","","","","",""
"","S2","","html-keyboard-response","580","662339","0.0-1.0-796.0","0","0","51557","","null","","","null","88","","NaN","","","","","","","","","","","","","",""
"","response","","html-keyboard-response","581","662456","0.0-1.0-797.0-0.0","0","0","51557","","112","","","75","88","","","2","88","training","adjacent","BA","2","1","L.jpg","P.jpg","1","0","0","",""
"","feedback","","html-keyboard-response","582","663467","0.0-1.0-798.0-0.0","0","0","51557","","null","","","null","88","","","","","","","","","","","","","","","",""
