"success","ttype","start_time","trial_type","trial_index","time_elapsed","internal_node_id","warning","missed_checkup","PID","view_history","rt","responses","repeat_instructions","key_press","index","keypress_isi","keypress_S2","block","trial_num","phase","group_type","pair_type","S1_stim","S2_stim","S1_img","S2_img","S1_chosen","S1_higher","accuracy","keypress_iti","total_bonus_tally"
"true","full_screen","d03082023hr0218","fullscreen","0","3748","0.0-0.0","0","0","71531","","","","","","","","","","","","","","","","","","","","","",""
"","instructions","","instructions","1","92879","0.0-1.0-0.0-0.0","0","0","71531","[{""page_index"":0,""viewing_time"":6113},{""page_index"":1,""viewing_time"":74976},{""page_index"":2,""viewing_time"":6584},{""page_index"":3,""viewing_time"":1455}]","89129","","","","","","","","","","","","","","","","","","","",""
"","comprehension_check","","survey-multi-choice","2","113462","0.0-1.0-0.0-1.0","0","0","71531","","20578","{""Q0"":""True"",""Q1"":""K"",""Q2"":""Only when the screen 'MAKE A CHOICE' is shown"",""Q3"":""Green mark"",""Q4"":""either D or K""}","1","","","","","","","","","","","","","","","","","",""
"","missed_instruction_checkup","","html-keyboard-response","3","115065","0.0-1.0-0.0-2.0-0.0","0","1","71531","","1597","","","32","","","","","","","","","","","","","","","","",""
"","instructions","","instructions","4","136057","0.0-1.0-0.1-0.1","0","0","71531","[{""page_index"":0,""viewing_time"":3711},{""page_index"":1,""viewing_time"":11018},{""page_index"":2,""viewing_time"":4695},{""page_index"":3,""viewing_time"":1565}]","20990","","","","","","","","","","","","","","","","","","","",""
"","comprehension_check","","survey-multi-choice","5","152481","0.0-1.0-0.1-1.1","0","0","71531","","16419","{""Q0"":""True"",""Q1"":""K"",""Q2"":""Once the second image appears and while the screen 'MAKE A CHOICE' is shown"",""Q3"":""Green mark"",""Q4"":""either D or K""}","0","","","","","","","","","","","","","","","","","",""
"","start_exp","","html-keyboard-response","6","154306","0.0-1.0-1.0","0","0","71531","","1822","","","32","","","","","","","","","","","","","","","","",""
"","S1","","html-keyboard-response","7","154561","0.0-1.0-2.0","0","0","71531","","null","","","null","0","","","","","","","","","","","","","","","",""
"","ISI","","html-keyboard-response","8","155563","0.0-1.0-3.0","0","0","71531","","null","","","null","0","NaN","","","","","","","","","","","","","","",""
"","S2","","html-keyboard-response","9","155817","0.0-1.0-4.0","0","0","71531","","null","","","null","0","","NaN","","","","","","","","","","","","","",""
"","response","","html-keyboard-response","10","156601","0.0-1.0-5.0-0.0","0","0","71531","","781","","","75","0","","","1","0","training","adjacent","CD","3","4","L.jpg","R.jpg","1","1","1","",""
"","feedback","","html-keyboard-response","11","157604","0.0-1.0-6.0-0.0","0","0","71531","","null","","","null","0","","","","","","","","","","","","","","","",""
"","ITI","","html-keyboard-response","12","158607","0.0-1.0-9.0","0","0","71531","","null","","","null","0","","","","","","","","","","","","","","","NaN",""
"","S1","","html-keyboard-response","13","158861","0.0-1.0-11.0","0","0","71531","","null","","","null","1","","","","","","","","","","","","","","","",""
"","ISI","","html-keyboard-response","14","159864","0.0-1.0-12.0","0","0","71531","","null","","","null","1","NaN","","","","","","","","","","","","","","",""
"","S2","","html-keyboard-response","15","160116","0.0-1.0-13.0","0","0","71531","","null","","","null","1","","NaN","","","","","","","","","","","","","",""
"","response","","html-keyboard-response","16","161014","0.0-1.0-14.0-0.0","0","0","71531","","895","","","75","1","","","1","1","training","adjacent","GF","7","6","Q.jpg","O.jpg","1","0","0","",""
"","feedback","","html-keyboard-response","17","162017","0.0-1.0-15.0-0.0","0","0","71531","","null","","","null","1","","","","","","","","","","","","","","","",""
"","time_out","","html-keyboard-response","18","164020","0.0-1.0-17.0-0.0","0","0","71531","","null","","","null","1","","","","","","","","","","","","","","","",""
"","ITI","","html-keyboard-response","19","165023","0.0-1.0-18.0","0","0","71531","","null","","","null","1","","","","","","","","","","","","","","","NaN",""
"","S1","","html-keyboard-response","20","165276","0.0-1.0-20.0","0","0","71531","","null","","","null","2","","","","","","","","","","","","","","","",""
"","ISI","","html-keyboard-response","21","166278","0.0-1.0-21.0","0","0","71531","","null","","","null","2","NaN","","","","","","","","","","","","","","",""
"","S2","","html-keyboard-response","22","166532","0.0-1.0-22.0","0","0","71531","","null","","","null","2","","NaN","","","","","","","","","","","","","",""
"","response","","html-keyboard-response","23","167170","0.0-1.0-23.0-0.0","0","0","71531","","636","","","75","2","","","1","2","training","adjacent","ED","5","4","P.jpg","R.jpg","1","0","0","",""
"","feedback","","html-keyboard-response","24","168173","0.0-1.0-24.0-0.0","0","0","71531","","null","","","null","2","","","","","","","","","","","","","","","",""
"","time_out","","html-keyboard-response","25","170175","0.0-1.0-26.0-0.0","0","0","71531","","null","","","null","2","","","","","","","","","","","","","","","",""
"","ITI","","html-keyboard-response","26","171178","0.0-1.0-27.0","0","0","71531","","null","","","null","2","","","","","","","","","","","","","","","NaN",""
"","S1","","html-keyboard-response","27","171431","0.0-1.0-29.0","0","0","71531","","null","","","null","3","","","","","","","","","","","","","","","",""
"","ISI","","html-keyboard-response","28","172434","0.0-1.0-30.0","0","0","71531","","null","","","null","3","NaN","","","","","","","","","","","","","","",""
"","S2","","html-keyboard-response","29","172688","0.0-1.0-31.0","0","0","71531","","null","","","null","3","","NaN","","","","","","","","","","","","","",""
"","response","","html-keyboard-response","30","172856","0.0-1.0-32.0-0.0","0","0","71531","","166","","","68","3","","","1","3","training","adjacent","GF","7","6","Q.jpg","O.jpg","0","0","1","",""
"","feedback","","html-keyboard-response","31","173860","0.0-1.0-33.0-0.0","0","0","71531","","null","","","null","3","","","","","","","","","","","","","","","",""
"","ITI","","html-keyboard-response","32","174863","0.0-1.0-36.0","0","0","71531","","null","","","null","3","","","","","","","","","","","","","","","NaN",""
"","S1","","html-keyboard-response","33","175115","0.0-1.0-38.0","0","0","71531","","null","","","null","4","","","","","","","","","","","","","","","",""
"","ISI","","html-keyboard-response","34","176117","0.0-1.0-39.0","0","0","71531","","null","","","null","4","NaN","","","","","","","","","","","","","","",""
"","S2","","html-keyboard-response","35","176371","0.0-1.0-40.0","0","0","71531","","null","","","null","4","","NaN","","","","","","","","","","","","","",""
"","response","","html-keyboard-response","36","177015","0.0-1.0-41.0-0.0","0","0","71531","","643","","","75","4","","","1","4","training","adjacent","BA","2","1","M.jpg","N.jpg","1","0","0","",""
"","feedback","","html-keyboard-response","37","178025","0.0-1.0-42.0-0.0","0","0","71531","","null","","","null","4","","","","","","","","","","","","","","","",""
"","time_out","","html-keyboard-response","38","180027","0.0-1.0-44.0-0.0","0","0","71531","","null","","","null","4","","","","","","","","","","","","","","","",""
"","ITI","","html-keyboard-response","39","181030","0.0-1.0-45.0","0","0","71531","","null","","","null","4","","","","","","","","","","","","","","","NaN",""
"","S1","","html-keyboard-response","40","181284","0.0-1.0-47.0","0","0","71531","","null","","","null","5","","","","","","","","","","","","","","","",""
"","ISI","","html-keyboard-response","41","182287","0.0-1.0-48.0","0","0","71531","","null","","","null","5","NaN","","","","","","","","","","","","","","",""
"","S2","","html-keyboard-response","42","182542","0.0-1.0-49.0","0","0","71531","","null","","","null","5","","NaN","","","","","","","","","","","","","",""
"","response","","html-keyboard-response","43","183211","0.0-1.0-50.0-0.0","0","0","71531","","667","","","68","5","","","1","5","training","adjacent","AB","1","2","N.jpg","M.jpg","0","1","0","",""
"","feedback","","html-keyboard-response","44","184214","0.0-1.0-51.0-0.0","0","0","71531","","null","","","null","5","","","","","","","","","","","","","","","",""
"","time_out","","html-keyboard-response","45","186217","0.0-1.0-53.0-0.0","0","0","71531","","null","","","null","5","","","","","","","","","","","","","","","",""
"","ITI","","html-keyboard-response","46","187221","0.0-1.0-54.0","0","0","71531","","null","","","null","5","","","","","","","","","","","","","","","NaN",""
"","S1","","html-keyboard-response","47","187475","0.0-1.0-56.0","0","0","71531","","null","","","null","6","","","","","","","","","","","","","","","",""
"","ISI","","html-keyboard-response","48","188478","0.0-1.0-57.0","0","0","71531","","null","","","null","6","NaN","","","","","","","","","","","","","","",""
"","S2","","html-keyboard-response","49","188731","0.0-1.0-58.0","0","0","71531","","null","","","null","6","","NaN","","","","","","","","","","","","","",""
"","response","","html-keyboard-response","50","189210","0.0-1.0-59.0-0.0","0","0","71531","","477","","","68","6","","","1","6","training","adjacent","GF","7","6","Q.jpg","O.jpg","0","0","1","",""
"","feedback","","html-keyboard-response","51","190214","0.0-1.0-60.0-0.0","0","0","71531","","null","","","null","6","","","","","","","","","","","","","","","",""
"","ITI","","html-keyboard-response","52","191217","0.0-1.0-63.0","0","0","71531","","null","","","null","6","","","","","","","","","","","","","","","NaN",""
"","S1","","html-keyboard-response","53","191470","0.0-1.0-65.0","0","0","71531","","null","","","null","7","","","","","","","","","","","","","","","",""
"","ISI","","html-keyboard-response","54","192472","0.0-1.0-66.0","0","0","71531","","null","","","null","7","NaN","","","","","","","","","","","","","","",""
"","S2","","html-keyboard-response","55","192726","0.0-1.0-67.0","0","0","71531","","null","","","null","7","","NaN","","","","","","","","","","","","","",""
"","response","","html-keyboard-response","56","192952","0.0-1.0-68.0-0.0","0","0","71531","","223","","","75","7","","","1","7","training","adjacent","FG","6","7","O.jpg","Q.jpg","1","1","1","",""
"","feedback","","html-keyboard-response","57","193955","0.0-1.0-69.0-0.0","0","0","71531","","null","","","null","7","","","","","","","","","","","","","","","",""
"","ITI","","html-keyboard-response","58","194957","0.0-1.0-72.0","0","0","71531","","null","","","null","7","","","","","","","","","","","","","","","NaN",""
"","S1","","html-keyboard-response","59","195211","0.0-1.0-74.0","0","0","71531","","null","","","null","8","","","","","","","","","","","","","","","",""
"","ISI","","html-keyboard-response","60","196214","0.0-1.0-75.0","0","0","71531","","null","","","null","8","NaN","","","","","","","","","","","","","","",""
"","S2","","html-keyboard-response","61","196468","0.0-1.0-76.0","0","0","71531","","null","","","null","8","","NaN","","","","","","","","","","","","","",""
"","response","","html-keyboard-response","62","197137","0.0-1.0-77.0-0.0","0","0","71531","","667","","","75","8","","","1","8","training","adjacent","EF","5","6","P.jpg","O.jpg","1","1","1","",""
"","feedback","","html-keyboard-response","63","198142","0.0-1.0-78.0-0.0","0","0","71531","","null","","","null","8","","","","","","","","","","","","","","","",""
"","ITI","","html-keyboard-response","64","199145","0.0-1.0-81.0","0","0","71531","","null","","","null","8","","","","","","","","","","","","","","","NaN",""
"","S1","","html-keyboard-response","65","199412","0.0-1.0-83.0","0","0","71531","","null","","","null","9","","","","","","","","","","","","","","","",""
"","ISI","","html-keyboard-response","66","200415","0.0-1.0-84.0","0","0","71531","","null","","","null","9","NaN","","","","","","","","","","","","","","",""
"","S2","","html-keyboard-response","67","200679","0.0-1.0-85.0","0","0","71531","","null","","","null","9","","NaN","","","","","","","","","","","","","",""
"","response","","html-keyboard-response","68","200831","0.0-1.0-86.0-0.0","0","0","71531","","149","","","75","9","","","1","9","training","adjacent","FE","6","5","O.jpg","P.jpg","1","0","0","",""
"","feedback","","html-keyboard-response","69","201834","0.0-1.0-87.0-0.0","0","0","71531","","null","","","null","9","","","","","","","","","","","","","","","",""
"","time_out","","html-keyboard-response","70","203837","0.0-1.0-89.0-0.0","0","0","71531","","null","","","null","9","","","","","","","","","","","","","","","",""
"","ITI","","html-keyboard-response","71","204840","0.0-1.0-90.0","0","0","71531","","null","","","null","9","","","","","","","","","","","","","","","NaN",""
"","S1","","html-keyboard-response","72","205092","0.0-1.0-92.0","0","0","71531","","null","","","null","10","","","","","","","","","","","","","","","",""
"","ISI","","html-keyboard-response","73","206095","0.0-1.0-93.0","0","0","71531","","null","","","null","10","NaN","","","","","","","","","","","","","","",""
"","S2","","html-keyboard-response","74","206349","0.0-1.0-94.0","0","0","71531","","null","","","null","10","","NaN","","","","","","","","","","","","","",""
"","response","","html-keyboard-response","75","207151","0.0-1.0-95.0-0.0","0","0","71531","","800","","","68","10","","","1","10","training","adjacent","FG","6","7","O.jpg","Q.jpg","0","1","0","",""
"","feedback","","html-keyboard-response","76","208154","0.0-1.0-96.0-0.0","0","0","71531","","null","","","null","10","","","","","","","","","","","","","","","",""
"","time_out","","html-keyboard-response","77","210158","0.0-1.0-98.0-0.0","0","0","71531","","null","","","null","10","","","","","","","","","","","","","","","",""
"","ITI","","html-keyboard-response","78","211161","0.0-1.0-99.0","0","0","71531","","null","","","null","10","","","","","","","","","","","","","","","NaN",""
"","S1","","html-keyboard-response","79","211414","0.0-1.0-101.0","0","0","71531","","null","","","null","11","","","","","","","","","","","","","","","",""
"","ISI","","html-keyboard-response","80","212417","0.0-1.0-102.0","0","0","71531","","null","","","null","11","NaN","","","","","","","","","","","","","","",""
"","S2","","html-keyboard-response","81","212671","0.0-1.0-103.0","0","0","71531","","null","","","null","11","","NaN","","","","","","","","","","","","","",""
"","response","","html-keyboard-response","82","213335","0.0-1.0-104.0-0.0","0","0","71531","","662","","","68","11","","","1","11","training","adjacent","DC","4","3","R.jpg","L.jpg","0","0","1","",""
"","feedback","","html-keyboard-response","83","214339","0.0-1.0-105.0-0.0","0","0","71531","","null","","","null","11","","","","","","","","","","","","","","","",""
"","ITI","","html-keyboard-response","84","215341","0.0-1.0-108.0","0","0","71531","","null","","","null","11","","","","","","","","","","","","","","","NaN",""
"","S1","","html-keyboard-response","85","215595","0.0-1.0-110.0","0","0","71531","","null","","","null","12","","","","","","","","","","","","","","","",""
"","ISI","","html-keyboard-response","86","216598","0.0-1.0-111.0","0","0","71531","","null","","","null","12","NaN","","","","","","","","","","","","","","",""
"","S2","","html-keyboard-response","87","216851","0.0-1.0-112.0","0","0","71531","","null","","","null","12","","NaN","","","","","","","","","","","","","",""
"","response","","html-keyboard-response","88","217290","0.0-1.0-113.0-0.0","0","0","71531","","437","","","75","12","","","1","12","training","adjacent","BC","2","3","M.jpg","L.jpg","1","1","1","",""
"","feedback","","html-keyboard-response","89","218293","0.0-1.0-114.0-0.0","0","0","71531","","null","","","null","12","","","","","","","","","","","","","","","",""
"","ITI","","html-keyboard-response","90","219295","0.0-1.0-117.0","0","0","71531","","null","","","null","12","","","","","","","","","","","","","","","NaN",""
"","S1","","html-keyboard-response","91","219548","0.0-1.0-119.0","0","0","71531","","null","","","null","13","","","","","","","","","","","","","","","",""
"","ISI","","html-keyboard-response","92","220550","0.0-1.0-120.0","0","0","71531","","null","","","null","13","NaN","","","","","","","","","","","","","","",""
"","S2","","html-keyboard-response","93","220803","0.0-1.0-121.0","0","0","71531","","null","","","null","13","","NaN","","","","","","","","","","","","","",""
"","response","","html-keyboard-response","94","221425","0.0-1.0-122.0-0.0","0","0","71531","","621","","","75","13","","","1","13","training","adjacent","CD","3","4","L.jpg","R.jpg","1","1","1","",""
"","feedback","","html-keyboard-response","95","222429","0.0-1.0-123.0-0.0","0","0","71531","","null","","","null","13","","","","","","","","","","","","","","","",""
"","ITI","","html-keyboard-response","96","223432","0.0-1.0-126.0","0","0","71531","","null","","","null","13","","","","","","","","","","","","","","","NaN",""
"","S1","","html-keyboard-response","97","223686","0.0-1.0-128.0","0","0","71531","","null","","","null","14","","","","","","","","","","","","","","","",""
"","ISI","","html-keyboard-response","98","224689","0.0-1.0-129.0","0","0","71531","","null","","","null","14","NaN","","","","","","","","","","","","","","",""
"","S2","","html-keyboard-response","99","224942","0.0-1.0-130.0","0","0","71531","","null","","","null","14","","NaN","","","","","","","","","","","","","",""
"","response","","html-keyboard-response","100","225446","0.0-1.0-131.0-0.0","0","0","71531","","503","","","75","14","","","1","14","training","adjacent","DC","4","3","R.jpg","L.jpg","1","0","0","",""
"","feedback","","html-keyboard-response","101","226450","0.0-1.0-132.0-0.0","0","0","71531","","null","","","null","14","","","","","","","","","","","","","","","",""
"","time_out","","html-keyboard-response","102","228454","0.0-1.0-134.0-0.0","0","0","71531","","null","","","null","14","","","","","","","","","","","","","","","",""
"","ITI","","html-keyboard-response","103","229457","0.0-1.0-135.0","0","0","71531","","null","","","null","14","","","","","","","","","","","","","","","NaN",""
"","S1","","html-keyboard-response","104","229710","0.0-1.0-137.0","0","0","71531","","null","","","null","15","","","","","","","","","","","","","","","",""
"","ISI","","html-keyboard-response","105","230712","0.0-1.0-138.0","0","0","71531","","null","","","null","15","NaN","","","","","","","","","","","","","","",""
"","S2","","html-keyboard-response","106","230964","0.0-1.0-139.0","0","0","71531","","null","","","null","15","","NaN","","","","","","","","","","","","","",""
"","response","","html-keyboard-response","107","231722","0.0-1.0-140.0-0.0","0","0","71531","","756","","","75","15","","","1","15","training","adjacent","FE","6","5","O.jpg","P.jpg","1","0","0","",""
"","feedback","","html-keyboard-response","108","232726","0.0-1.0-141.0-0.0","0","0","71531","","null","","","null","15","","","","","","","","","","","","","","","",""
"","time_out","","html-keyboard-response","109","234728","0.0-1.0-143.0-0.0","0","0","71531","","null","","","null","15","","","","","","","","","","","","","","","",""
"","ITI","","html-keyboard-response","110","235731","0.0-1.0-144.0","0","0","71531","","null","","","null","15","","","","","","","","","","","","","","","NaN",""
"","S1","","html-keyboard-response","111","235984","0.0-1.0-146.0","0","0","71531","","null","","","null","16","","","","","","","","","","","","","","","",""
"","ISI","","html-keyboard-response","112","236987","0.0-1.0-147.0","0","0","71531","","null","","","null","16","NaN","","","","","","","","","","","","","","",""
"","S2","","html-keyboard-response","113","237239","0.0-1.0-148.0","0","0","71531","","null","","","null","16","","NaN","","","","","","","","","","","","","",""
"","response","","html-keyboard-response","114","237568","0.0-1.0-149.0-0.0","0","0","71531","","326","","","75","16","","","1","16","training","adjacent","CD","3","4","L.jpg","R.jpg","1","1","1","",""
"","feedback","","html-keyboard-response","115","238572","0.0-1.0-150.0-0.0","0","0","71531","","null","","","null","16","","","","","","","","","","","","","","","",""
"","ITI","","html-keyboard-response","116","239575","0.0-1.0-153.0","0","0","71531","","null","","","null","16","","","","","","","","","","","","","","","NaN",""
"","S1","","html-keyboard-response","117","239828","0.0-1.0-155.0","0","0","71531","","null","","","null","17","","","","","","","","","","","","","","","",""
"","ISI","","html-keyboard-response","118","240830","0.0-1.0-156.0","0","0","71531","","null","","","null","17","NaN","","","","","","","","","","","","","","",""
"","S2","","html-keyboard-response","119","241084","0.0-1.0-157.0","0","0","71531","","null","","","null","17","","NaN","","","","","","","","","","","","","",""
"","response","","html-keyboard-response","120","241684","0.0-1.0-158.0-0.0","0","0","71531","","598","","","75","17","","","1","17","training","adjacent","BA","2","1","M.jpg","N.jpg","1","0","0","",""
"","feedback","","html-keyboard-response","121","242686","0.0-1.0-159.0-0.0","0","0","71531","","null","","","null","17","","","","","","","","","","","","","","","",""
"","time_out","","html-keyboard-response","122","244690","0.0-1.0-161.0-0.0","0","0","71531","","null","","","null","17","","","","","","","","","","","","","","","",""
"","ITI","","html-keyboard-response","123","245693","0.0-1.0-162.0","0","0","71531","","null","","","null","17","","","","","","","","","","","","","","","NaN",""
"","S1","","html-keyboard-response","124","245947","0.0-1.0-164.0","0","0","71531","","null","","","null","18","","","","","","","","","","","","","","","",""
"","ISI","","html-keyboard-response","125","246950","0.0-1.0-165.0","0","0","71531","","null","","","null","18","NaN","","","","","","","","","","","","","","",""
"","S2","","html-keyboard-response","126","247203","0.0-1.0-166.0","0","0","71531","","null","","","null","18","","NaN","","","","","","","","","","","","","",""
"","response","","html-keyboard-response","127","247364","0.0-1.0-167.0-0.0","0","0","71531","","158","","","68","18","","","1","18","training","adjacent","DE","4","5","R.jpg","P.jpg","0","1","0","",""
"","feedback","","html-keyboard-response","128","248369","0.0-1.0-168.0-0.0","0","0","71531","","null","","","null","18","","","","","","","","","","","","","","","",""
"","time_out","","html-keyboard-response","129","250372","0.0-1.0-170.0-0.0","0","0","71531","","null","","","null","18","","","","","","","","","","","","","","","",""
"","ITI","","html-keyboard-response","130","251375","0.0-1.0-171.0","0","0","71531","","null","","","null","18","","","","","","","","","","","","","","","NaN",""
"","S1","","html-keyboard-response","131","251628","0.0-1.0-173.0","0","0","71531","","null","","","null","19","","","","","","","","","","","","","","","",""
"","ISI","","html-keyboard-response","132","252630","0.0-1.0-174.0","0","0","71531","","null","","","null","19","NaN","","","","","","","","","","","","","","",""
"","S2","","html-keyboard-response","133","252883","0.0-1.0-175.0","0","0","71531","","null","","","null","19","","NaN","","","","","","","","","","","","","",""
"","response","","html-keyboard-response","134","253206","0.0-1.0-176.0-0.0","0","0","71531","","320","","","75","19","","","1","19","training","adjacent","BC","2","3","M.jpg","L.jpg","1","1","1","",""
"","feedback","","html-keyboard-response","135","254208","0.0-1.0-177.0-0.0","0","0","71531","","null","","","null","19","","","","","","","","","","","","","","","",""
"","ITI","","html-keyboard-response","136","255210","0.0-1.0-180.0","0","0","71531","","null","","","null","19","","","","","","","","","","","","","","","NaN",""
"","S1","","html-keyboard-response","137","255463","0.0-1.0-182.0","0","0","71531","","null","","","null","20","","","","","","","","","","","","","","","",""
"","ISI","","html-keyboard-response","138","256465","0.0-1.0-183.0","0","0","71531","","null","","","null","20","NaN","","","","","","","","","","","","","","",""
"","S2","","html-keyboard-response","139","256718","0.0-1.0-184.0","0","0","71531","","null","","","null","20","","NaN","","","","","","","","","","","","","",""
"","response","","html-keyboard-response","140","257321","0.0-1.0-185.0-0.0","0","0","71531","","602","","","68","20","","","1","20","training","adjacent","CB","3","2","L.jpg","M.jpg","0","0","1","",""
"","feedback","","html-keyboard-response","141","258325","0.0-1.0-186.0-0.0","0","0","71531","","null","","","null","20","","","","","","","","","","","","","","","",""
"","ITI","","html-keyboard-response","142","259327","0.0-1.0-189.0","0","0","71531","","null","","","null","20","","","","","","","","","","","","","","","NaN",""
"","S1","","html-keyboard-response","143","259581","0.0-1.0-191.0","0","0","71531","","null","","","null","21","","","","","","","","","","","","","","","",""
"","ISI","","html-keyboard-response","144","260584","0.0-1.0-192.0","0","0","71531","","null","","","null","21","NaN","","","","","","","","","","","","","","",""
"","S2","","html-keyboard-response","145","260837","0.0-1.0-193.0","0","0","71531","","null","","","null","21","","NaN","","","","","","","","","","","","","",""
"","response","","html-keyboard-response","146","261948","0.0-1.0-194.0-0.0","0","0","71531","","1109","","","68","21","","","1","21","training","adjacent","CB","3","2","L.jpg","M.jpg","0","0","1","",""
"","feedback","","html-keyboard-response","147","262962","0.0-1.0-195.0-0.0","0","0","71531","","null","","","null","21","","","","","","","","","","","","","","","",""
"","ITI","","html-keyboard-response","148","263965","0.0-1.0-198.0","0","0","71531","","null","","","null","21","","","","","","","","","","","","","","","NaN",""
"","S1","","html-keyboard-response","149","264217","0.0-1.0-200.0","0","0","71531","","null","","","null","22","","","","","","","","","","","","","","","",""
"","ISI","","html-keyboard-response","150","265220","0.0-1.0-201.0","0","0","71531","","null","","","null","22","NaN","","","","","","","","","","","","","","",""
"","S2","","html-keyboard-response","151","265476","0.0-1.0-202.0","0","0","71531","","null","","","null","22","","NaN","","","","","","","","","","","","","",""
"","response","","html-keyboard-response","152","266958","0.0-1.0-203.0-0.0","0","0","71531","","1479","","","75","22","","","1","22","training","adjacent","EF","5","6","P.jpg","O.jpg","1","1","1","",""
"","feedback","","html-keyboard-response","153","267960","0.0-1.0-204.0-0.0","0","0","71531","","null","","","null","22","","","","","","","","","","","","","","","",""
"","ITI","","html-keyboard-response","154","268963","0.0-1.0-207.0","0","0","71531","","null","","","null","22","","","","","","","","","","","","","","","NaN",""
"","S1","","html-keyboard-response","155","269216","0.0-1.0-209.0","0","0","71531","","null","","","null","23","","","","","","","","","","","","","","","",""
"","ISI","","html-keyboard-response","156","270219","0.0-1.0-210.0","0","0","71531","","null","","","null","23","NaN","","","","","","","","","","","","","","",""
"","S2","","html-keyboard-response","157","270473","0.0-1.0-211.0","0","0","71531","","null","","","null","23","","NaN","","","","","","","","","","","","","",""
"","response","","html-keyboard-response","158","270900","0.0-1.0-212.0-0.0","0","0","71531","","425","","","75","23","","","1","23","training","adjacent","BA","2","1","M.jpg","N.jpg","1","0","0","",""
"","feedback","","html-keyboard-response","159","271903","0.0-1.0-213.0-0.0","0","0","71531","","null","","","null","23","","","","","","","","","","","","","","","",""
"","time_out","","html-keyboard-response","160","273905","0.0-1.0-215.0-0.0","0","0","71531","","null","","","null","23","","","","","","","","","","","","","","","",""
"","ITI","","html-keyboard-response","161","274908","0.0-1.0-216.0","0","0","71531","","null","","","null","23","","","","","","","","","","","","","","","NaN",""
"","S1","","html-keyboard-response","162","275162","0.0-1.0-218.0","0","0","71531","","null","","","null","24","","","","","","","","","","","","","","","",""
"","ISI","","html-keyboard-response","163","276165","0.0-1.0-219.0","0","0","71531","","null","","","null","24","NaN","","","","","","","","","","","","","","",""
"","S2","","html-keyboard-response","164","276419","0.0-1.0-220.0","0","0","71531","","null","","","null","24","","NaN","","","","","","","","","","","","","",""
"","response","","html-keyboard-response","165","276949","0.0-1.0-221.0-0.0","0","0","71531","","528","","","68","24","","","1","24","training","adjacent","EF","5","6","P.jpg","O.jpg","0","1","0","",""
"","feedback","","html-keyboard-response","166","277953","0.0-1.0-222.0-0.0","0","0","71531","","null","","","null","24","","","","","","","","","","","","","","","",""
"","time_out","","html-keyboard-response","167","279957","0.0-1.0-224.0-0.0","0","0","71531","","null","","","null","24","","","","","","","","","","","","","","","",""
"","ITI","","html-keyboard-response","168","280959","0.0-1.0-225.0","0","0","71531","","null","","","null","24","","","","","","","","","","","","","","","NaN",""
"","S1","","html-keyboard-response","169","281212","0.0-1.0-227.0","0","0","71531","","null","","","null","25","","","","","","","","","","","","","","","",""
"","ISI","","html-keyboard-response","170","282215","0.0-1.0-228.0","0","0","71531","","null","","","null","25","NaN","","","","","","","","","","","","","","",""
"","S2","","html-keyboard-response","171","282468","0.0-1.0-229.0","0","0","71531","","null","","","null","25","","NaN","","","","","","","","","","","","","",""
"","response","","html-keyboard-response","172","282830","0.0-1.0-230.0-0.0","0","0","71531","","360","","","75","25","","","1","25","training","adjacent","ED","5","4","P.jpg","R.jpg","1","0","0","",""
"","feedback","","html-keyboard-response","173","283833","0.0-1.0-231.0-0.0","0","0","71531","","null","","","null","25","","","","","","","","","","","","","","","",""
"","time_out","","html-keyboard-response","174","285836","0.0-1.0-233.0-0.0","0","0","71531","","null","","","null","25","","","","","","","","","","","","","","","",""
"","ITI","","html-keyboard-response","175","286839","0.0-1.0-234.0","0","0","71531","","null","","","null","25","","","","","","","","","","","","","","","NaN",""
"","S1","","html-keyboard-response","176","287092","0.0-1.0-236.0","0","0","71531","","null","","","null","26","","","","","","","","","","","","","","","",""
"","ISI","","html-keyboard-response","177","288095","0.0-1.0-237.0","0","0","71531","","null","","","null","26","NaN","","","","","","","","","","","","","","",""
"","S2","","html-keyboard-response","178","288348","0.0-1.0-238.0","0","0","71531","","null","","","null","26","","NaN","","","","","","","","","","","","","",""
"","response","","html-keyboard-response","179","289136","0.0-1.0-239.0-0.0","0","0","71531","","785","","","75","26","","","1","26","training","adjacent","CB","3","2","L.jpg","M.jpg","1","0","0","",""
"","feedback","","html-keyboard-response","180","290139","0.0-1.0-240.0-0.0","0","0","71531","","null","","","null","26","","","","","","","","","","","","","","","",""
"","time_out","","html-keyboard-response","181","292142","0.0-1.0-242.0-0.0","0","0","71531","","null","","","null","26","","","","","","","","","","","","","","","",""
"","ITI","","html-keyboard-response","182","293148","0.0-1.0-243.0","0","0","71531","","null","","","null","26","","","","","","","","","","","","","","","NaN",""
"","S1","","html-keyboard-response","183","293401","0.0-1.0-245.0","0","0","71531","","null","","","null","27","","","","","","","","","","","","","","","",""
"","ISI","","html-keyboard-response","184","294414","0.0-1.0-246.0","0","0","71531","","null","","","null","27","NaN","","","","","","","","","","","","","","",""
"","S2","","html-keyboard-response","185","294667","0.0-1.0-247.0","0","0","71531","","null","","","null","27","","NaN","","","","","","","","","","","","","",""
"","response","","html-keyboard-response","186","294946","0.0-1.0-248.0-0.0","0","0","71531","","277","","","68","27","","","1","27","training","adjacent","BA","2","1","M.jpg","N.jpg","0","0","1","",""
"","feedback","","html-keyboard-response","187","295950","0.0-1.0-249.0-0.0","0","0","71531","","null","","","null","27","","","","","","","","","","","","","","","",""
"","ITI","","html-keyboard-response","188","296955","0.0-1.0-252.0","0","0","71531","","null","","","null","27","","","","","","","","","","","","","","","NaN",""
"","S1","","html-keyboard-response","189","297208","0.0-1.0-254.0","0","0","71531","","null","","","null","28","","","","","","","","","","","","","","","",""
"","ISI","","html-keyboard-response","190","298211","0.0-1.0-255.0","0","0","71531","","null","","","null","28","NaN","","","","","","","","","","","","","","",""
"","S2","","html-keyboard-response","191","298465","0.0-1.0-256.0","0","0","71531","","null","","","null","28","","NaN","","","","","","","","","","","","","",""
"","response","","html-keyboard-response","192","298813","0.0-1.0-257.0-0.0","0","0","71531","","347","","","68","28","","","1","28","training","adjacent","FE","6","5","O.jpg","P.jpg","0","0","1","",""
"","feedback","","html-keyboard-response","193","299817","0.0-1.0-258.0-0.0","0","0","71531","","null","","","null","28","","","","","","","","","","","","","","","",""
"","ITI","","html-keyboard-response","194","300820","0.0-1.0-261.0","0","0","71531","","null","","","null","28","","","","","","","","","","","","","","","NaN",""
"","S1","","html-keyboard-response","195","301074","0.0-1.0-263.0","0","0","71531","","null","","","null","29","","","","","","","","","","","","","","","",""
"","ISI","","html-keyboard-response","196","302078","0.0-1.0-264.0","0","0","71531","","null","","","null","29","NaN","","","","","","","","","","","","","","",""
"","S2","","html-keyboard-response","197","302331","0.0-1.0-265.0","0","0","71531","","null","","","null","29","","NaN","","","","","","","","","","","","","",""
"","response","","html-keyboard-response","198","302778","0.0-1.0-266.0-0.0","0","0","71531","","446","","","75","29","","","1","29","training","adjacent","DE","4","5","R.jpg","P.jpg","1","1","1","",""
"","feedback","","html-keyboard-response","199","303782","0.0-1.0-267.0-0.0","0","0","71531","","null","","","null","29","","","","","","","","","","","","","","","",""
"","ITI","","html-keyboard-response","200","304785","0.0-1.0-270.0","0","0","71531","","null","","","null","29","","","","","","","","","","","","","","","NaN",""
"","S1","","html-keyboard-response","201","305038","0.0-1.0-272.0","0","0","71531","","null","","","null","30","","","","","","","","","","","","","","","",""
"","ISI","","html-keyboard-response","202","306040","0.0-1.0-273.0","0","0","71531","","null","","","null","30","NaN","","","","","","","","","","","","","","",""
"","S2","","html-keyboard-response","203","306293","0.0-1.0-274.0","0","0","71531","","null","","","null","30","","NaN","","","","","","","","","","","","","",""
"","response","","html-keyboard-response","204","306963","0.0-1.0-275.0-0.0","0","0","71531","","667","","","75","30","","","1","30","training","adjacent","DC","4","3","R.jpg","L.jpg","1","0","0","",""
"","feedback","","html-keyboard-response","205","307967","0.0-1.0-276.0-0.0","0","0","71531","","null","","","null","30","","","","","","","","","","","","","","","",""
"","time_out","","html-keyboard-response","206","309970","0.0-1.0-278.0-0.0","0","0","71531","","null","","","null","30","","","","","","","","","","","","","","","",""
"","ITI","","html-keyboard-response","207","310972","0.0-1.0-279.0","0","0","71531","","null","","","null","30","","","","","","","","","","","","","","","NaN",""
"","S1","","html-keyboard-response","208","311225","0.0-1.0-281.0","0","0","71531","","null","","","null","31","","","","","","","","","","","","","","","",""
"","ISI","","html-keyboard-response","209","312227","0.0-1.0-282.0","0","0","71531","","null","","","null","31","NaN","","","","","","","","","","","","","","",""
"","S2","","html-keyboard-response","210","312480","0.0-1.0-283.0","0","0","71531","","null","","","null","31","","NaN","","","","","","","","","","","","","",""
"","response","","html-keyboard-response","211","313516","0.0-1.0-284.0-0.0","0","0","71531","","1034","","","75","31","","","1","31","training","adjacent","FG","6","7","O.jpg","Q.jpg","1","1","1","",""
"","feedback","","html-keyboard-response","212","314519","0.0-1.0-285.0-0.0","0","0","71531","","null","","","null","31","","","","","","","","","","","","","","","",""
"","ITI","","html-keyboard-response","213","315523","0.0-1.0-288.0","0","0","71531","","null","","","null","31","","","","","","","","","","","","","","","NaN",""
"","S1","","html-keyboard-response","214","315776","0.0-1.0-290.0","0","0","71531","","null","","","null","32","","","","","","","","","","","","","","","",""
"","ISI","","html-keyboard-response","215","316779","0.0-1.0-291.0","0","0","71531","","null","","","null","32","NaN","","","","","","","","","","","","","","",""
"","S2","","html-keyboard-response","216","317031","0.0-1.0-292.0","0","0","71531","","null","","","null","32","","NaN","","","","","","","","","","","","","",""
"","response","","html-keyboard-response","217","317442","0.0-1.0-293.0-0.0","0","0","71531","","410","","","68","32","","","1","32","training","adjacent","FE","6","5","O.jpg","P.jpg","0","0","1","",""
"","feedback","","html-keyboard-response","218","318446","0.0-1.0-294.0-0.0","0","0","71531","","null","","","null","32","","","","","","","","","","","","","","","",""
"","ITI","","html-keyboard-response","219","319450","0.0-1.0-297.0","0","0","71531","","null","","","null","32","","","","","","","","","","","","","","","NaN",""
"","S1","","html-keyboard-response","220","319703","0.0-1.0-299.0","0","0","71531","","null","","","null","33","","","","","","","","","","","","","","","",""
"","ISI","","html-keyboard-response","221","320705","0.0-1.0-300.0","0","0","71531","","null","","","null","33","NaN","","","","","","","","","","","","","","",""
"","S2","","html-keyboard-response","222","320962","0.0-1.0-301.0","0","0","71531","","null","","","null","33","","NaN","","","","","","","","","","","","","",""
"","response","","html-keyboard-response","223","321392","0.0-1.0-302.0-0.0","0","0","71531","","429","","","75","33","","","1","33","training","adjacent","ED","5","4","P.jpg","R.jpg","1","0","0","",""
"","feedback","","html-keyboard-response","224","322396","0.0-1.0-303.0-0.0","0","0","71531","","null","","","null","33","","","","","","","","","","","","","","","",""
"","time_out","","html-keyboard-response","225","324400","0.0-1.0-305.0-0.0","0","0","71531","","null","","","null","33","","","","","","","","","","","","","","","",""
"","ITI","","html-keyboard-response","226","325402","0.0-1.0-306.0","0","0","71531","","null","","","null","33","","","","","","","","","","","","","","","NaN",""
"","S1","","html-keyboard-response","227","325655","0.0-1.0-308.0","0","0","71531","","null","","","null","34","","","","","","","","","","","","","","","",""
"","ISI","","html-keyboard-response","228","326658","0.0-1.0-309.0","0","0","71531","","null","","","null","34","NaN","","","","","","","","","","","","","","",""
"","S2","","html-keyboard-response","229","326912","0.0-1.0-310.0","0","0","71531","","null","","","null","34","","NaN","","","","","","","","","","","","","",""
"","response","","html-keyboard-response","230","327520","0.0-1.0-311.0-0.0","0","0","71531","","606","","","75","34","","","1","34","training","adjacent","AB","1","2","N.jpg","M.jpg","1","1","1","",""
"","feedback","","html-keyboard-response","231","328523","0.0-1.0-312.0-0.0","0","0","71531","","null","","","null","34","","","","","","","","","","","","","","","",""
"","ITI","","html-keyboard-response","232","329527","0.0-1.0-315.0","0","0","71531","","null","","","null","34","","","","","","","","","","","","","","","NaN",""
"","S1","","html-keyboard-response","233","329780","0.0-1.0-317.0","0","0","71531","","null","","","null","35","","","","","","","","","","","","","","","",""
"","ISI","","html-keyboard-response","234","330783","0.0-1.0-318.0","0","0","71531","","null","","","null","35","NaN","","","","","","","","","","","","","","",""
"","S2","","html-keyboard-response","235","331037","0.0-1.0-319.0","0","0","71531","","null","","","null","35","","NaN","","","","","","","","","","","","","",""
"","response","","html-keyboard-response","236","331831","0.0-1.0-320.0-0.0","0","0","71531","","792","","","75","35","","","1","35","training","adjacent","BC","2","3","M.jpg","L.jpg","1","1","1","",""
"","feedback","","html-keyboard-response","237","332835","0.0-1.0-321.0-0.0","0","0","71531","","null","","","null","35","","","","","","","","","","","","","","","",""
"","ITI","","html-keyboard-response","238","333838","0.0-1.0-324.0","0","0","71531","","null","","","null","35","","","","","","","","","","","","","","","NaN",""
"","S1","","html-keyboard-response","239","334091","0.0-1.0-326.0","0","0","71531","","null","","","null","36","","","","","","","","","","","","","","","",""
"","ISI","","html-keyboard-response","240","335094","0.0-1.0-327.0","0","0","71531","","null","","","null","36","NaN","","","","","","","","","","","","","","",""
"","S2","","html-keyboard-response","241","335348","0.0-1.0-328.0","0","0","71531","","null","","","null","36","","NaN","","","","","","","","","","","","","",""
"","response","","html-keyboard-response","242","335954","0.0-1.0-329.0-0.0","0","0","71531","","605","","","68","36","","","1","36","training","adjacent","AB","1","2","N.jpg","M.jpg","0","1","0","",""
"","feedback","","html-keyboard-response","243","336958","0.0-1.0-330.0-0.0","0","0","71531","","null","","","null","36","","","","","","","","","","","","","","","",""
"","time_out","","html-keyboard-response","244","338961","0.0-1.0-332.0-0.0","0","0","71531","","null","","","null","36","","","","","","","","","","","","","","","",""
"","ITI","","html-keyboard-response","245","339964","0.0-1.0-333.0","0","0","71531","","null","","","null","36","","","","","","","","","","","","","","","NaN",""
"","S1","","html-keyboard-response","246","340218","0.0-1.0-335.0","0","0","71531","","null","","","null","37","","","","","","","","","","","","","","","",""
"","ISI","","html-keyboard-response","247","341221","0.0-1.0-336.0","0","0","71531","","null","","","null","37","NaN","","","","","","","","","","","","","","",""
"","S2","","html-keyboard-response","248","341474","0.0-1.0-337.0","0","0","71531","","null","","","null","37","","NaN","","","","","","","","","","","","","",""
"","response","","html-keyboard-response","249","342443","0.0-1.0-338.0-0.0","0","0","71531","","968","","","68","37","","","1","37","training","adjacent","DE","4","5","R.jpg","P.jpg","0","1","0","",""
"","feedback","","html-keyboard-response","250","343447","0.0-1.0-339.0-0.0","0","0","71531","","null","","","null","37","","","","","","","","","","","","","","","",""
"","time_out","","html-keyboard-response","251","345451","0.0-1.0-341.0-0.0","0","0","71531","","null","","","null","37","","","","","","","","","","","","","","","",""
"","ITI","","html-keyboard-response","252","346454","0.0-1.0-342.0","0","0","71531","","null","","","null","37","","","","","","","","","","","","","","","NaN",""
"","S1","","html-keyboard-response","253","346708","0.0-1.0-344.0","0","0","71531","","null","","","null","38","","","","","","","","","","","","","","","",""
"","ISI","","html-keyboard-response","254","347726","0.0-1.0-345.0","0","0","71531","","null","","","null","38","NaN","","","","","","","","","","","","","","",""
"","S2","","html-keyboard-response","255","347980","0.0-1.0-346.0","0","0","71531","","null","","","null","38","","NaN","","","","","","","","","","","","","",""
"","response","","html-keyboard-response","256","348193","0.0-1.0-347.0-0.0","0","0","71531","","211","","","75","38","","","1","38","training","adjacent","BC","2","3","M.jpg","L.jpg","1","1","1","",""
"","feedback","","html-keyboard-response","257","349196","0.0-1.0-348.0-0.0","0","0","71531","","null","","","null","38","","","","","","","","","","","","","","","",""
"","ITI","","html-keyboard-response","258","350200","0.0-1.0-351.0","0","0","71531","","null","","","null","38","","","","","","","","","","","","","","","NaN",""
"","S1","","html-keyboard-response","259","350453","0.0-1.0-353.0","0","0","71531","","null","","","null","39","","","","","","","","","","","","","","","",""
"","ISI","","html-keyboard-response","260","351457","0.0-1.0-354.0","0","0","71531","","null","","","null","39","NaN","","","","","","","","","","","","","","",""
"","S2","","html-keyboard-response","261","351709","0.0-1.0-355.0","0","0","71531","","null","","","null","39","","NaN","","","","","","","","","","","","","",""
"","response","","html-keyboard-response","262","352806","0.0-1.0-356.0-0.0","0","0","71531","","1094","","","75","39","","","1","39","training","adjacent","EF","5","6","P.jpg","O.jpg","1","1","1","",""
"","feedback","","html-keyboard-response","263","353810","0.0-1.0-357.0-0.0","0","0","71531","","null","","","null","39","","","","","","","","","","","","","","","",""
"","ITI","","html-keyboard-response","264","354813","0.0-1.0-360.0","0","0","71531","","null","","","null","39","","","","","","","","","","","","","","","NaN",""
"","S1","","html-keyboard-response","265","355066","0.0-1.0-362.0","0","0","71531","","null","","","null","40","","","","","","","","","","","","","","","",""
"","ISI","","html-keyboard-response","266","356070","0.0-1.0-363.0","0","0","71531","","null","","","null","40","NaN","","","","","","","","","","","","","","",""
"","S2","","html-keyboard-response","267","356324","0.0-1.0-364.0","0","0","71531","","null","","","null","40","","NaN","","","","","","","","","","","","","",""
"","response","","html-keyboard-response","268","356882","0.0-1.0-365.0-0.0","0","0","71531","","556","","","68","40","","","1","40","training","adjacent","DC","4","3","R.jpg","L.jpg","0","0","1","",""
"","feedback","","html-keyboard-response","269","357885","0.0-1.0-366.0-0.0","0","0","71531","","null","","","null","40","","","","","","","","","","","","","","","",""
"","ITI","","html-keyboard-response","270","358895","0.0-1.0-369.0","0","0","71531","","null","","","null","40","","","","","","","","","","","","","","","NaN",""
"","S1","","html-keyboard-response","271","359149","0.0-1.0-371.0","0","0","71531","","null","","","null","41","","","","","","","","","","","","","","","",""
"","ISI","","html-keyboard-response","272","360151","0.0-1.0-372.0","0","0","71531","","null","","","null","41","NaN","","","","","","","","","","","","","","",""
"","S2","","html-keyboard-response","273","360404","0.0-1.0-373.0","0","0","71531","","null","","","null","41","","NaN","","","","","","","","","","","","","",""
"","response","","html-keyboard-response","274","360875","0.0-1.0-374.0-0.0","0","0","71531","","469","","","75","41","","","1","41","training","adjacent","FG","6","7","O.jpg","Q.jpg","1","1","1","",""
"","feedback","","html-keyboard-response","275","361878","0.0-1.0-375.0-0.0","0","0","71531","","null","","","null","41","","","","","","","","","","","","","","","",""
"","ITI","","html-keyboard-response","276","362882","0.0-1.0-378.0","0","0","71531","","null","","","null","41","","","","","","","","","","","","","","","NaN",""
"","S1","","html-keyboard-response","277","363134","0.0-1.0-380.0","0","0","71531","","null","","","null","42","","","","","","","","","","","","","","","",""
"","ISI","","html-keyboard-response","278","364137","0.0-1.0-381.0","0","0","71531","","null","","","null","42","NaN","","","","","","","","","","","","","","",""
"","S2","","html-keyboard-response","279","364390","0.0-1.0-382.0","0","0","71531","","null","","","null","42","","NaN","","","","","","","","","","","","","",""
"","response","","html-keyboard-response","280","365027","0.0-1.0-383.0-0.0","0","0","71531","","636","","","68","42","","","1","42","training","adjacent","DE","4","5","R.jpg","P.jpg","0","1","0","",""
"","feedback","","html-keyboard-response","281","366031","0.0-1.0-384.0-0.0","0","0","71531","","null","","","null","42","","","","","","","","","","","","","","","",""
"","time_out","","html-keyboard-response","282","368035","0.0-1.0-386.0-0.0","0","0","71531","","null","","","null","42","","","","","","","","","","","","","","","",""
"","ITI","","html-keyboard-response","283","369038","0.0-1.0-387.0","0","0","71531","","null","","","null","42","","","","","","","","","","","","","","","NaN",""
"","S1","","html-keyboard-response","284","369291","0.0-1.0-389.0","0","0","71531","","null","","","null","43","","","","","","","","","","","","","","","",""
"","ISI","","html-keyboard-response","285","370294","0.0-1.0-390.0","0","0","71531","","null","","","null","43","NaN","","","","","","","","","","","","","","",""
"","S2","","html-keyboard-response","286","370547","0.0-1.0-391.0","0","0","71531","","null","","","null","43","","NaN","","","","","","","","","","","","","",""
"","response","","html-keyboard-response","287","371092","0.0-1.0-392.0-0.0","0","0","71531","","544","","","68","43","","","1","43","training","adjacent","AB","1","2","N.jpg","M.jpg","0","1","0","",""
"","feedback","","html-keyboard-response","288","372096","0.0-1.0-393.0-0.0","0","0","71531","","null","","","null","43","","","","","","","","","","","","","","","",""
"","time_out","","html-keyboard-response","289","374098","0.0-1.0-395.0-0.0","0","0","71531","","null","","","null","43","","","","","","","","","","","","","","","",""
"","ITI","","html-keyboard-response","290","375101","0.0-1.0-396.0","0","0","71531","","null","","","null","43","","","","","","","","","","","","","","","NaN",""
"","S1","","html-keyboard-response","291","375354","0.0-1.0-398.0","0","0","71531","","null","","","null","44","","","","","","","","","","","","","","","",""
"","ISI","","html-keyboard-response","292","376358","0.0-1.0-399.0","0","0","71531","","null","","","null","44","NaN","","","","","","","","","","","","","","",""
"","S2","","html-keyboard-response","293","376611","0.0-1.0-400.0","0","0","71531","","null","","","null","44","","NaN","","","","","","","","","","","","","",""
"","response","","html-keyboard-response","294","377094","0.0-1.0-401.0-0.0","0","0","71531","","480","","","68","44","","","1","44","training","adjacent","CD","3","4","L.jpg","R.jpg","0","1","0","",""
"","feedback","","html-keyboard-response","295","378098","0.0-1.0-402.0-0.0","0","0","71531","","null","","","null","44","","","","","","","","","","","","","","","",""
"","time_out","","html-keyboard-response","296","380101","0.0-1.0-404.0-0.0","0","0","71531","","null","","","null","44","","","","","","","","","","","","","","","",""
"","ITI","","html-keyboard-response","297","381103","0.0-1.0-405.0","0","0","71531","","null","","","null","44","","","","","","","","","","","","","","","NaN",""
"","S1","","html-keyboard-response","298","381357","0.0-1.0-407.0","0","0","71531","","null","","","null","45","","","","","","","","","","","","","","","",""
"","ISI","","html-keyboard-response","299","382361","0.0-1.0-408.0","0","0","71531","","null","","","null","45","NaN","","","","","","","","","","","","","","",""
"","S2","","html-keyboard-response","300","382613","0.0-1.0-409.0","0","0","71531","","null","","","null","45","","NaN","","","","","","","","","","","","","",""
"","response","","html-keyboard-response","301","383108","0.0-1.0-410.0-0.0","0","0","71531","","494","","","75","45","","","1","45","training","adjacent","GF","7","6","Q.jpg","O.jpg","1","0","0","",""
"","feedback","","html-keyboard-response","302","384112","0.0-1.0-411.0-0.0","0","0","71531","","null","","","null","45","","","","","","","","","","","","","","","",""
"","time_out","","html-keyboard-response","303","386113","0.0-1.0-413.0-0.0","0","0","71531","","null","","","null","45","","","","","","","","","","","","","","","",""
"","ITI","","html-keyboard-response","304","387116","0.0-1.0-414.0","0","0","71531","","null","","","null","45","","","","","","","","","","","","","","","NaN",""
"","S1","","html-keyboard-response","305","387369","0.0-1.0-416.0","0","0","71531","","null","","","null","46","","","","","","","","","","","","","","","",""
"","ISI","","html-keyboard-response","306","388373","0.0-1.0-417.0","0","0","71531","","null","","","null","46","NaN","","","","","","","","","","","","","","",""
"","S2","","html-keyboard-response","307","388626","0.0-1.0-418.0","0","0","71531","","null","","","null","46","","NaN","","","","","","","","","","","","","",""
"","response","","html-keyboard-response","308","389056","0.0-1.0-419.0-0.0","0","0","71531","","429","","","68","46","","","1","46","training","adjacent","ED","5","4","P.jpg","R.jpg","0","0","1","",""
"","feedback","","html-keyboard-response","309","390061","0.0-1.0-420.0-0.0","0","0","71531","","null","","","null","46","","","","","","","","","","","","","","","",""
"","ITI","","html-keyboard-response","310","391064","0.0-1.0-423.0","0","0","71531","","null","","","null","46","","","","","","","","","","","","","","","NaN",""
"","S1","","html-keyboard-response","311","391318","0.0-1.0-425.0","0","0","71531","","null","","","null","47","","","","","","","","","","","","","","","",""
"","ISI","","html-keyboard-response","312","392320","0.0-1.0-426.0","0","0","71531","","null","","","null","47","NaN","","","","","","","","","","","","","","",""
"","S2","","html-keyboard-response","313","392573","0.0-1.0-427.0","0","0","71531","","null","","","null","47","","NaN","","","","","","","","","","","","","",""
"","response","","html-keyboard-response","314","392688","0.0-1.0-428.0-0.0","0","0","71531","","112","","","75","47","","","1","47","training","adjacent","CB","3","2","L.jpg","M.jpg","1","0","0","",""
"","feedback","","html-keyboard-response","315","393691","0.0-1.0-429.0-0.0","0","0","71531","","null","","","null","47","","","","","","","","","","","","","","","",""
"","time_out","","html-keyboard-response","316","395694","0.0-1.0-431.0-0.0","0","0","71531","","null","","","null","47","","","","","","","","","","","","","","","",""
"","ITI","","html-keyboard-response","317","396697","0.0-1.0-432.0","0","0","71531","","null","","","null","47","","","","","","","","","","","","","","","NaN",""
"","block_over","","html-keyboard-response","318","417282","0.0-1.0-433.0-0.0","0","0","71531","","20583","","","32","47","","","","","","","","","","","","","","","",""
"","S1","","html-keyboard-response","319","417535","0.0-1.0-434.0","0","0","71531","","null","","","null","48","","","","","","","","","","","","","","","",""
"","ISI","","html-keyboard-response","320","418538","0.0-1.0-435.0","0","0","71531","","null","","","null","48","NaN","","","","","","","","","","","","","","",""
"","S2","","html-keyboard-response","321","418790","0.0-1.0-436.0","0","0","71531","","null","","","null","48","","NaN","","","","","","","","","","","","","",""
"","response","","html-keyboard-response","322","419537","0.0-1.0-437.0-0.0","0","0","71531","","744","","","68","48","","","2","48","training","adjacent","EF","5","6","P.jpg","O.jpg","0","1","0","",""
"","feedback","","html-keyboard-response","323","420541","0.0-1.0-438.0-0.0","0","0","71531","","null","","","null","48","","","","","","","","","","","","","","","",""
"","time_out","","html-keyboard-response","324","422544","0.0-1.0-440.0-0.0","0","0","71531","","null","","","null","48","","","","","","","","","","","","","","","",""
"","ITI","","html-keyboard-response","325","423553","0.0-1.0-441.0","0","0","71531","","null","","","null","48","","","","","","","","","","","","","","","NaN",""
"","S1","","html-keyboard-response","326","423806","0.0-1.0-443.0","0","0","71531","","null","","","null","49","","","","","","","","","","","","","","","",""
"","ISI","","html-keyboard-response","327","424809","0.0-1.0-444.0","0","0","71531","","null","","","null","49","NaN","","","","","","","","","","","","","","",""
"","S2","","html-keyboard-response","328","425063","0.0-1.0-445.0","0","0","71531","","null","","","null","49","","NaN","","","","","","","","","","","","","",""
"","response","","html-keyboard-response","329","425518","0.0-1.0-446.0-0.0","0","0","71531","","454","","","75","49","","","2","49","training","adjacent","BC","2","3","M.jpg","L.jpg","1","1","1","",""
"","feedback","","html-keyboard-response","330","426521","0.0-1.0-447.0-0.0","0","0","71531","","null","","","null","49","","","","","","","","","","","","","","","",""
"","ITI","","html-keyboard-response","331","427524","0.0-1.0-450.0","0","0","71531","","null","","","null","49","","","","","","","","","","","","","","","NaN",""
"","S1","","html-keyboard-response","332","427778","0.0-1.0-452.0","0","0","71531","","null","","","null","50","","","","","","","","","","","","","","","",""
"","ISI","","html-keyboard-response","333","428780","0.0-1.0-453.0","0","0","71531","","null","","","null","50","NaN","","","","","","","","","","","","","","",""
"","S2","","html-keyboard-response","334","429034","0.0-1.0-454.0","0","0","71531","","null","","","null","50","","NaN","","","","","","","","","","","","","",""
"","response","","html-keyboard-response","335","429597","0.0-1.0-455.0-0.0","0","0","71531","","561","","","68","50","","","2","50","training","adjacent","CD","3","4","L.jpg","R.jpg","0","1","0","",""
"","feedback","","html-keyboard-response","336","430602","0.0-1.0-456.0-0.0","0","0","71531","","null","","","null","50","","","","","","","","","","","","","","","",""
"","time_out","","html-keyboard-response","337","432605","0.0-1.0-458.0-0.0","0","0","71531","","null","","","null","50","","","","","","","","","","","","","","","",""
"","ITI","","html-keyboard-response","338","433609","0.0-1.0-459.0","0","0","71531","","null","","","null","50","","","","","","","","","","","","","","","NaN",""
"","S1","","html-keyboard-response","339","433862","0.0-1.0-461.0","0","0","71531","","null","","","null","51","","","","","","","","","","","","","","","",""
"","ISI","","html-keyboard-response","340","434866","0.0-1.0-462.0","0","0","71531","","null","","","null","51","NaN","","","","","","","","","","","","","","",""
"","S2","","html-keyboard-response","341","435119","0.0-1.0-463.0","0","0","71531","","null","","","null","51","","NaN","","","","","","","","","","","","","",""
"","response","","html-keyboard-response","342","435401","0.0-1.0-464.0-0.0","0","0","71531","","281","","","75","51","","","2","51","training","adjacent","BA","2","1","M.jpg","N.jpg","1","0","0","",""
"","feedback","","html-keyboard-response","343","436404","0.0-1.0-465.0-0.0","0","0","71531","","null","","","null","51","","","","","","","","","","","","","","","",""
"","time_out","","html-keyboard-response","344","438408","0.0-1.0-467.0-0.0","0","0","71531","","null","","","null","51","","","","","","","","","","","","","","","",""
"","ITI","","html-keyboard-response","345","439411","0.0-1.0-468.0","0","0","71531","","null","","","null","51","","","","","","","","","","","","","","","NaN",""
"","S1","","html-keyboard-response","346","439663","0.0-1.0-470.0","0","0","71531","","null","","","null","52","","","","","","","","","","","","","","","",""
"","ISI","","html-keyboard-response","347","440665","0.0-1.0-471.0","0","0","71531","","null","","","null","52","NaN","","","","","","","","","","","","","","",""
"","S2","","html-keyboard-response","348","440918","0.0-1.0-472.0","0","0","71531","","null","","","null","52","","NaN","","","","","","","","","","","","","",""
"","response","","html-keyboard-response","349","441038","0.0-1.0-473.0-0.0","0","0","71531","","117","","","75","52","","","2","52","training","adjacent","CB","3","2","L.jpg","M.jpg","1","0","0","",""
"","feedback","","html-keyboard-response","350","442042","0.0-1.0-474.0-0.0","0","0","71531","","null","","","null","52","","","","","","","","","","","","","","","",""
"","time_out","","html-keyboard-response","351","444045","0.0-1.0-476.0-0.0","0","0","71531","","null","","","null","52","","","","","","","","","","","","","","","",""
"","ITI","","html-keyboard-response","352","445048","0.0-1.0-477.0","0","0","71531","","null","","","null","52","","","","","","","","","","","","","","","NaN",""
"","S1","","html-keyboard-response","353","445301","0.0-1.0-479.0","0","0","71531","","null","","","null","53","","","","","","","","","","","","","","","",""
"","ISI","","html-keyboard-response","354","446305","0.0-1.0-480.0","0","0","71531","","null","","","null","53","NaN","","","","","","","","","","","","","","",""
"","S2","","html-keyboard-response","355","446560","0.0-1.0-481.0","0","0","71531","","null","","","null","53","","NaN","","","","","","","","","","","","","",""
"","response","","html-keyboard-response","356","446853","0.0-1.0-482.0-0.0","0","0","71531","","291","","","75","53","","","2","53","training","adjacent","ED","5","4","P.jpg","R.jpg","1","0","0","",""
"","feedback","","html-keyboard-response","357","447858","0.0-1.0-483.0-0.0","0","0","71531","","null","","","null","53","","","","","","","","","","","","","","","",""
"","time_out","","html-keyboard-response","358","449874","0.0-1.0-485.0-0.0","0","0","71531","","null","","","null","53","","","","","","","","","","","","","","","",""
"","ITI","","html-keyboard-response","359","450877","0.0-1.0-486.0","0","0","71531","","null","","","null","53","","","","","","","","","","","","","","","NaN",""
"","S1","","html-keyboard-response","360","451131","0.0-1.0-488.0","0","0","71531","","null","","","null","54","","","","","","","","","","","","","","","",""
"","ISI","","html-keyboard-response","361","452135","0.0-1.0-489.0","0","0","71531","","null","","","null","54","NaN","","","","","","","","","","","","","","",""
"","S2","","html-keyboard-response","362","452399","0.0-1.0-490.0","0","0","71531","","null","","","null","54","","NaN","","","","","","","","","","","","","",""
"","response","","html-keyboard-response","363","453144","0.0-1.0-491.0-0.0","0","0","71531","","742","","","68","54","","","2","54","training","adjacent","DC","4","3","R.jpg","L.jpg","0","0","1","",""
"","feedback","","html-keyboard-response","364","454147","0.0-1.0-492.0-0.0","0","0","71531","","null","","","null","54","","","","","","","","","","","","","","","",""
"","ITI","","html-keyboard-response","365","455150","0.0-1.0-495.0","0","0","71531","","null","","","null","54","","","","","","","","","","","","","","","NaN",""
"","S1","","html-keyboard-response","366","455403","0.0-1.0-497.0","0","0","71531","","null","","","null","55","","","","","","","","","","","","","","","",""
"","ISI","","html-keyboard-response","367","456406","0.0-1.0-498.0","0","0","71531","","null","","","null","55","NaN","","","","","","","","","","","","","","",""
"","S2","","html-keyboard-response","368","456660","0.0-1.0-499.0","0","0","71531","","null","","","null","55","","NaN","","","","","","","","","","","","","",""
"","response","","html-keyboard-response","369","456772","0.0-1.0-500.0-0.0","0","0","71531","","111","","","75","55","","","2","55","training","adjacent","FE","6","5","O.jpg","P.jpg","1","0","0","",""
"","feedback","","html-keyboard-response","370","457776","0.0-1.0-501.0-0.0","0","0","71531","","null","","","null","55","","","","","","","","","","","","","","","",""
"","time_out","","html-keyboard-response","371","459779","0.0-1.0-503.0-0.0","0","0","71531","","null","","","null","55","","","","","","","","","","","","","","","",""
"","ITI","","html-keyboard-response","372","460782","0.0-1.0-504.0","0","0","71531","","null","","","null","55","","","","","","","","","","","","","","","NaN",""
"","S1","","html-keyboard-response","373","461035","0.0-1.0-506.0","0","0","71531","","null","","","null","56","","","","","","","","","","","","","","","",""
"","ISI","","html-keyboard-response","374","462038","0.0-1.0-507.0","0","0","71531","","null","","","null","56","NaN","","","","","","","","","","","","","","",""
"","S2","","html-keyboard-response","375","462292","0.0-1.0-508.0","0","0","71531","","null","","","null","56","","NaN","","","","","","","","","","","","","",""
"","response","","html-keyboard-response","376","462982","0.0-1.0-509.0-0.0","0","0","71531","","689","","","68","56","","","2","56","training","adjacent","BA","2","1","M.jpg","N.jpg","0","0","1","",""
"","feedback","","html-keyboard-response","377","463987","0.0-1.0-510.0-0.0","0","0","71531","","null","","","null","56","","","","","","","","","","","","","","","",""
"","ITI","","html-keyboard-response","378","464991","0.0-1.0-513.0","0","0","71531","","null","","","null","56","","","","","","","","","","","","","","","NaN",""
"","S1","","html-keyboard-response","379","465244","0.0-1.0-515.0","0","0","71531","","null","","","null","57","","","","","","","","","","","","","","","",""
"","ISI","","html-keyboard-response","380","466247","0.0-1.0-516.0","0","0","71531","","null","","","null","57","NaN","","","","","","","","","","","","","","",""
"","S2","","html-keyboard-response","381","466500","0.0-1.0-517.0","0","0","71531","","null","","","null","57","","NaN","","","","","","","","","","","","","",""
"","response","","html-keyboard-response","382","467612","0.0-1.0-518.0-0.0","0","0","71531","","1109","","","68","57","","","2","57","training","adjacent","CB","3","2","L.jpg","M.jpg","0","0","1","",""
"","feedback","","html-keyboard-response","383","468615","0.0-1.0-519.0-0.0","0","0","71531","","null","","","null","57","","","","","","","","","","","","","","","",""
"","ITI","","html-keyboard-response","384","469618","0.0-1.0-522.0","0","0","71531","","null","","","null","57","","","","","","","","","","","","","","","NaN",""
"","S1","","html-keyboard-response","385","469871","0.0-1.0-524.0","0","0","71531","","null","","","null","58","","","","","","","","","","","","","","","",""
"","ISI","","html-keyboard-response","386","470873","0.0-1.0-525.0","0","0","71531","","null","","","null","58","NaN","","","","","","","","","","","","","","",""
"","S2","","html-keyboard-response","387","471126","0.0-1.0-526.0","0","0","71531","","null","","","null","58","","NaN","","","","","","","","","","","","","",""
"","response","","html-keyboard-response","388","471731","0.0-1.0-527.0-0.0","0","0","71531","","603","","","75","58","","","2","58","training","adjacent","BC","2","3","M.jpg","L.jpg","1","1","1","",""
"","feedback","","html-keyboard-response","389","472735","0.0-1.0-528.0-0.0","0","0","71531","","null","","","null","58","","","","","","","","","","","","","","","",""
"","ITI","","html-keyboard-response","390","473738","0.0-1.0-531.0","0","0","71531","","null","","","null","58","","","","","","","","","","","","","","","NaN",""
"","S1","","html-keyboard-response","391","473991","0.0-1.0-533.0","0","0","71531","","null","","","null","59","","","","","","","","","","","","","","","",""
"","ISI","","html-keyboard-response","392","474994","0.0-1.0-534.0","0","0","71531","","null","","","null","59","NaN","","","","","","","","","","","","","","",""
"","S2","","html-keyboard-response","393","475248","0.0-1.0-535.0","0","0","71531","","null","","","null","59","","NaN","","","","","","","","","","","","","",""
"","response","","html-keyboard-response","394","475740","0.0-1.0-536.0-0.0","0","0","71531","","490","","","68","59","","","2","59","training","adjacent","DE","4","5","R.jpg","P.jpg","0","1","0","",""
"","feedback","","html-keyboard-response","395","476743","0.0-1.0-537.0-0.0","0","0","71531","","null","","","null","59","","","","","","","","","","","","","","","",""
"","time_out","","html-keyboard-response","396","478747","0.0-1.0-539.0-0.0","0","0","71531","","null","","","null","59","","","","","","","","","","","","","","","",""
"","ITI","","html-keyboard-response","397","479750","0.0-1.0-540.0","0","0","71531","","null","","","null","59","","","","","","","","","","","","","","","NaN",""
"","S1","","html-keyboard-response","398","480004","0.0-1.0-542.0","0","0","71531","","null","","","null","60","","","","","","","","","","","","","","","",""
"","ISI","","html-keyboard-response","399","481007","0.0-1.0-543.0","0","0","71531","","null","","","null","60","NaN","","","","","","","","","","","","","","",""
"","S2","","html-keyboard-response","400","481260","0.0-1.0-544.0","0","0","71531","","null","","","null","60","","NaN","","","","","","","","","","","","","",""
"","response","","html-keyboard-response","401","482374","0.0-1.0-545.0-0.0","0","0","71531","","1111","","","75","60","","","2","60","training","adjacent","EF","5","6","P.jpg","O.jpg","1","1","1","",""
"","feedback","","html-keyboard-response","402","483377","0.0-1.0-546.0-0.0","0","0","71531","","null","","","null","60","","","","","","","","","","","","","","","",""
"","ITI","","html-keyboard-response","403","484381","0.0-1.0-549.0","0","0","71531","","null","","","null","60","","","","","","","","","","","","","","","NaN",""
"","S1","","html-keyboard-response","404","484634","0.0-1.0-551.0","0","0","71531","","null","","","null","61","","","","","","","","","","","","","","","",""
"","ISI","","html-keyboard-response","405","485637","0.0-1.0-552.0","0","0","71531","","null","","","null","61","NaN","","","","","","","","","","","","","","",""
"","S2","","html-keyboard-response","406","485891","0.0-1.0-553.0","0","0","71531","","null","","","null","61","","NaN","","","","","","","","","","","","","",""
"","response","","html-keyboard-response","407","487320","0.0-1.0-554.0-0.0","0","0","71531","","1428","","","75","61","","","2","61","training","adjacent","GF","7","6","Q.jpg","O.jpg","1","0","0","",""
"","feedback","","html-keyboard-response","408","488323","0.0-1.0-555.0-0.0","0","0","71531","","null","","","null","61","","","","","","","","","","","","","","","",""
"","time_out","","html-keyboard-response","409","490327","0.0-1.0-557.0-0.0","0","0","71531","","null","","","null","61","","","","","","","","","","","","","","","",""
"","ITI","","html-keyboard-response","410","491330","0.0-1.0-558.0","0","0","71531","","null","","","null","61","","","","","","","","","","","","","","","NaN",""
"","S1","","html-keyboard-response","411","491583","0.0-1.0-560.0","0","0","71531","","null","","","null","62","","","","","","","","","","","","","","","",""
"","ISI","","html-keyboard-response","412","492585","0.0-1.0-561.0","0","0","71531","","null","","","null","62","NaN","","","","","","","","","","","","","","",""
"","S2","","html-keyboard-response","413","492839","0.0-1.0-562.0","0","0","71531","","null","","","null","62","","NaN","","","","","","","","","","","","","",""
"","response","","html-keyboard-response","414","493708","0.0-1.0-563.0-0.0","0","0","71531","","866","","","75","62","","","2","62","training","adjacent","EF","5","6","P.jpg","O.jpg","1","1","1","",""
"","feedback","","html-keyboard-response","415","494711","0.0-1.0-564.0-0.0","0","0","71531","","null","","","null","62","","","","","","","","","","","","","","","",""
"","ITI","","html-keyboard-response","416","495715","0.0-1.0-567.0","0","0","71531","","null","","","null","62","","","","","","","","","","","","","","","NaN",""
"","S1","","html-keyboard-response","417","495969","0.0-1.0-569.0","0","0","71531","","null","","","null","63","","","","","","","","","","","","","","","",""
"","ISI","","html-keyboard-response","418","496971","0.0-1.0-570.0","0","0","71531","","null","","","null","63","NaN","","","","","","","","","","","","","","",""
"","S2","","html-keyboard-response","419","497224","0.0-1.0-571.0","0","0","71531","","null","","","null","63","","NaN","","","","","","","","","","","","","",""
"","response","","html-keyboard-response","420","498173","0.0-1.0-572.0-0.0","0","0","71531","","946","","","68","63","","","2","63","training","adjacent","FG","6","7","O.jpg","Q.jpg","0","1","0","",""
"","feedback","","html-keyboard-response","421","499176","0.0-1.0-573.0-0.0","0","0","71531","","null","","","null","63","","","","","","","","","","","","","","","",""
"","time_out","","html-keyboard-response","422","501179","0.0-1.0-575.0-0.0","0","0","71531","","null","","","null","63","","","","","","","","","","","","","","","",""
"","ITI","","html-keyboard-response","423","502182","0.0-1.0-576.0","0","0","71531","","null","","","null","63","","","","","","","","","","","","","","","NaN",""
"","S1","","html-keyboard-response","424","502435","0.0-1.0-578.0","0","0","71531","","null","","","null","64","","","","","","","","","","","","","","","",""
"","ISI","","html-keyboard-response","425","503439","0.0-1.0-579.0","0","0","71531","","null","","","null","64","NaN","","","","","","","","","","","","","","",""
"","S2","","html-keyboard-response","426","503693","0.0-1.0-580.0","0","0","71531","","null","","","null","64","","NaN","","","","","","","","","","","","","",""
"","response","","html-keyboard-response","427","504428","0.0-1.0-581.0-0.0","0","0","71531","","734","","","75","64","","","2","64","training","adjacent","BA","2","1","M.jpg","N.jpg","1","0","0","",""
"","feedback","","html-keyboard-response","428","505432","0.0-1.0-582.0-0.0","0","0","71531","","null","","","null","64","","","","","","","","","","","","","","","",""
"","time_out","","html-keyboard-response","429","507434","0.0-1.0-584.0-0.0","0","0","71531","","null","","","null","64","","","","","","","","","","","","","","","",""
"","ITI","","html-keyboard-response","430","508437","0.0-1.0-585.0","0","0","71531","","null","","","null","64","","","","","","","","","","","","","","","NaN",""
"","S1","","html-keyboard-response","431","508690","0.0-1.0-587.0","0","0","71531","","null","","","null","65","","","","","","","","","","","","","","","",""
"","ISI","","html-keyboard-response","432","509694","0.0-1.0-588.0","0","0","71531","","null","","","null","65","NaN","","","","","","","","","","","","","","",""
"","S2","","html-keyboard-response","433","509948","0.0-1.0-589.0","0","0","71531","","null","","","null","65","","NaN","","","","","","","","","","","","","",""
"","response","","html-keyboard-response","434","510435","0.0-1.0-590.0-0.0","0","0","71531","","485","","","75","65","","","2","65","training","adjacent","BC","2","3","M.jpg","L.jpg","1","1","1","",""
"","feedback","","html-keyboard-response","435","511439","0.0-1.0-591.0-0.0","0","0","71531","","null","","","null","65","","","","","","","","","","","","","","","",""
"","ITI","","html-keyboard-response","436","512444","0.0-1.0-594.0","0","0","71531","","null","","","null","65","","","","","","","","","","","","","","","NaN",""
"","S1","","html-keyboard-response","437","512697","0.0-1.0-596.0","0","0","71531","","null","","","null","66","","","","","","","","","","","","","","","",""
"","ISI","","html-keyboard-response","438","513701","0.0-1.0-597.0","0","0","71531","","null","","","null","66","NaN","","","","","","","","","","","","","","",""
"","S2","","html-keyboard-response","439","513954","0.0-1.0-598.0","0","0","71531","","null","","","null","66","","NaN","","","","","","","","","","","","","",""
"","response","","html-keyboard-response","440","515267","0.0-1.0-599.0-0.0","0","0","71531","","1312","","","75","66","","","2","66","training","adjacent","DC","4","3","R.jpg","L.jpg","1","0","0","",""
"","feedback","","html-keyboard-response","441","516271","0.0-1.0-600.0-0.0","0","0","71531","","null","","","null","66","","","","","","","","","","","","","","","",""
"","time_out","","html-keyboard-response","442","518273","0.0-1.0-602.0-0.0","0","0","71531","","null","","","null","66","","","","","","","","","","","","","","","",""
"","ITI","","html-keyboard-response","443","519276","0.0-1.0-603.0","0","0","71531","","null","","","null","66","","","","","","","","","","","","","","","NaN",""
"","S1","","html-keyboard-response","444","519530","0.0-1.0-605.0","0","0","71531","","null","","","null","67","","","","","","","","","","","","","","","",""
"","ISI","","html-keyboard-response","445","520533","0.0-1.0-606.0","0","0","71531","","null","","","null","67","NaN","","","","","","","","","","","","","","",""
"","S2","","html-keyboard-response","446","520787","0.0-1.0-607.0","0","0","71531","","null","","","null","67","","NaN","","","","","","","","","","","","","",""
"","response","","html-keyboard-response","447","521190","0.0-1.0-608.0-0.0","0","0","71531","","400","","","68","67","","","2","67","training","adjacent","GF","7","6","Q.jpg","O.jpg","0","0","1","",""
"","feedback","","html-keyboard-response","448","522194","0.0-1.0-609.0-0.0","0","0","71531","","null","","","null","67","","","","","","","","","","","","","","","",""
"","ITI","","html-keyboard-response","449","523197","0.0-1.0-612.0","0","0","71531","","null","","","null","67","","","","","","","","","","","","","","","NaN",""
"","S1","","html-keyboard-response","450","523451","0.0-1.0-614.0","0","0","71531","","null","","","null","68","","","","","","","","","","","","","","","",""
"","ISI","","html-keyboard-response","451","524454","0.0-1.0-615.0","0","0","71531","","null","","","null","68","NaN","","","","","","","","","","","","","","",""
"","S2","","html-keyboard-response","452","524713","0.0-1.0-616.0","0","0","71531","","null","","","null","68","","NaN","","","","","","","","","","","","","",""
"","response","","html-keyboard-response","453","525293","0.0-1.0-617.0-0.0","0","0","71531","","578","","","68","68","","","2","68","training","adjacent","DE","4","5","R.jpg","P.jpg","0","1","0","",""
"","feedback","","html-keyboard-response","454","526297","0.0-1.0-618.0-0.0","0","0","71531","","null","","","null","68","","","","","","","","","","","","","","","",""
"","time_out","","html-keyboard-response","455","528300","0.0-1.0-620.0-0.0","0","0","71531","","null","","","null","68","","","","","","","","","","","","","","","",""
"","ITI","","html-keyboard-response","456","529303","0.0-1.0-621.0","0","0","71531","","null","","","null","68","","","","","","","","","","","","","","","NaN",""
"","S1","","html-keyboard-response","457","529555","0.0-1.0-623.0","0","0","71531","","null","","","null","69","","","","","","","","","","","","","","","",""
"","ISI","","html-keyboard-response","458","530558","0.0-1.0-624.0","0","0","71531","","null","","","null","69","NaN","","","","","","","","","","","","","","",""
"","S2","","html-keyboard-response","459","530811","0.0-1.0-625.0","0","0","71531","","null","","","null","69","","NaN","","","","","","","","","","","","","",""
"","response","","html-keyboard-response","460","531607","0.0-1.0-626.0-0.0","0","0","71531","","794","","","68","69","","","2","69","training","adjacent","ED","5","4","P.jpg","R.jpg","0","0","1","",""
"","feedback","","html-keyboard-response","461","532610","0.0-1.0-627.0-0.0","0","0","71531","","null","","","null","69","","","","","","","","","","","","","","","",""
"","ITI","","html-keyboard-response","462","533612","0.0-1.0-630.0","0","0","71531","","null","","","null","69","","","","","","","","","","","","","","","NaN",""
"","S1","","html-keyboard-response","463","533865","0.0-1.0-632.0","0","0","71531","","null","","","null","70","","","","","","","","","","","","","","","",""
"","ISI","","html-keyboard-response","464","534868","0.0-1.0-633.0","0","0","71531","","null","","","null","70","NaN","","","","","","","","","","","","","","",""
"","S2","","html-keyboard-response","465","535122","0.0-1.0-634.0","0","0","71531","","null","","","null","70","","NaN","","","","","","","","","","","","","",""
"","response","","html-keyboard-response","466","535547","0.0-1.0-635.0-0.0","0","0","71531","","423","","","75","70","","","2","70","training","adjacent","BC","2","3","M.jpg","L.jpg","1","1","1","",""
"","feedback","","html-keyboard-response","467","536551","0.0-1.0-636.0-0.0","0","0","71531","","null","","","null","70","","","","","","","","","","","","","","","",""
"","ITI","","html-keyboard-response","468","537553","0.0-1.0-639.0","0","0","71531","","null","","","null","70","","","","","","","","","","","","","","","NaN",""
"","S1","","html-keyboard-response","469","537806","0.0-1.0-641.0","0","0","71531","","null","","","null","71","","","","","","","","","","","","","","","",""
"","ISI","","html-keyboard-response","470","538810","0.0-1.0-642.0","0","0","71531","","null","","","null","71","NaN","","","","","","","","","","","","","","",""
"","S2","","html-keyboard-response","471","539064","0.0-1.0-643.0","0","0","71531","","null","","","null","71","","NaN","","","","","","","","","","","","","",""
"","response","","html-keyboard-response","472","539683","0.0-1.0-644.0-0.0","0","0","71531","","616","","","68","71","","","2","71","training","adjacent","ED","5","4","P.jpg","R.jpg","0","0","1","",""
"","feedback","","html-keyboard-response","473","540686","0.0-1.0-645.0-0.0","0","0","71531","","null","","","null","71","","","","","","","","","","","","","","","",""
"","ITI","","html-keyboard-response","474","541690","0.0-1.0-648.0","0","0","71531","","null","","","null","71","","","","","","","","","","","","","","","NaN",""
"","S1","","html-keyboard-response","475","541943","0.0-1.0-650.0","0","0","71531","","null","","","null","72","","","","","","","","","","","","","","","",""
"","ISI","","html-keyboard-response","476","542946","0.0-1.0-651.0","0","0","71531","","null","","","null","72","NaN","","","","","","","","","","","","","","",""
"","S2","","html-keyboard-response","477","543200","0.0-1.0-652.0","0","0","71531","","null","","","null","72","","NaN","","","","","","","","","","","","","",""
"","response","","html-keyboard-response","478","544496","0.0-1.0-653.0-0.0","0","0","71531","","1294","","","75","72","","","2","72","training","adjacent","FE","6","5","O.jpg","P.jpg","1","0","0","",""
"","feedback","","html-keyboard-response","479","545499","0.0-1.0-654.0-0.0","0","0","71531","","null","","","null","72","","","","","","","","","","","","","","","",""
"","time_out","","html-keyboard-response","480","547502","0.0-1.0-656.0-0.0","0","0","71531","","null","","","null","72","","","","","","","","","","","","","","","",""
"","ITI","","html-keyboard-response","481","548506","0.0-1.0-657.0","0","0","71531","","null","","","null","72","","","","","","","","","","","","","","","NaN",""
"","S1","","html-keyboard-response","482","548759","0.0-1.0-659.0","0","0","71531","","null","","","null","73","","","","","","","","","","","","","","","",""
"","ISI","","html-keyboard-response","483","549762","0.0-1.0-660.0","0","0","71531","","null","","","null","73","NaN","","","","","","","","","","","","","","",""
"","S2","","html-keyboard-response","484","550016","0.0-1.0-661.0","0","0","71531","","null","","","null","73","","NaN","","","","","","","","","","","","","",""
"","response","","html-keyboard-response","485","550607","0.0-1.0-662.0-0.0","0","0","71531","","588","","","75","73","","","2","73","training","adjacent","DC","4","3","R.jpg","L.jpg","1","0","0","",""
"","feedback","","html-keyboard-response","486","551610","0.0-1.0-663.0-0.0","0","0","71531","","null","","","null","73","","","","","","","","","","","","","","","",""
"","time_out","","html-keyboard-response","487","553615","0.0-1.0-665.0-0.0","0","0","71531","","null","","","null","73","","","","","","","","","","","","","","","",""
"","ITI","","html-keyboard-response","488","554617","0.0-1.0-666.0","0","0","71531","","null","","","null","73","","","","","","","","","","","","","","","NaN",""
"","S1","","html-keyboard-response","489","554871","0.0-1.0-668.0","0","0","71531","","null","","","null","74","","","","","","","","","","","","","","","",""
"","ISI","","html-keyboard-response","490","555873","0.0-1.0-669.0","0","0","71531","","null","","","null","74","NaN","","","","","","","","","","","","","","",""
"","S2","","html-keyboard-response","491","556126","0.0-1.0-670.0","0","0","71531","","null","","","null","74","","NaN","","","","","","","","","","","","","",""
"","response","","html-keyboard-response","492","557688","0.0-1.0-671.0-0.0","0","0","71531","","1559","","","75","74","","","2","74","training","adjacent","FG","6","7","O.jpg","Q.jpg","1","1","1","",""
"","feedback","","html-keyboard-response","493","558692","0.0-1.0-672.0-0.0","0","0","71531","","null","","","null","74","","","","","","","","","","","","","","","",""
"","ITI","","html-keyboard-response","494","559695","0.0-1.0-675.0","0","0","71531","","null","","","null","74","","","","","","","","","","","","","","","NaN",""
"","S1","","html-keyboard-response","495","559949","0.0-1.0-677.0","0","0","71531","","null","","","null","75","","","","","","","","","","","","","","","",""
"","ISI","","html-keyboard-response","496","560952","0.0-1.0-678.0","0","0","71531","","null","","","null","75","NaN","","","","","","","","","","","","","","",""
"","S2","","html-keyboard-response","497","561206","0.0-1.0-679.0","0","0","71531","","null","","","null","75","","NaN","","","","","","","","","","","","","",""
"","response","","html-keyboard-response","498","562524","0.0-1.0-680.0-0.0","0","0","71531","","1316","","","68","75","","","2","75","training","adjacent","ED","5","4","P.jpg","R.jpg","0","0","1","",""
"","feedback","","html-keyboard-response","499","563528","0.0-1.0-681.0-0.0","0","0","71531","","null","","","null","75","","","","","","","","","","","","","","","",""
"","ITI","","html-keyboard-response","500","564532","0.0-1.0-684.0","0","0","71531","","null","","","null","75","","","","","","","","","","","","","","","NaN",""
"","S1","","html-keyboard-response","501","564785","0.0-1.0-686.0","0","0","71531","","null","","","null","76","","","","","","","","","","","","","","","",""
"","ISI","","html-keyboard-response","502","565788","0.0-1.0-687.0","0","0","71531","","null","","","null","76","NaN","","","","","","","","","","","","","","",""
"","S2","","html-keyboard-response","503","566041","0.0-1.0-688.0","0","0","71531","","null","","","null","76","","NaN","","","","","","","","","","","","","",""
"","response","","html-keyboard-response","504","566550","0.0-1.0-689.0-0.0","0","0","71531","","506","","","75","76","","","2","76","training","adjacent","FG","6","7","O.jpg","Q.jpg","1","1","1","",""
"","feedback","","html-keyboard-response","505","567554","0.0-1.0-690.0-0.0","0","0","71531","","null","","","null","76","","","","","","","","","","","","","","","",""
"","ITI","","html-keyboard-response","506","568557","0.0-1.0-693.0","0","0","71531","","null","","","null","76","","","","","","","","","","","","","","","NaN",""
"","S1","","html-keyboard-response","507","568810","0.0-1.0-695.0","0","0","71531","","null","","","null","77","","","","","","","","","","","","","","","",""
"","ISI","","html-keyboard-response","508","569813","0.0-1.0-696.0","0","0","71531","","null","","","null","77","NaN","","","","","","","","","","","","","","",""
"","S2","","html-keyboard-response","509","570065","0.0-1.0-697.0","0","0","71531","","null","","","null","77","","NaN","","","","","","","","","","","","","",""
"","response","","html-keyboard-response","510","571113","0.0-1.0-698.0-0.0","0","0","71531","","1046","","","75","77","","","2","77","training","adjacent","FE","6","5","O.jpg","P.jpg","1","0","0","",""
"","feedback","","html-keyboard-response","511","572117","0.0-1.0-699.0-0.0","0","0","71531","","null","","","null","77","","","","","","","","","","","","","","","",""
"","time_out","","html-keyboard-response","512","574120","0.0-1.0-701.0-0.0","0","0","71531","","null","","","null","77","","","","","","","","","","","","","","","",""
"","ITI","","html-keyboard-response","513","575122","0.0-1.0-702.0","0","0","71531","","null","","","null","77","","","","","","","","","","","","","","","NaN",""
"","S1","","html-keyboard-response","514","575375","0.0-1.0-704.0","0","0","71531","","null","","","null","78","","","","","","","","","","","","","","","",""
"","ISI","","html-keyboard-response","515","576378","0.0-1.0-705.0","0","0","71531","","null","","","null","78","NaN","","","","","","","","","","","","","","",""
"","S2","","html-keyboard-response","516","576631","0.0-1.0-706.0","0","0","71531","","null","","","null","78","","NaN","","","","","","","","","","","","","",""
"","response","","html-keyboard-response","517","578139","0.0-1.0-707.0-0.0","0","0","71531","","1507","","","75","78","","","2","78","training","adjacent","CD","3","4","L.jpg","R.jpg","1","1","1","",""
"","feedback","","html-keyboard-response","518","579143","0.0-1.0-708.0-0.0","0","0","71531","","null","","","null","78","","","","","","","","","","","","","","","",""
"","ITI","","html-keyboard-response","519","580146","0.0-1.0-711.0","0","0","71531","","null","","","null","78","","","","","","","","","","","","","","","NaN",""
"","S1","","html-keyboard-response","520","580400","0.0-1.0-713.0","0","0","71531","","null","","","null","79","","","","","","","","","","","","","","","",""
"","ISI","","html-keyboard-response","521","581403","0.0-1.0-714.0","0","0","71531","","null","","","null","79","NaN","","","","","","","","","","","","","","",""
"","S2","","html-keyboard-response","522","581657","0.0-1.0-715.0","0","0","71531","","null","","","null","79","","NaN","","","","","","","","","","","","","",""
"","response","","html-keyboard-response","523","582967","0.0-1.0-716.0-0.0","0","0","71531","","1307","","","68","79","","","2","79","training","adjacent","FE","6","5","O.jpg","P.jpg","0","0","1","",""
"","feedback","","html-keyboard-response","524","583970","0.0-1.0-717.0-0.0","0","0","71531","","null","","","null","79","","","","","","","","","","","","","","","",""
"","ITI","","html-keyboard-response","525","584974","0.0-1.0-720.0","0","0","71531","","null","","","null","79","","","","","","","","","","","","","","","NaN",""
"","S1","","html-keyboard-response","526","585228","0.0-1.0-722.0","0","0","71531","","null","","","null","80","","","","","","","","","","","","","","","",""
"","ISI","","html-keyboard-response","527","586231","0.0-1.0-723.0","0","0","71531","","null","","","null","80","NaN","","","","","","","","","","","","","","",""
"","S2","","html-keyboard-response","528","586485","0.0-1.0-724.0","0","0","71531","","null","","","null","80","","NaN","","","","","","","","","","","","","",""
"","response","","html-keyboard-response","529","587273","0.0-1.0-725.0-0.0","0","0","71531","","786","","","75","80","","","2","80","training","adjacent","AB","1","2","N.jpg","M.jpg","1","1","1","",""
"","feedback","","html-keyboard-response","530","588276","0.0-1.0-726.0-0.0","0","0","71531","","null","","","null","80","","","","","","","","","","","","","","","",""
"","ITI","","html-keyboard-response","531","589279","0.0-1.0-729.0","0","0","71531","","null","","","null","80","","","","","","","","","","","","","","","NaN",""
"","S1","","html-keyboard-response","532","589532","0.0-1.0-731.0","0","0","71531","","null","","","null","81","","","","","","","","","","","","","","","",""
"","ISI","","html-keyboard-response","533","590536","0.0-1.0-732.0","0","0","71531","","null","","","null","81","NaN","","","","","","","","","","","","","","",""
"","S2","","html-keyboard-response","534","590790","0.0-1.0-733.0","0","0","71531","","null","","","null","81","","NaN","","","","","","","","","","","","","",""
"","response","","html-keyboard-response","535","590979","0.0-1.0-734.0-0.0","0","0","71531","","187","","","68","81","","","2","81","training","adjacent","GF","7","6","Q.jpg","O.jpg","0","0","1","",""
"","feedback","","html-keyboard-response","536","591983","0.0-1.0-735.0-0.0","0","0","71531","","null","","","null","81","","","","","","","","","","","","","","","",""
"","ITI","","html-keyboard-response","537","592987","0.0-1.0-738.0","0","0","71531","","null","","","null","81","","","","","","","","","","","","","","","NaN",""
"","S1","","html-keyboard-response","538","593240","0.0-1.0-740.0","0","0","71531","","null","","","null","82","","","","","","","","","","","","","","","",""
"","ISI","","html-keyboard-response","539","594242","0.0-1.0-741.0","0","0","71531","","null","","","null","82","NaN","","","","","","","","","","","","","","",""
"","S2","","html-keyboard-response","540","594495","0.0-1.0-742.0","0","0","71531","","null","","","null","82","","NaN","","","","","","","","","","","","","",""
"","response","","html-keyboard-response","541","595076","0.0-1.0-743.0-0.0","0","0","71531","","579","","","75","82","","","2","82","training","adjacent","DE","4","5","R.jpg","P.jpg","1","1","1","",""
"","feedback","","html-keyboard-response","542","596079","0.0-1.0-744.0-0.0","0","0","71531","","null","","","null","82","","","","","","","","","","","","","","","",""
"","ITI","","html-keyboard-response","543","597082","0.0-1.0-747.0","0","0","71531","","null","","","null","82","","","","","","","","","","","","","","","NaN",""
"","S1","","html-keyboard-response","544","597336","0.0-1.0-749.0","0","0","71531","","null","","","null","83","","","","","","","","","","","","","","","",""
"","ISI","","html-keyboard-response","545","598352","0.0-1.0-750.0","0","0","71531","","null","","","null","83","NaN","","","","","","","","","","","","","","",""
"","S2","","html-keyboard-response","546","598605","0.0-1.0-751.0","0","0","71531","","null","","","null","83","","NaN","","","","","","","","","","","","","",""
"","response","","html-keyboard-response","547","599251","0.0-1.0-752.0-0.0","0","0","71531","","644","","","68","83","","","2","83","training","adjacent","BA","2","1","M.jpg","N.jpg","0","0","1","",""
"","feedback","","html-keyboard-response","548","600254","0.0-1.0-753.0-0.0","0","0","71531","","null","","","null","83","","","","","","","","","","","","","","","",""
"","ITI","","html-keyboard-response","549","601257","0.0-1.0-756.0","0","0","71531","","null","","","null","83","","","","","","","","","","","","","","","NaN",""
"","S1","","html-keyboard-response","550","601510","0.0-1.0-758.0","0","0","71531","","null","","","null","84","","","","","","","","","","","","","","","",""
"","ISI","","html-keyboard-response","551","602512","0.0-1.0-759.0","0","0","71531","","null","","","null","84","NaN","","","","","","","","","","","","","","",""
"","S2","","html-keyboard-response","552","602765","0.0-1.0-760.0","0","0","71531","","null","","","null","84","","NaN","","","","","","","","","","","","","",""
"","response","","html-keyboard-response","553","603841","0.0-1.0-761.0-0.0","0","0","71531","","1073","","","68","84","","","2","84","training","adjacent","CB","3","2","L.jpg","M.jpg","0","0","1","",""
"","feedback","","html-keyboard-response","554","604844","0.0-1.0-762.0-0.0","0","0","71531","","null","","","null","84","","","","","","","","","","","","","","","",""
"","ITI","","html-keyboard-response","555","605847","0.0-1.0-765.0","0","0","71531","","null","","","null","84","","","","","","","","","","","","","","","NaN",""
"","S1","","html-keyboard-response","556","606101","0.0-1.0-767.0","0","0","71531","","null","","","null","85","","","","","","","","","","","","","","","",""
"","ISI","","html-keyboard-response","557","607103","0.0-1.0-768.0","0","0","71531","","null","","","null","85","NaN","","","","","","","","","","","","","","",""
"","S2","","html-keyboard-response","558","607357","0.0-1.0-769.0","0","0","71531","","null","","","null","85","","NaN","","","","","","","","","","","","","",""
"","response","","html-keyboard-response","559","608483","0.0-1.0-770.0-0.0","0","0","71531","","1123","","","68","85","","","2","85","training","adjacent","CB","3","2","L.jpg","M.jpg","0","0","1","",""
"","feedback","","html-keyboard-response","560","609487","0.0-1.0-771.0-0.0","0","0","71531","","null","","","null","85","","","","","","","","","","","","","","","",""
"","ITI","","html-keyboard-response","561","610490","0.0-1.0-774.0","0","0","71531","","null","","","null","85","","","","","","","","","","","","","","","NaN",""
"","S1","","html-keyboard-response","562","610743","0.0-1.0-776.0","0","0","71531","","null","","","null","86","","","","","","","","","","","","","","","",""
"","ISI","","html-keyboard-response","563","611746","0.0-1.0-777.0","0","0","71531","","null","","","null","86","NaN","","","","","","","","","","","","","","",""
"","S2","","html-keyboard-response","564","611999","0.0-1.0-778.0","0","0","71531","","null","","","null","86","","NaN","","","","","","","","","","","","","",""
"","response","","html-keyboard-response","565","613561","0.0-1.0-779.0-0.0","0","0","71531","","1560","","","75","86","","","2","86","training","adjacent","CD","3","4","L.jpg","R.jpg","1","1","1","",""
"","feedback","","html-keyboard-response","566","614565","0.0-1.0-780.0-0.0","0","0","71531","","null","","","null","86","","","","","","","","","","","","","","","",""
"","ITI","","html-keyboard-response","567","615568","0.0-1.0-783.0","0","0","71531","","null","","","null","86","","","","","","","","","","","","","","","NaN",""
"","S1","","html-keyboard-response","568","615822","0.0-1.0-785.0","0","0","71531","","null","","","null","87","","","","","","","","","","","","","","","",""
"","ISI","","html-keyboard-response","569","616825","0.0-1.0-786.0","0","0","71531","","null","","","null","87","NaN","","","","","","","","","","","","","","",""
"","S2","","html-keyboard-response","570","617079","0.0-1.0-787.0","0","0","71531","","null","","","null","87","","NaN","","","","","","","","","","","","","",""
"","response","","html-keyboard-response","571","618132","0.0-1.0-788.0-0.0","0","0","71531","","1052","","","75","87","","","2","87","training","adjacent","EF","5","6","P.jpg","O.jpg","1","1","1","",""
"","feedback","","html-keyboard-response","572","619137","0.0-1.0-789.0-0.0","0","0","71531","","null","","","null","87","","","","","","","","","","","","","","","",""
"","ITI","","html-keyboard-response","573","620140","0.0-1.0-792.0","0","0","71531","","null","","","null","87","","","","","","","","","","","","","","","NaN",""
"","S1","","html-keyboard-response","574","620393","0.0-1.0-794.0","0","0","71531","","null","","","null","88","","","","","","","","","","","","","","","",""
"","ISI","","html-keyboard-response","575","621395","0.0-1.0-795.0","0","0","71531","","null","","","null","88","NaN","","","","","","","","","","","","","","",""
"","S2","","html-keyboard-response","576","621650","0.0-1.0-796.0","0","0","71531","","null","","","null","88","","NaN","","","","","","","","","","","","","",""
"","response","","html-keyboard-response","577","622981","0.0-1.0-797.0-0.0","0","0","71531","","1328","","","68","88","","","2","88","training","adjacent","AB","1","2","N.jpg","M.jpg","0","1","0","",""
"","feedback","","html-keyboard-response","578","623993","0.0-1.0-798.0-0.0","0","0","71531","","null","","","null","88","","","","","","","","","","","","","","","",""
"","time_out","","html-keyboard-response","579","625996","0.0-1.0-800.0-0.0","0","0","71531","","null","","","null","88","","","","","","","","","","","","","","","",""
"","ITI","","html-keyboard-response","580","626999","0.0-1.0-801.0","0","0","71531","","null","","","null","88","","","","","","","","","","","","","","","NaN",""
