"success","ttype","start_time","trial_type","trial_index","time_elapsed","internal_node_id","warning","missed_checkup","PID","view_history","rt","responses","repeat_instructions","key_press","index","keypress_isi","keypress_S2","block","trial_num","phase","group_type","pair_type","S1_stim","S2_stim","S1_img","S2_img","S1_chosen","S1_higher","accuracy","keypress_iti","total_bonus_tally"
"true","full_screen","d04062023hr2023","fullscreen","0","14447","0.0-0.0","0","0","50495","","","","","","","","","","","","","","","","","","","","","",""
"","instructions","","instructions","1","94023","0.0-1.0-0.0-0.0","0","0","50495","[{""page_index"":0,""viewing_time"":11172},{""page_index"":1,""viewing_time"":41300},{""page_index"":2,""viewing_time"":24965},{""page_index"":3,""viewing_time"":2138}]","79576","","","","","","","","","","","","","","","","","","","",""
"","comprehension_check","","survey-multi-choice","2","116819","0.0-1.0-0.0-1.0","0","0","50495","","22793","{""Q0"":""True"",""Q1"":""D"",""Q2"":""Once the second image appears and while the screen 'MAKE A CHOICE' is shown"",""Q3"":""Green mark"",""Q4"":""either D or K""}","1","","","","","","","","","","","","","","","","","",""
"","missed_instruction_checkup","","html-keyboard-response","3","119877","0.0-1.0-0.0-2.0-0.0","0","1","50495","","3056","","","32","","","","","","","","","","","","","","","","",""
"","instructions","","instructions","4","153179","0.0-1.0-0.1-0.1","0","0","50495","[{""page_index"":0,""viewing_time"":3914},{""page_index"":1,""viewing_time"":10657},{""page_index"":2,""viewing_time"":15719},{""page_index"":3,""viewing_time"":3011}]","33301","","","","","","","","","","","","","","","","","","","",""
"","comprehension_check","","survey-multi-choice","5","179607","0.0-1.0-0.1-1.1","0","0","50495","","26425","{""Q0"":""True"",""Q1"":""K"",""Q2"":""Once the second image appears and while the screen 'MAKE A CHOICE' is shown"",""Q3"":""Green mark"",""Q4"":""either D or K""}","0","","","","","","","","","","","","","","","","","",""
"","start_exp","","html-keyboard-response","6","182519","0.0-1.0-1.0","0","0","50495","","2910","","","32","","","","","","","","","","","","","","","","",""
"","S1","","html-keyboard-response","7","182671","0.0-1.0-2.0","0","0","50495","","null","","","null","0","","","","","","","","","","","","","","","",""
"","ISI","","html-keyboard-response","8","184674","0.0-1.0-3.0","0","0","50495","","null","","","null","0","NaN","","","","","","","","","","","","","","",""
"","S2","","html-keyboard-response","9","184827","0.0-1.0-4.0","0","0","50495","","null","","","null","0","","NaN","","","","","","","","","","","","","",""
"","response","","html-keyboard-response","10","185694","0.0-1.0-5.0-0.0","0","0","50495","","866","","","75","0","","","1","0","training","adjacent","DC","4","3","Q.jpg","M.jpg","1","0","0","",""
"","feedback","","html-keyboard-response","11","186696","0.0-1.0-6.0-0.0","0","0","50495","","null","","","null","0","","","","","","","","","","","","","","","",""
"","time_out","","html-keyboard-response","12","188698","0.0-1.0-8.0-0.0","0","0","50495","","null","","","null","0","","","","","","","","","","","","","","","",""
"","ITI","","html-keyboard-response","13","189700","0.0-1.0-9.0","0","0","50495","","null","","","null","0","","","","","","","","","","","","","","","NaN",""
"","S1","","html-keyboard-response","14","189851","0.0-1.0-11.0","0","0","50495","","null","","","null","1","","","","","","","","","","","","","","","",""
"","ISI","","html-keyboard-response","15","191853","0.0-1.0-12.0","0","0","50495","","null","","","null","1","NaN","","","","","","","","","","","","","","",""
"","S2","","html-keyboard-response","16","192005","0.0-1.0-13.0","0","0","50495","","null","","","null","1","","NaN","","","","","","","","","","","","","",""
"","response","","html-keyboard-response","17","192637","0.0-1.0-14.0-0.0","0","0","50495","","631","","","75","1","","","1","1","training","adjacent","BA","2","1","O.jpg","R.jpg","1","0","0","",""
"","feedback","","html-keyboard-response","18","193639","0.0-1.0-15.0-0.0","0","0","50495","","null","","","null","1","","","","","","","","","","","","","","","",""
"","time_out","","html-keyboard-response","19","195641","0.0-1.0-17.0-0.0","0","0","50495","","null","","","null","1","","","","","","","","","","","","","","","",""
"","ITI","","html-keyboard-response","20","196643","0.0-1.0-18.0","0","0","50495","","null","","","null","1","","","","","","","","","","","","","","","NaN",""
"","S1","","html-keyboard-response","21","196795","0.0-1.0-20.0","0","0","50495","","null","","","null","2","","","","","","","","","","","","","","","",""
"","ISI","","html-keyboard-response","22","198796","0.0-1.0-21.0","0","0","50495","","null","","","null","2","NaN","","","","","","","","","","","","","","",""
"","S2","","html-keyboard-response","23","198949","0.0-1.0-22.0","0","0","50495","","null","","","null","2","","NaN","","","","","","","","","","","","","",""
"","response","","html-keyboard-response","24","199427","0.0-1.0-23.0-0.0","0","0","50495","","478","","","75","2","","","1","2","training","adjacent","CB","3","2","M.jpg","O.jpg","1","0","0","",""
"","feedback","","html-keyboard-response","25","200429","0.0-1.0-24.0-0.0","0","0","50495","","null","","","null","2","","","","","","","","","","","","","","","",""
"","time_out","","html-keyboard-response","26","202431","0.0-1.0-26.0-0.0","0","0","50495","","null","","","null","2","","","","","","","","","","","","","","","",""
"","ITI","","html-keyboard-response","27","203433","0.0-1.0-27.0","0","0","50495","","null","","","null","2","","","","","","","","","","","","","","","NaN",""
"","S1","","html-keyboard-response","28","203585","0.0-1.0-29.0","0","0","50495","","null","","","null","3","","","","","","","","","","","","","","","",""
"","ISI","","html-keyboard-response","29","205587","0.0-1.0-30.0","0","0","50495","","null","","","null","3","NaN","","","","","","","","","","","","","","",""
"","S2","","html-keyboard-response","30","205740","0.0-1.0-31.0","0","0","50495","","null","","","null","3","","NaN","","","","","","","","","","","","","",""
"","response","","html-keyboard-response","31","206227","0.0-1.0-32.0-0.0","0","0","50495","","486","","","68","3","","","1","3","training","adjacent","AB","1","2","R.jpg","O.jpg","0","1","0","",""
"","feedback","","html-keyboard-response","32","207229","0.0-1.0-33.0-0.0","0","0","50495","","null","","","null","3","","","","","","","","","","","","","","","",""
"","time_out","","html-keyboard-response","33","209231","0.0-1.0-35.0-0.0","0","0","50495","","null","","","null","3","","","","","","","","","","","","","","","",""
"","ITI","","html-keyboard-response","34","210232","0.0-1.0-36.0","0","0","50495","","null","","","null","3","","","","","","","","","","","","","","","NaN",""
"","S1","","html-keyboard-response","35","210385","0.0-1.0-38.0","0","0","50495","","null","","","null","4","","","","","","","","","","","","","","","",""
"","ISI","","html-keyboard-response","36","212387","0.0-1.0-39.0","0","0","50495","","null","","","null","4","NaN","","","","","","","","","","","","","","",""
"","S2","","html-keyboard-response","37","212539","0.0-1.0-40.0","0","0","50495","","null","","","null","4","","NaN","","","","","","","","","","","","","",""
"","response","","html-keyboard-response","38","213022","0.0-1.0-41.0-0.0","0","0","50495","","482","","","75","4","","","1","4","training","adjacent","ED","5","4","N.jpg","Q.jpg","1","0","0","",""
"","feedback","","html-keyboard-response","39","214023","0.0-1.0-42.0-0.0","0","0","50495","","null","","","null","4","","","","","","","","","","","","","","","",""
"","time_out","","html-keyboard-response","40","216024","0.0-1.0-44.0-0.0","0","0","50495","","null","","","null","4","","","","","","","","","","","","","","","",""
"","ITI","","html-keyboard-response","41","217025","0.0-1.0-45.0","0","0","50495","","null","","","null","4","","","","","","","","","","","","","","","NaN",""
"","S1","","html-keyboard-response","42","217179","0.0-1.0-47.0","0","0","50495","","null","","","null","5","","","","","","","","","","","","","","","",""
"","ISI","","html-keyboard-response","43","219181","0.0-1.0-48.0","0","0","50495","","null","","","null","5","NaN","","","","","","","","","","","","","","",""
"","S2","","html-keyboard-response","44","219333","0.0-1.0-49.0","0","0","50495","","null","","","null","5","","NaN","","","","","","","","","","","","","",""
"","response","","html-keyboard-response","45","219664","0.0-1.0-50.0-0.0","0","0","50495","","329","","","75","5","","","1","5","training","adjacent","CD","3","4","M.jpg","Q.jpg","1","1","1","",""
"","feedback","","html-keyboard-response","46","220665","0.0-1.0-51.0-0.0","0","0","50495","","null","","","null","5","","","","","","","","","","","","","","","",""
"","ITI","","html-keyboard-response","47","221666","0.0-1.0-54.0","0","0","50495","","null","","","null","5","","","","","","","","","","","","","","","NaN",""
"","S1","","html-keyboard-response","48","221817","0.0-1.0-56.0","0","0","50495","","null","","","null","6","","","","","","","","","","","","","","","",""
"","ISI","","html-keyboard-response","49","223818","0.0-1.0-57.0","0","0","50495","","null","","","null","6","NaN","","","","","","","","","","","","","","",""
"","S2","","html-keyboard-response","50","223971","0.0-1.0-58.0","0","0","50495","","null","","","null","6","","NaN","","","","","","","","","","","","","",""
"","response","","html-keyboard-response","51","224485","0.0-1.0-59.0-0.0","0","0","50495","","513","","","75","6","","","1","6","training","adjacent","EF","5","6","N.jpg","P.jpg","1","1","1","",""
"","feedback","","html-keyboard-response","52","225487","0.0-1.0-60.0-0.0","0","0","50495","","null","","","null","6","","","","","","","","","","","","","","","",""
"","ITI","","html-keyboard-response","53","226488","0.0-1.0-63.0","0","0","50495","","null","","","null","6","","","","","","","","","","","","","","","NaN",""
"","S1","","html-keyboard-response","54","226641","0.0-1.0-65.0","0","0","50495","","null","","","null","7","","","","","","","","","","","","","","","",""
"","ISI","","html-keyboard-response","55","228643","0.0-1.0-66.0","0","0","50495","","null","","","null","7","NaN","","","","","","","","","","","","","","",""
"","S2","","html-keyboard-response","56","228794","0.0-1.0-67.0","0","0","50495","","null","","","null","7","","NaN","","","","","","","","","","","","","",""
"","response","","html-keyboard-response","57","229842","0.0-1.0-68.0-0.0","0","0","50495","","1047","","","68","7","","","1","7","training","adjacent","ED","5","4","N.jpg","Q.jpg","0","0","1","",""
"","feedback","","html-keyboard-response","58","230844","0.0-1.0-69.0-0.0","0","0","50495","","null","","","null","7","","","","","","","","","","","","","","","",""
"","ITI","","html-keyboard-response","59","231847","0.0-1.0-72.0","0","0","50495","","null","","","null","7","","","","","","","","","","","","","","","NaN",""
"","S1","","html-keyboard-response","60","231999","0.0-1.0-74.0","0","0","50495","","null","","","null","8","","","","","","","","","","","","","","","",""
"","ISI","","html-keyboard-response","61","234001","0.0-1.0-75.0","0","0","50495","","null","","","null","8","NaN","","","","","","","","","","","","","","",""
"","S2","","html-keyboard-response","62","234152","0.0-1.0-76.0","0","0","50495","","null","","","null","8","","NaN","","","","","","","","","","","","","",""
"","response","","html-keyboard-response","63","234643","0.0-1.0-77.0-0.0","0","0","50495","","490","","","75","8","","","1","8","training","adjacent","FE","6","5","P.jpg","N.jpg","1","0","0","",""
"","feedback","","html-keyboard-response","64","235645","0.0-1.0-78.0-0.0","0","0","50495","","null","","","null","8","","","","","","","","","","","","","","","",""
"","time_out","","html-keyboard-response","65","237647","0.0-1.0-80.0-0.0","0","0","50495","","null","","","null","8","","","","","","","","","","","","","","","",""
"","ITI","","html-keyboard-response","66","238649","0.0-1.0-81.0","0","0","50495","","null","","","null","8","","","","","","","","","","","","","","","NaN",""
"","S1","","html-keyboard-response","67","238802","0.0-1.0-83.0","0","0","50495","","null","","","null","9","","","","","","","","","","","","","","","",""
"","ISI","","html-keyboard-response","68","240803","0.0-1.0-84.0","0","0","50495","","null","","","null","9","NaN","","","","","","","","","","","","","","",""
"","S2","","html-keyboard-response","69","240955","0.0-1.0-85.0","0","0","50495","","null","","","null","9","","NaN","","","","","","","","","","","","","",""
"","response","","html-keyboard-response","70","242295","0.0-1.0-86.0-0.0","0","0","50495","","1340","","","68","9","","","1","9","training","adjacent","DE","4","5","Q.jpg","N.jpg","0","1","0","",""
"","feedback","","html-keyboard-response","71","243298","0.0-1.0-87.0-0.0","0","0","50495","","null","","","null","9","","","","","","","","","","","","","","","",""
"","time_out","","html-keyboard-response","72","245300","0.0-1.0-89.0-0.0","0","0","50495","","null","","","null","9","","","","","","","","","","","","","","","",""
"","ITI","","html-keyboard-response","73","246302","0.0-1.0-90.0","0","0","50495","","null","","","null","9","","","","","","","","","","","","","","","NaN",""
"","S1","","html-keyboard-response","74","246454","0.0-1.0-92.0","0","0","50495","","null","","","null","10","","","","","","","","","","","","","","","",""
"","ISI","","html-keyboard-response","75","248457","0.0-1.0-93.0","0","0","50495","","null","","","null","10","NaN","","","","","","","","","","","","","","",""
"","S2","","html-keyboard-response","76","248610","0.0-1.0-94.0","0","0","50495","","null","","","null","10","","NaN","","","","","","","","","","","","","",""
"","response","","html-keyboard-response","77","249558","0.0-1.0-95.0-0.0","0","0","50495","","947","","","68","10","","","1","10","training","adjacent","EF","5","6","N.jpg","P.jpg","0","1","0","",""
"","feedback","","html-keyboard-response","78","250560","0.0-1.0-96.0-0.0","0","0","50495","","null","","","null","10","","","","","","","","","","","","","","","",""
"","time_out","","html-keyboard-response","79","252562","0.0-1.0-98.0-0.0","0","0","50495","","null","","","null","10","","","","","","","","","","","","","","","",""
"","ITI","","html-keyboard-response","80","253563","0.0-1.0-99.0","0","0","50495","","null","","","null","10","","","","","","","","","","","","","","","NaN",""
"","S1","","html-keyboard-response","81","253715","0.0-1.0-101.0","0","0","50495","","null","","","null","11","","","","","","","","","","","","","","","",""
"","ISI","","html-keyboard-response","82","255716","0.0-1.0-102.0","0","0","50495","","null","","","null","11","NaN","","","","","","","","","","","","","","",""
"","S2","","html-keyboard-response","83","255867","0.0-1.0-103.0","0","0","50495","","null","","","null","11","","NaN","","","","","","","","","","","","","",""
"","response","","html-keyboard-response","84","255981","0.0-1.0-104.0-0.0","0","0","50495","","113","","","75","11","","","1","11","training","adjacent","ED","5","4","N.jpg","Q.jpg","1","0","0","",""
"","feedback","","html-keyboard-response","85","256988","0.0-1.0-105.0-0.0","0","0","50495","","null","","","null","11","","","","","","","","","","","","","","","",""
"","time_out","","html-keyboard-response","86","258990","0.0-1.0-107.0-0.0","0","0","50495","","null","","","null","11","","","","","","","","","","","","","","","",""
"","ITI","","html-keyboard-response","87","259991","0.0-1.0-108.0","0","0","50495","","null","","","null","11","","","","","","","","","","","","","","","NaN",""
"","S1","","html-keyboard-response","88","260143","0.0-1.0-110.0","0","0","50495","","null","","","null","12","","","","","","","","","","","","","","","",""
"","ISI","","html-keyboard-response","89","262144","0.0-1.0-111.0","0","0","50495","","null","","","null","12","NaN","","","","","","","","","","","","","","",""
"","S2","","html-keyboard-response","90","262296","0.0-1.0-112.0","0","0","50495","","null","","","null","12","","NaN","","","","","","","","","","","","","",""
"","response","","html-keyboard-response","91","263545","0.0-1.0-113.0-0.0","0","0","50495","","1248","","","68","12","","","1","12","training","adjacent","FG","6","7","P.jpg","L.jpg","0","1","0","",""
"","feedback","","html-keyboard-response","92","264546","0.0-1.0-114.0-0.0","0","0","50495","","null","","","null","12","","","","","","","","","","","","","","","",""
"","time_out","","html-keyboard-response","93","266547","0.0-1.0-116.0-0.0","0","0","50495","","null","","","null","12","","","","","","","","","","","","","","","",""
"","ITI","","html-keyboard-response","94","267549","0.0-1.0-117.0","0","0","50495","","null","","","null","12","","","","","","","","","","","","","","","NaN",""
"","S1","","html-keyboard-response","95","267701","0.0-1.0-119.0","0","0","50495","","null","","","null","13","","","","","","","","","","","","","","","",""
"","ISI","","html-keyboard-response","96","269703","0.0-1.0-120.0","0","0","50495","","null","","","null","13","NaN","","","","","","","","","","","","","","",""
"","S2","","html-keyboard-response","97","269855","0.0-1.0-121.0","0","0","50495","","null","","","null","13","","NaN","","","","","","","","","","","","","",""
"","response","","html-keyboard-response","98","270586","0.0-1.0-122.0-0.0","0","0","50495","","730","","","75","13","","","1","13","training","adjacent","CB","3","2","M.jpg","O.jpg","1","0","0","",""
"","feedback","","html-keyboard-response","99","271588","0.0-1.0-123.0-0.0","0","0","50495","","null","","","null","13","","","","","","","","","","","","","","","",""
"","time_out","","html-keyboard-response","100","273590","0.0-1.0-125.0-0.0","0","0","50495","","null","","","null","13","","","","","","","","","","","","","","","",""
"","ITI","","html-keyboard-response","101","274592","0.0-1.0-126.0","0","0","50495","","null","","","null","13","","","","","","","","","","","","","","","NaN",""
"","S1","","html-keyboard-response","102","274744","0.0-1.0-128.0","0","0","50495","","null","","","null","14","","","","","","","","","","","","","","","",""
"","ISI","","html-keyboard-response","103","276745","0.0-1.0-129.0","0","0","50495","","null","","","null","14","NaN","","","","","","","","","","","","","","",""
"","S2","","html-keyboard-response","104","276896","0.0-1.0-130.0","0","0","50495","","null","","","null","14","","NaN","","","","","","","","","","","","","",""
"","response","","html-keyboard-response","105","277459","0.0-1.0-131.0-0.0","0","0","50495","","559","","","75","14","","","1","14","training","adjacent","BA","2","1","O.jpg","R.jpg","1","0","0","",""
"","feedback","","html-keyboard-response","106","278461","0.0-1.0-132.0-0.0","0","0","50495","","null","","","null","14","","","","","","","","","","","","","","","",""
"","time_out","","html-keyboard-response","107","280463","0.0-1.0-134.0-0.0","0","0","50495","","null","","","null","14","","","","","","","","","","","","","","","",""
"","ITI","","html-keyboard-response","108","281464","0.0-1.0-135.0","0","0","50495","","null","","","null","14","","","","","","","","","","","","","","","NaN",""
"","S1","","html-keyboard-response","109","281615","0.0-1.0-137.0","0","0","50495","","null","","","null","15","","","","","","","","","","","","","","","",""
"","ISI","","html-keyboard-response","110","283617","0.0-1.0-138.0","0","0","50495","","null","","","null","15","NaN","","","","","","","","","","","","","","",""
"","S2","","html-keyboard-response","111","283769","0.0-1.0-139.0","0","0","50495","","null","","","null","15","","NaN","","","","","","","","","","","","","",""
"","response","","html-keyboard-response","112","284279","0.0-1.0-140.0-0.0","0","0","50495","","510","","","75","15","","","1","15","training","adjacent","FG","6","7","P.jpg","L.jpg","1","1","1","",""
"","feedback","","html-keyboard-response","113","285281","0.0-1.0-141.0-0.0","0","0","50495","","null","","","null","15","","","","","","","","","","","","","","","",""
"","ITI","","html-keyboard-response","114","286283","0.0-1.0-144.0","0","0","50495","","null","","","null","15","","","","","","","","","","","","","","","NaN",""
"","S1","","html-keyboard-response","115","286434","0.0-1.0-146.0","0","0","50495","","null","","","null","16","","","","","","","","","","","","","","","",""
"","ISI","","html-keyboard-response","116","288437","0.0-1.0-147.0","0","0","50495","","null","","","null","16","NaN","","","","","","","","","","","","","","",""
"","S2","","html-keyboard-response","117","288589","0.0-1.0-148.0","0","0","50495","","null","","","null","16","","NaN","","","","","","","","","","","","","",""
"","response","","html-keyboard-response","118","289181","0.0-1.0-149.0-0.0","0","0","50495","","590","","","68","16","","","1","16","training","adjacent","DE","4","5","Q.jpg","N.jpg","0","1","0","",""
"","feedback","","html-keyboard-response","119","290183","0.0-1.0-150.0-0.0","0","0","50495","","null","","","null","16","","","","","","","","","","","","","","","",""
"","time_out","","html-keyboard-response","120","292185","0.0-1.0-152.0-0.0","0","0","50495","","null","","","null","16","","","","","","","","","","","","","","","",""
"","ITI","","html-keyboard-response","121","293187","0.0-1.0-153.0","0","0","50495","","null","","","null","16","","","","","","","","","","","","","","","NaN",""
"","S1","","html-keyboard-response","122","293340","0.0-1.0-155.0","0","0","50495","","null","","","null","17","","","","","","","","","","","","","","","",""
"","ISI","","html-keyboard-response","123","295342","0.0-1.0-156.0","0","0","50495","","null","","","null","17","NaN","","","","","","","","","","","","","","",""
"","S2","","html-keyboard-response","124","295494","0.0-1.0-157.0","0","0","50495","","null","","","null","17","","NaN","","","","","","","","","","","","","",""
"","response","","html-keyboard-response","125","296463","0.0-1.0-158.0-0.0","0","0","50495","","969","","","68","17","","","1","17","training","adjacent","BC","2","3","O.jpg","M.jpg","0","1","0","",""
"","feedback","","html-keyboard-response","126","297465","0.0-1.0-159.0-0.0","0","0","50495","","null","","","null","17","","","","","","","","","","","","","","","",""
"","time_out","","html-keyboard-response","127","299468","0.0-1.0-161.0-0.0","0","0","50495","","null","","","null","17","","","","","","","","","","","","","","","",""
"","ITI","","html-keyboard-response","128","300470","0.0-1.0-162.0","0","0","50495","","null","","","null","17","","","","","","","","","","","","","","","NaN",""
"","S1","","html-keyboard-response","129","300622","0.0-1.0-164.0","0","0","50495","","null","","","null","18","","","","","","","","","","","","","","","",""
"","ISI","","html-keyboard-response","130","302623","0.0-1.0-165.0","0","0","50495","","null","","","null","18","NaN","","","","","","","","","","","","","","",""
"","S2","","html-keyboard-response","131","302775","0.0-1.0-166.0","0","0","50495","","null","","","null","18","","NaN","","","","","","","","","","","","","",""
"","response","","html-keyboard-response","132","303126","0.0-1.0-167.0-0.0","0","0","50495","","350","","","75","18","","","1","18","training","adjacent","FE","6","5","P.jpg","N.jpg","1","0","0","",""
"","feedback","","html-keyboard-response","133","304128","0.0-1.0-168.0-0.0","0","0","50495","","null","","","null","18","","","","","","","","","","","","","","","",""
"","time_out","","html-keyboard-response","134","306130","0.0-1.0-170.0-0.0","0","0","50495","","null","","","null","18","","","","","","","","","","","","","","","",""
"","ITI","","html-keyboard-response","135","307132","0.0-1.0-171.0","0","0","50495","","null","","","null","18","","","","","","","","","","","","","","","NaN",""
"","S1","","html-keyboard-response","136","307283","0.0-1.0-173.0","0","0","50495","","null","","","null","19","","","","","","","","","","","","","","","",""
"","ISI","","html-keyboard-response","137","309286","0.0-1.0-174.0","0","0","50495","","null","","","null","19","NaN","","","","","","","","","","","","","","",""
"","S2","","html-keyboard-response","138","309439","0.0-1.0-175.0","0","0","50495","","null","","","null","19","","NaN","","","","","","","","","","","","","",""
"","response","","html-keyboard-response","139","309717","0.0-1.0-176.0-0.0","0","0","50495","","277","","","75","19","","","1","19","training","adjacent","DC","4","3","Q.jpg","M.jpg","1","0","0","",""
"","feedback","","html-keyboard-response","140","310720","0.0-1.0-177.0-0.0","0","0","50495","","null","","","null","19","","","","","","","","","","","","","","","",""
"","time_out","","html-keyboard-response","141","312722","0.0-1.0-179.0-0.0","0","0","50495","","null","","","null","19","","","","","","","","","","","","","","","",""
"","ITI","","html-keyboard-response","142","313723","0.0-1.0-180.0","0","0","50495","","null","","","null","19","","","","","","","","","","","","","","","NaN",""
"","S1","","html-keyboard-response","143","313874","0.0-1.0-182.0","0","0","50495","","null","","","null","20","","","","","","","","","","","","","","","",""
"","ISI","","html-keyboard-response","144","315876","0.0-1.0-183.0","0","0","50495","","null","","","null","20","NaN","","","","","","","","","","","","","","",""
"","S2","","html-keyboard-response","145","316027","0.0-1.0-184.0","0","0","50495","","null","","","null","20","","NaN","","","","","","","","","","","","","",""
"","response","","html-keyboard-response","146","316244","0.0-1.0-185.0-0.0","0","0","50495","","216","","","75","20","","","1","20","training","adjacent","CD","3","4","M.jpg","Q.jpg","1","1","1","",""
"","feedback","","html-keyboard-response","147","317245","0.0-1.0-186.0-0.0","0","0","50495","","null","","","null","20","","","","","","","","","","","","","","","",""
"","ITI","","html-keyboard-response","148","318248","0.0-1.0-189.0","0","0","50495","","null","","","null","20","","","","","","","","","","","","","","","NaN",""
"","S1","","html-keyboard-response","149","318401","0.0-1.0-191.0","0","0","50495","","null","","","null","21","","","","","","","","","","","","","","","",""
"","ISI","","html-keyboard-response","150","320403","0.0-1.0-192.0","0","0","50495","","null","","","null","21","NaN","","","","","","","","","","","","","","",""
"","S2","","html-keyboard-response","151","320554","0.0-1.0-193.0","0","0","50495","","null","","","null","21","","NaN","","","","","","","","","","","","","",""
"","response","","html-keyboard-response","152","321128","0.0-1.0-194.0-0.0","0","0","50495","","573","","","75","21","","","1","21","training","adjacent","GF","7","6","L.jpg","P.jpg","1","0","0","",""
"","feedback","","html-keyboard-response","153","322131","0.0-1.0-195.0-0.0","0","0","50495","","null","","","null","21","","","","","","","","","","","","","","","",""
"","time_out","","html-keyboard-response","154","324132","0.0-1.0-197.0-0.0","0","0","50495","","null","","","null","21","","","","","","","","","","","","","","","",""
"","ITI","","html-keyboard-response","155","325134","0.0-1.0-198.0","0","0","50495","","null","","","null","21","","","","","","","","","","","","","","","NaN",""
"","S1","","html-keyboard-response","156","325285","0.0-1.0-200.0","0","0","50495","","null","","","null","22","","","","","","","","","","","","","","","",""
"","ISI","","html-keyboard-response","157","327287","0.0-1.0-201.0","0","0","50495","","null","","","null","22","NaN","","","","","","","","","","","","","","",""
"","S2","","html-keyboard-response","158","327439","0.0-1.0-202.0","0","0","50495","","null","","","null","22","","NaN","","","","","","","","","","","","","",""
"","response","","html-keyboard-response","159","328030","0.0-1.0-203.0-0.0","0","0","50495","","589","","","75","22","","","1","22","training","adjacent","DC","4","3","Q.jpg","M.jpg","1","0","0","",""
"","feedback","","html-keyboard-response","160","329031","0.0-1.0-204.0-0.0","0","0","50495","","null","","","null","22","","","","","","","","","","","","","","","",""
"","time_out","","html-keyboard-response","161","331034","0.0-1.0-206.0-0.0","0","0","50495","","null","","","null","22","","","","","","","","","","","","","","","",""
"","ITI","","html-keyboard-response","162","332036","0.0-1.0-207.0","0","0","50495","","null","","","null","22","","","","","","","","","","","","","","","NaN",""
"","S1","","html-keyboard-response","163","332187","0.0-1.0-209.0","0","0","50495","","null","","","null","23","","","","","","","","","","","","","","","",""
"","ISI","","html-keyboard-response","164","334189","0.0-1.0-210.0","0","0","50495","","null","","","null","23","NaN","","","","","","","","","","","","","","",""
"","S2","","html-keyboard-response","165","334341","0.0-1.0-211.0","0","0","50495","","null","","","null","23","","NaN","","","","","","","","","","","","","",""
"","response","","html-keyboard-response","166","335269","0.0-1.0-212.0-0.0","0","0","50495","","927","","","68","23","","","1","23","training","adjacent","BA","2","1","O.jpg","R.jpg","0","0","1","",""
"","feedback","","html-keyboard-response","167","336271","0.0-1.0-213.0-0.0","0","0","50495","","null","","","null","23","","","","","","","","","","","","","","","",""
"","ITI","","html-keyboard-response","168","337273","0.0-1.0-216.0","0","0","50495","","null","","","null","23","","","","","","","","","","","","","","","NaN",""
"","S1","","html-keyboard-response","169","337426","0.0-1.0-218.0","0","0","50495","","null","","","null","24","","","","","","","","","","","","","","","",""
"","ISI","","html-keyboard-response","170","339428","0.0-1.0-219.0","0","0","50495","","null","","","null","24","NaN","","","","","","","","","","","","","","",""
"","S2","","html-keyboard-response","171","339580","0.0-1.0-220.0","0","0","50495","","null","","","null","24","","NaN","","","","","","","","","","","","","",""
"","response","","html-keyboard-response","172","340623","0.0-1.0-221.0-0.0","0","0","50495","","1043","","","68","24","","","1","24","training","adjacent","CD","3","4","M.jpg","Q.jpg","0","1","0","",""
"","feedback","","html-keyboard-response","173","341626","0.0-1.0-222.0-0.0","0","0","50495","","null","","","null","24","","","","","","","","","","","","","","","",""
"","time_out","","html-keyboard-response","174","343628","0.0-1.0-224.0-0.0","0","0","50495","","null","","","null","24","","","","","","","","","","","","","","","",""
"","ITI","","html-keyboard-response","175","344630","0.0-1.0-225.0","0","0","50495","","null","","","null","24","","","","","","","","","","","","","","","NaN",""
"","S1","","html-keyboard-response","176","344782","0.0-1.0-227.0","0","0","50495","","null","","","null","25","","","","","","","","","","","","","","","",""
"","ISI","","html-keyboard-response","177","346783","0.0-1.0-228.0","0","0","50495","","496","","","75","25","k","","","","","","","","","","","","","","",""
"","S2","","html-keyboard-response","178","346936","0.0-1.0-229.0","0","0","50495","","null","","","null","25","","NaN","","","","","","","","","","","","","",""
"","response","","html-keyboard-response","179","347439","0.0-1.0-230.0-0.0","0","0","50495","","502","","","75","25","","","1","25","training","adjacent","DE","4","5","Q.jpg","N.jpg","1","1","1","",""
"","feedback","","html-keyboard-response","180","348440","0.0-1.0-231.0-0.0","0","0","50495","","null","","","null","25","","","","","","","","","","","","","","","",""
"","ITI","","html-keyboard-response","181","349442","0.0-1.0-234.0","0","0","50495","","null","","","null","25","","","","","","","","","","","","","","","NaN",""
"","S1","","html-keyboard-response","182","349594","0.0-1.0-236.0","0","0","50495","","null","","","null","26","","","","","","","","","","","","","","","",""
"","ISI","","html-keyboard-response","183","351596","0.0-1.0-237.0","0","0","50495","","null","","","null","26","NaN","","","","","","","","","","","","","","",""
"","S2","","html-keyboard-response","184","351749","0.0-1.0-238.0","0","0","50495","","null","","","null","26","","NaN","","","","","","","","","","","","","",""
"","response","","html-keyboard-response","185","352876","0.0-1.0-239.0-0.0","0","0","50495","","1126","","","68","26","","","1","26","training","adjacent","GF","7","6","L.jpg","P.jpg","0","0","1","",""
"","feedback","","html-keyboard-response","186","353878","0.0-1.0-240.0-0.0","0","0","50495","","null","","","null","26","","","","","","","","","","","","","","","",""
"","ITI","","html-keyboard-response","187","354879","0.0-1.0-243.0","0","0","50495","","null","","","null","26","","","","","","","","","","","","","","","NaN",""
"","S1","","html-keyboard-response","188","355031","0.0-1.0-245.0","0","0","50495","","null","","","null","27","","","","","","","","","","","","","","","",""
"","ISI","","html-keyboard-response","189","357034","0.0-1.0-246.0","0","0","50495","","null","","","null","27","NaN","","","","","","","","","","","","","","",""
"","S2","","html-keyboard-response","190","357186","0.0-1.0-247.0","0","0","50495","","null","","","null","27","","NaN","","","","","","","","","","","","","",""
"","response","","html-keyboard-response","191","358485","0.0-1.0-248.0-0.0","0","0","50495","","1298","","","68","27","","","1","27","training","adjacent","BC","2","3","O.jpg","M.jpg","0","1","0","",""
"","feedback","","html-keyboard-response","192","359487","0.0-1.0-249.0-0.0","0","0","50495","","null","","","null","27","","","","","","","","","","","","","","","",""
"","time_out","","html-keyboard-response","193","361489","0.0-1.0-251.0-0.0","0","0","50495","","null","","","null","27","","","","","","","","","","","","","","","",""
"","ITI","","html-keyboard-response","194","362492","0.0-1.0-252.0","0","0","50495","","null","","","null","27","","","","","","","","","","","","","","","NaN",""
"","S1","","html-keyboard-response","195","362643","0.0-1.0-254.0","0","0","50495","","null","","","null","28","","","","","","","","","","","","","","","",""
"","ISI","","html-keyboard-response","196","364645","0.0-1.0-255.0","0","0","50495","","null","","","null","28","NaN","","","","","","","","","","","","","","",""
"","S2","","html-keyboard-response","197","364798","0.0-1.0-256.0","0","0","50495","","null","","","null","28","","NaN","","","","","","","","","","","","","",""
"","response","","html-keyboard-response","198","365438","0.0-1.0-257.0-0.0","0","0","50495","","639","","","75","28","","","1","28","training","adjacent","FG","6","7","P.jpg","L.jpg","1","1","1","",""
"","feedback","","html-keyboard-response","199","366440","0.0-1.0-258.0-0.0","0","0","50495","","null","","","null","28","","","","","","","","","","","","","","","",""
"","ITI","","html-keyboard-response","200","367455","0.0-1.0-261.0","0","0","50495","","null","","","null","28","","","","","","","","","","","","","","","NaN",""
"","S1","","html-keyboard-response","201","367608","0.0-1.0-263.0","0","0","50495","","null","","","null","29","","","","","","","","","","","","","","","",""
"","ISI","","html-keyboard-response","202","369609","0.0-1.0-264.0","0","0","50495","","null","","","null","29","NaN","","","","","","","","","","","","","","",""
"","S2","","html-keyboard-response","203","369762","0.0-1.0-265.0","0","0","50495","","null","","","null","29","","NaN","","","","","","","","","","","","","",""
"","response","","html-keyboard-response","204","370984","0.0-1.0-266.0-0.0","0","0","50495","","1222","","","75","29","","","1","29","training","adjacent","CD","3","4","M.jpg","Q.jpg","1","1","1","",""
"","feedback","","html-keyboard-response","205","371985","0.0-1.0-267.0-0.0","0","0","50495","","null","","","null","29","","","","","","","","","","","","","","","",""
"","ITI","","html-keyboard-response","206","372988","0.0-1.0-270.0","0","0","50495","","null","","","null","29","","","","","","","","","","","","","","","NaN",""
"","S1","","html-keyboard-response","207","373140","0.0-1.0-272.0","0","0","50495","","null","","","null","30","","","","","","","","","","","","","","","",""
"","ISI","","html-keyboard-response","208","375140","0.0-1.0-273.0","0","0","50495","","null","","","null","30","NaN","","","","","","","","","","","","","","",""
"","S2","","html-keyboard-response","209","375291","0.0-1.0-274.0","0","0","50495","","null","","","null","30","","NaN","","","","","","","","","","","","","",""
"","response","","html-keyboard-response","210","376470","0.0-1.0-275.0-0.0","0","0","50495","","1178","","","68","30","","","1","30","training","adjacent","CB","3","2","M.jpg","O.jpg","0","0","1","",""
"","feedback","","html-keyboard-response","211","377473","0.0-1.0-276.0-0.0","0","0","50495","","null","","","null","30","","","","","","","","","","","","","","","",""
"","ITI","","html-keyboard-response","212","378474","0.0-1.0-279.0","0","0","50495","","null","","","null","30","","","","","","","","","","","","","","","NaN",""
"","S1","","html-keyboard-response","213","378626","0.0-1.0-281.0","0","0","50495","","null","","","null","31","","","","","","","","","","","","","","","",""
"","ISI","","html-keyboard-response","214","380629","0.0-1.0-282.0","0","0","50495","","null","","","null","31","NaN","","","","","","","","","","","","","","",""
"","S2","","html-keyboard-response","215","380781","0.0-1.0-283.0","0","0","50495","","null","","","null","31","","NaN","","","","","","","","","","","","","",""
"","response","","html-keyboard-response","216","381894","0.0-1.0-284.0-0.0","0","0","50495","","1113","","","68","31","","","1","31","training","adjacent","EF","5","6","N.jpg","P.jpg","0","1","0","",""
"","feedback","","html-keyboard-response","217","382896","0.0-1.0-285.0-0.0","0","0","50495","","null","","","null","31","","","","","","","","","","","","","","","",""
"","time_out","","html-keyboard-response","218","384898","0.0-1.0-287.0-0.0","0","0","50495","","null","","","null","31","","","","","","","","","","","","","","","",""
"","ITI","","html-keyboard-response","219","385900","0.0-1.0-288.0","0","0","50495","","null","","","null","31","","","","","","","","","","","","","","","NaN",""
"","S1","","html-keyboard-response","220","386053","0.0-1.0-290.0","0","0","50495","","null","","","null","32","","","","","","","","","","","","","","","",""
"","ISI","","html-keyboard-response","221","388055","0.0-1.0-291.0","0","0","50495","","null","","","null","32","NaN","","","","","","","","","","","","","","",""
"","S2","","html-keyboard-response","222","388207","0.0-1.0-292.0","0","0","50495","","null","","","null","32","","NaN","","","","","","","","","","","","","",""
"","response","","html-keyboard-response","223","388771","0.0-1.0-293.0-0.0","0","0","50495","","563","","","75","32","","","1","32","training","adjacent","AB","1","2","R.jpg","O.jpg","1","1","1","",""
"","feedback","","html-keyboard-response","224","389777","0.0-1.0-294.0-0.0","0","0","50495","","null","","","null","32","","","","","","","","","","","","","","","",""
"","ITI","","html-keyboard-response","225","390779","0.0-1.0-297.0","0","0","50495","","null","","","null","32","","","","","","","","","","","","","","","NaN",""
"","S1","","html-keyboard-response","226","390931","0.0-1.0-299.0","0","0","50495","","null","","","null","33","","","","","","","","","","","","","","","",""
"","ISI","","html-keyboard-response","227","392933","0.0-1.0-300.0","0","0","50495","","null","","","null","33","NaN","","","","","","","","","","","","","","",""
"","S2","","html-keyboard-response","228","393086","0.0-1.0-301.0","0","0","50495","","null","","","null","33","","NaN","","","","","","","","","","","","","",""
"","response","","html-keyboard-response","229","393418","0.0-1.0-302.0-0.0","0","0","50495","","331","","","68","33","","","1","33","training","adjacent","GF","7","6","L.jpg","P.jpg","0","0","1","",""
"","feedback","","html-keyboard-response","230","394420","0.0-1.0-303.0-0.0","0","0","50495","","null","","","null","33","","","","","","","","","","","","","","","",""
"","ITI","","html-keyboard-response","231","395423","0.0-1.0-306.0","0","0","50495","","null","","","null","33","","","","","","","","","","","","","","","NaN",""
"","S1","","html-keyboard-response","232","395576","0.0-1.0-308.0","0","0","50495","","null","","","null","34","","","","","","","","","","","","","","","",""
"","ISI","","html-keyboard-response","233","397577","0.0-1.0-309.0","0","0","50495","","null","","","null","34","NaN","","","","","","","","","","","","","","",""
"","S2","","html-keyboard-response","234","397729","0.0-1.0-310.0","0","0","50495","","null","","","null","34","","NaN","","","","","","","","","","","","","",""
"","response","","html-keyboard-response","235","398764","0.0-1.0-311.0-0.0","0","0","50495","","1035","","","68","34","","","1","34","training","adjacent","EF","5","6","N.jpg","P.jpg","0","1","0","",""
"","feedback","","html-keyboard-response","236","399766","0.0-1.0-312.0-0.0","0","0","50495","","null","","","null","34","","","","","","","","","","","","","","","",""
"","time_out","","html-keyboard-response","237","401768","0.0-1.0-314.0-0.0","0","0","50495","","null","","","null","34","","","","","","","","","","","","","","","",""
"","ITI","","html-keyboard-response","238","402769","0.0-1.0-315.0","0","0","50495","","null","","","null","34","","","","","","","","","","","","","","","NaN",""
"","S1","","html-keyboard-response","239","402921","0.0-1.0-317.0","0","0","50495","","null","","","null","35","","","","","","","","","","","","","","","",""
"","ISI","","html-keyboard-response","240","404922","0.0-1.0-318.0","0","0","50495","","null","","","null","35","NaN","","","","","","","","","","","","","","",""
"","S2","","html-keyboard-response","241","405074","0.0-1.0-319.0","0","0","50495","","null","","","null","35","","NaN","","","","","","","","","","","","","",""
"","response","","html-keyboard-response","242","406607","0.0-1.0-320.0-0.0","0","0","50495","","1532","","","75","35","","","1","35","training","adjacent","AB","1","2","R.jpg","O.jpg","1","1","1","",""
"","feedback","","html-keyboard-response","243","407609","0.0-1.0-321.0-0.0","0","0","50495","","null","","","null","35","","","","","","","","","","","","","","","",""
"","ITI","","html-keyboard-response","244","408611","0.0-1.0-324.0","0","0","50495","","null","","","null","35","","","","","","","","","","","","","","","NaN",""
"","S1","","html-keyboard-response","245","408763","0.0-1.0-326.0","0","0","50495","","null","","","null","36","","","","","","","","","","","","","","","",""
"","ISI","","html-keyboard-response","246","410765","0.0-1.0-327.0","0","0","50495","","null","","","null","36","NaN","","","","","","","","","","","","","","",""
"","S2","","html-keyboard-response","247","410917","0.0-1.0-328.0","0","0","50495","","null","","","null","36","","NaN","","","","","","","","","","","","","",""
"","response","","html-keyboard-response","248","411403","0.0-1.0-329.0-0.0","0","0","50495","","486","","","75","36","","","1","36","training","adjacent","BC","2","3","O.jpg","M.jpg","1","1","1","",""
"","feedback","","html-keyboard-response","249","412406","0.0-1.0-330.0-0.0","0","0","50495","","null","","","null","36","","","","","","","","","","","","","","","",""
"","ITI","","html-keyboard-response","250","413407","0.0-1.0-333.0","0","0","50495","","null","","","null","36","","","","","","","","","","","","","","","NaN",""
"","S1","","html-keyboard-response","251","413559","0.0-1.0-335.0","0","0","50495","","null","","","null","37","","","","","","","","","","","","","","","",""
"","ISI","","html-keyboard-response","252","415561","0.0-1.0-336.0","0","0","50495","","null","","","null","37","NaN","","","","","","","","","","","","","","",""
"","S2","","html-keyboard-response","253","415715","0.0-1.0-337.0","0","0","50495","","null","","","null","37","","NaN","","","","","","","","","","","","","",""
"","response","","html-keyboard-response","254","416659","0.0-1.0-338.0-0.0","0","0","50495","","944","","","68","37","","","1","37","training","adjacent","CB","3","2","M.jpg","O.jpg","0","0","1","",""
"","feedback","","html-keyboard-response","255","417662","0.0-1.0-339.0-0.0","0","0","50495","","null","","","null","37","","","","","","","","","","","","","","","",""
"","ITI","","html-keyboard-response","256","418664","0.0-1.0-342.0","0","0","50495","","null","","","null","37","","","","","","","","","","","","","","","NaN",""
"","S1","","html-keyboard-response","257","418817","0.0-1.0-344.0","0","0","50495","","null","","","null","38","","","","","","","","","","","","","","","",""
"","ISI","","html-keyboard-response","258","420818","0.0-1.0-345.0","0","0","50495","","null","","","null","38","NaN","","","","","","","","","","","","","","",""
"","S2","","html-keyboard-response","259","420969","0.0-1.0-346.0","0","0","50495","","null","","","null","38","","NaN","","","","","","","","","","","","","",""
"","response","","html-keyboard-response","260","421586","0.0-1.0-347.0-0.0","0","0","50495","","615","","","75","38","","","1","38","training","adjacent","ED","5","4","N.jpg","Q.jpg","1","0","0","",""
"","feedback","","html-keyboard-response","261","422589","0.0-1.0-348.0-0.0","0","0","50495","","null","","","null","38","","","","","","","","","","","","","","","",""
"","time_out","","html-keyboard-response","262","424591","0.0-1.0-350.0-0.0","0","0","50495","","null","","","null","38","","","","","","","","","","","","","","","",""
"","ITI","","html-keyboard-response","263","425592","0.0-1.0-351.0","0","0","50495","","null","","","null","38","","","","","","","","","","","","","","","NaN",""
"","S1","","html-keyboard-response","264","425745","0.0-1.0-353.0","0","0","50495","","null","","","null","39","","","","","","","","","","","","","","","",""
"","ISI","","html-keyboard-response","265","427747","0.0-1.0-354.0","0","0","50495","","null","","","null","39","NaN","","","","","","","","","","","","","","",""
"","S2","","html-keyboard-response","266","427899","0.0-1.0-355.0","0","0","50495","","null","","","null","39","","NaN","","","","","","","","","","","","","",""
"","response","","html-keyboard-response","267","428975","0.0-1.0-356.0-0.0","0","0","50495","","1075","","","75","39","","","1","39","training","adjacent","FG","6","7","P.jpg","L.jpg","1","1","1","",""
"","feedback","","html-keyboard-response","268","429976","0.0-1.0-357.0-0.0","0","0","50495","","null","","","null","39","","","","","","","","","","","","","","","",""
"","ITI","","html-keyboard-response","269","430979","0.0-1.0-360.0","0","0","50495","","null","","","null","39","","","","","","","","","","","","","","","NaN",""
"","S1","","html-keyboard-response","270","431130","0.0-1.0-362.0","0","0","50495","","null","","","null","40","","","","","","","","","","","","","","","",""
"","ISI","","html-keyboard-response","271","433132","0.0-1.0-363.0","0","0","50495","","null","","","null","40","NaN","","","","","","","","","","","","","","",""
"","S2","","html-keyboard-response","272","433284","0.0-1.0-364.0","0","0","50495","","null","","","null","40","","NaN","","","","","","","","","","","","","",""
"","response","","html-keyboard-response","273","434311","0.0-1.0-365.0-0.0","0","0","50495","","1025","","","75","40","","","1","40","training","adjacent","FE","6","5","P.jpg","N.jpg","1","0","0","",""
"","feedback","","html-keyboard-response","274","435313","0.0-1.0-366.0-0.0","0","0","50495","","null","","","null","40","","","","","","","","","","","","","","","",""
"","time_out","","html-keyboard-response","275","437314","0.0-1.0-368.0-0.0","0","0","50495","","null","","","null","40","","","","","","","","","","","","","","","",""
"","ITI","","html-keyboard-response","276","438316","0.0-1.0-369.0","0","0","50495","","null","","","null","40","","","","","","","","","","","","","","","NaN",""
"","S1","","html-keyboard-response","277","438468","0.0-1.0-371.0","0","0","50495","","null","","","null","41","","","","","","","","","","","","","","","",""
"","ISI","","html-keyboard-response","278","440469","0.0-1.0-372.0","0","0","50495","","null","","","null","41","NaN","","","","","","","","","","","","","","",""
"","S2","","html-keyboard-response","279","440622","0.0-1.0-373.0","0","0","50495","","null","","","null","41","","NaN","","","","","","","","","","","","","",""
"","response","","html-keyboard-response","280","441482","0.0-1.0-374.0-0.0","0","0","50495","","859","","","68","41","","","1","41","training","adjacent","GF","7","6","L.jpg","P.jpg","0","0","1","",""
"","feedback","","html-keyboard-response","281","442484","0.0-1.0-375.0-0.0","0","0","50495","","null","","","null","41","","","","","","","","","","","","","","","",""
"","ITI","","html-keyboard-response","282","443486","0.0-1.0-378.0","0","0","50495","","null","","","null","41","","","","","","","","","","","","","","","NaN",""
"","S1","","html-keyboard-response","283","443638","0.0-1.0-380.0","0","0","50495","","null","","","null","42","","","","","","","","","","","","","","","",""
"","ISI","","html-keyboard-response","284","445639","0.0-1.0-381.0","0","0","50495","","null","","","null","42","NaN","","","","","","","","","","","","","","",""
"","S2","","html-keyboard-response","285","445801","0.0-1.0-382.0","0","0","50495","","null","","","null","42","","NaN","","","","","","","","","","","","","",""
"","response","","html-keyboard-response","286","446593","0.0-1.0-383.0-0.0","0","0","50495","","790","","","75","42","","","1","42","training","adjacent","FE","6","5","P.jpg","N.jpg","1","0","0","",""
"","feedback","","html-keyboard-response","287","447594","0.0-1.0-384.0-0.0","0","0","50495","","null","","","null","42","","","","","","","","","","","","","","","",""
"","time_out","","html-keyboard-response","288","449597","0.0-1.0-386.0-0.0","0","0","50495","","null","","","null","42","","","","","","","","","","","","","","","",""
"","ITI","","html-keyboard-response","289","450599","0.0-1.0-387.0","0","0","50495","","null","","","null","42","","","","","","","","","","","","","","","NaN",""
"","S1","","html-keyboard-response","290","450750","0.0-1.0-389.0","0","0","50495","","null","","","null","43","","","","","","","","","","","","","","","",""
"","ISI","","html-keyboard-response","291","452752","0.0-1.0-390.0","0","0","50495","","null","","","null","43","NaN","","","","","","","","","","","","","","",""
"","S2","","html-keyboard-response","292","452904","0.0-1.0-391.0","0","0","50495","","null","","","null","43","","NaN","","","","","","","","","","","","","",""
"","response","","html-keyboard-response","293","453369","0.0-1.0-392.0-0.0","0","0","50495","","464","","","75","43","","","1","43","training","adjacent","DC","4","3","Q.jpg","M.jpg","1","0","0","",""
"","feedback","","html-keyboard-response","294","454370","0.0-1.0-393.0-0.0","0","0","50495","","null","","","null","43","","","","","","","","","","","","","","","",""
"","time_out","","html-keyboard-response","295","456372","0.0-1.0-395.0-0.0","0","0","50495","","null","","","null","43","","","","","","","","","","","","","","","",""
"","ITI","","html-keyboard-response","296","457375","0.0-1.0-396.0","0","0","50495","","null","","","null","43","","","","","","","","","","","","","","","NaN",""
"","S1","","html-keyboard-response","297","457527","0.0-1.0-398.0","0","0","50495","","null","","","null","44","","","","","","","","","","","","","","","",""
"","ISI","","html-keyboard-response","298","459529","0.0-1.0-399.0","0","0","50495","","null","","","null","44","NaN","","","","","","","","","","","","","","",""
"","S2","","html-keyboard-response","299","459681","0.0-1.0-400.0","0","0","50495","","null","","","null","44","","NaN","","","","","","","","","","","","","",""
"","response","","html-keyboard-response","300","460147","0.0-1.0-401.0-0.0","0","0","50495","","464","","","75","44","","","1","44","training","adjacent","AB","1","2","R.jpg","O.jpg","1","1","1","",""
"","feedback","","html-keyboard-response","301","461150","0.0-1.0-402.0-0.0","0","0","50495","","null","","","null","44","","","","","","","","","","","","","","","",""
"","ITI","","html-keyboard-response","302","462153","0.0-1.0-405.0","0","0","50495","","null","","","null","44","","","","","","","","","","","","","","","NaN",""
"","S1","","html-keyboard-response","303","462306","0.0-1.0-407.0","0","0","50495","","null","","","null","45","","","","","","","","","","","","","","","",""
"","ISI","","html-keyboard-response","304","464307","0.0-1.0-408.0","0","0","50495","","null","","","null","45","NaN","","","","","","","","","","","","","","",""
"","S2","","html-keyboard-response","305","464460","0.0-1.0-409.0","0","0","50495","","null","","","null","45","","NaN","","","","","","","","","","","","","",""
"","response","","html-keyboard-response","306","465409","0.0-1.0-410.0-0.0","0","0","50495","","949","","","68","45","","","1","45","training","adjacent","BA","2","1","O.jpg","R.jpg","0","0","1","",""
"","feedback","","html-keyboard-response","307","466413","0.0-1.0-411.0-0.0","0","0","50495","","null","","","null","45","","","","","","","","","","","","","","","",""
"","ITI","","html-keyboard-response","308","467415","0.0-1.0-414.0","0","0","50495","","null","","","null","45","","","","","","","","","","","","","","","NaN",""
"","S1","","html-keyboard-response","309","467566","0.0-1.0-416.0","0","0","50495","","null","","","null","46","","","","","","","","","","","","","","","",""
"","ISI","","html-keyboard-response","310","469569","0.0-1.0-417.0","0","0","50495","","null","","","null","46","NaN","","","","","","","","","","","","","","",""
"","S2","","html-keyboard-response","311","469721","0.0-1.0-418.0","0","0","50495","","null","","","null","46","","NaN","","","","","","","","","","","","","",""
"","response","","html-keyboard-response","312","470619","0.0-1.0-419.0-0.0","0","0","50495","","896","","","75","46","","","1","46","training","adjacent","BC","2","3","O.jpg","M.jpg","1","1","1","",""
"","feedback","","html-keyboard-response","313","471620","0.0-1.0-420.0-0.0","0","0","50495","","null","","","null","46","","","","","","","","","","","","","","","",""
"","ITI","","html-keyboard-response","314","472621","0.0-1.0-423.0","0","0","50495","","null","","","null","46","","","","","","","","","","","","","","","NaN",""
"","S1","","html-keyboard-response","315","472774","0.0-1.0-425.0","0","0","50495","","null","","","null","47","","","","","","","","","","","","","","","",""
"","ISI","","html-keyboard-response","316","474776","0.0-1.0-426.0","0","0","50495","","null","","","null","47","NaN","","","","","","","","","","","","","","",""
"","S2","","html-keyboard-response","317","474927","0.0-1.0-427.0","0","0","50495","","null","","","null","47","","NaN","","","","","","","","","","","","","",""
"","response","","html-keyboard-response","318","476072","0.0-1.0-428.0-0.0","0","0","50495","","1143","","","68","47","","","1","47","training","adjacent","DE","4","5","Q.jpg","N.jpg","0","1","0","",""
"","feedback","","html-keyboard-response","319","477074","0.0-1.0-429.0-0.0","0","0","50495","","null","","","null","47","","","","","","","","","","","","","","","",""
"","time_out","","html-keyboard-response","320","479077","0.0-1.0-431.0-0.0","0","0","50495","","null","","","null","47","","","","","","","","","","","","","","","",""
"","ITI","","html-keyboard-response","321","480079","0.0-1.0-432.0","0","0","50495","","null","","","null","47","","","","","","","","","","","","","","","NaN",""
"","block_over","","html-keyboard-response","322","515362","0.0-1.0-433.0-0.0","0","0","50495","","35282","","","32","47","","","","","","","","","","","","","","","",""
"","S1","","html-keyboard-response","323","515514","0.0-1.0-434.0","0","0","50495","","null","","","null","48","","","","","","","","","","","","","","","",""
"","ISI","","html-keyboard-response","324","517517","0.0-1.0-435.0","0","0","50495","","null","","","null","48","NaN","","","","","","","","","","","","","","",""
"","S2","","html-keyboard-response","325","517669","0.0-1.0-436.0","0","0","50495","","null","","","null","48","","NaN","","","","","","","","","","","","","",""
"","response","","html-keyboard-response","326","518649","0.0-1.0-437.0-0.0","0","0","50495","","980","","","75","48","","","2","48","training","adjacent","ED","5","4","N.jpg","Q.jpg","1","0","0","",""
"","feedback","","html-keyboard-response","327","519652","0.0-1.0-438.0-0.0","0","0","50495","","null","","","null","48","","","","","","","","","","","","","","","",""
"","time_out","","html-keyboard-response","328","521654","0.0-1.0-440.0-0.0","0","0","50495","","null","","","null","48","","","","","","","","","","","","","","","",""
"","ITI","","html-keyboard-response","329","522656","0.0-1.0-441.0","0","0","50495","","null","","","null","48","","","","","","","","","","","","","","","NaN",""
"","S1","","html-keyboard-response","330","522809","0.0-1.0-443.0","0","0","50495","","null","","","null","49","","","","","","","","","","","","","","","",""
"","ISI","","html-keyboard-response","331","524811","0.0-1.0-444.0","0","0","50495","","null","","","null","49","NaN","","","","","","","","","","","","","","",""
"","S2","","html-keyboard-response","332","524964","0.0-1.0-445.0","0","0","50495","","null","","","null","49","","NaN","","","","","","","","","","","","","",""
"","response","","html-keyboard-response","333","526140","0.0-1.0-446.0-0.0","0","0","50495","","1175","","","75","49","","","2","49","training","adjacent","FE","6","5","P.jpg","N.jpg","1","0","0","",""
"","feedback","","html-keyboard-response","334","527143","0.0-1.0-447.0-0.0","0","0","50495","","null","","","null","49","","","","","","","","","","","","","","","",""
"","time_out","","html-keyboard-response","335","529145","0.0-1.0-449.0-0.0","0","0","50495","","null","","","null","49","","","","","","","","","","","","","","","",""
"","ITI","","html-keyboard-response","336","530146","0.0-1.0-450.0","0","0","50495","","null","","","null","49","","","","","","","","","","","","","","","NaN",""
"","S1","","html-keyboard-response","337","530298","0.0-1.0-452.0","0","0","50495","","null","","","null","50","","","","","","","","","","","","","","","",""
"","ISI","","html-keyboard-response","338","532300","0.0-1.0-453.0","0","0","50495","","null","","","null","50","NaN","","","","","","","","","","","","","","",""
"","S2","","html-keyboard-response","339","532452","0.0-1.0-454.0","0","0","50495","","null","","","null","50","","NaN","","","","","","","","","","","","","",""
"","response","","html-keyboard-response","340","533827","0.0-1.0-455.0-0.0","0","0","50495","","1371","","","75","50","","","2","50","training","adjacent","DE","4","5","Q.jpg","N.jpg","1","1","1","",""
"","feedback","","html-keyboard-response","341","534830","0.0-1.0-456.0-0.0","0","0","50495","","null","","","null","50","","","","","","","","","","","","","","","",""
"","ITI","","html-keyboard-response","342","535833","0.0-1.0-459.0","0","0","50495","","null","","","null","50","","","","","","","","","","","","","","","NaN",""
"","S1","","html-keyboard-response","343","535985","0.0-1.0-461.0","0","0","50495","","null","","","null","51","","","","","","","","","","","","","","","",""
"","ISI","","html-keyboard-response","344","537987","0.0-1.0-462.0","0","0","50495","","null","","","null","51","NaN","","","","","","","","","","","","","","",""
"","S2","","html-keyboard-response","345","538140","0.0-1.0-463.0","0","0","50495","","null","","","null","51","","NaN","","","","","","","","","","","","","",""
"","response","","html-keyboard-response","346","539173","0.0-1.0-464.0-0.0","0","0","50495","","1032","","","75","51","","","2","51","training","adjacent","FG","6","7","P.jpg","L.jpg","1","1","1","",""
"","feedback","","html-keyboard-response","347","540175","0.0-1.0-465.0-0.0","0","0","50495","","null","","","null","51","","","","","","","","","","","","","","","",""
"","ITI","","html-keyboard-response","348","541178","0.0-1.0-468.0","0","0","50495","","null","","","null","51","","","","","","","","","","","","","","","NaN",""
"","S1","","html-keyboard-response","349","541330","0.0-1.0-470.0","0","0","50495","","null","","","null","52","","","","","","","","","","","","","","","",""
"","ISI","","html-keyboard-response","350","543332","0.0-1.0-471.0","0","0","50495","","null","","","null","52","NaN","","","","","","","","","","","","","","",""
"","S2","","html-keyboard-response","351","543484","0.0-1.0-472.0","0","0","50495","","null","","","null","52","","NaN","","","","","","","","","","","","","",""
"","response","","html-keyboard-response","352","544669","0.0-1.0-473.0-0.0","0","0","50495","","1185","","","68","52","","","2","52","training","adjacent","CB","3","2","M.jpg","O.jpg","0","0","1","",""
"","feedback","","html-keyboard-response","353","545671","0.0-1.0-474.0-0.0","0","0","50495","","null","","","null","52","","","","","","","","","","","","","","","",""
"","ITI","","html-keyboard-response","354","546673","0.0-1.0-477.0","0","0","50495","","null","","","null","52","","","","","","","","","","","","","","","NaN",""
"","S1","","html-keyboard-response","355","546826","0.0-1.0-479.0","0","0","50495","","null","","","null","53","","","","","","","","","","","","","","","",""
"","ISI","","html-keyboard-response","356","548828","0.0-1.0-480.0","0","0","50495","","null","","","null","53","NaN","","","","","","","","","","","","","","",""
"","S2","","html-keyboard-response","357","548980","0.0-1.0-481.0","0","0","50495","","null","","","null","53","","NaN","","","","","","","","","","","","","",""
"","response","","html-keyboard-response","358","549432","0.0-1.0-482.0-0.0","0","0","50495","","450","","","68","53","","","2","53","training","adjacent","GF","7","6","L.jpg","P.jpg","0","0","1","",""
"","feedback","","html-keyboard-response","359","550443","0.0-1.0-483.0-0.0","0","0","50495","","null","","","null","53","","","","","","","","","","","","","","","",""
"","ITI","","html-keyboard-response","360","551446","0.0-1.0-486.0","0","0","50495","","null","","","null","53","","","","","","","","","","","","","","","NaN",""
"","S1","","html-keyboard-response","361","551599","0.0-1.0-488.0","0","0","50495","","null","","","null","54","","","","","","","","","","","","","","","",""
"","ISI","","html-keyboard-response","362","553601","0.0-1.0-489.0","0","0","50495","","null","","","null","54","NaN","","","","","","","","","","","","","","",""
"","S2","","html-keyboard-response","363","553753","0.0-1.0-490.0","0","0","50495","","null","","","null","54","","NaN","","","","","","","","","","","","","",""
"","response","","html-keyboard-response","364","555356","0.0-1.0-491.0-0.0","0","0","50495","","1602","","","75","54","","","2","54","training","adjacent","CD","3","4","M.jpg","Q.jpg","1","1","1","",""
"","feedback","","html-keyboard-response","365","556359","0.0-1.0-492.0-0.0","0","0","50495","","null","","","null","54","","","","","","","","","","","","","","","",""
"","ITI","","html-keyboard-response","366","557361","0.0-1.0-495.0","0","0","50495","","null","","","null","54","","","","","","","","","","","","","","","NaN",""
"","S1","","html-keyboard-response","367","557514","0.0-1.0-497.0","0","0","50495","","null","","","null","55","","","","","","","","","","","","","","","",""
"","ISI","","html-keyboard-response","368","559525","0.0-1.0-498.0","0","0","50495","","null","","","null","55","NaN","","","","","","","","","","","","","","",""
"","S2","","html-keyboard-response","369","559678","0.0-1.0-499.0","0","0","50495","","null","","","null","55","","NaN","","","","","","","","","","","","","",""
"","response","","html-keyboard-response","370","561213","0.0-1.0-500.0-0.0","0","0","50495","","1534","","","68","55","","","2","55","training","adjacent","CB","3","2","M.jpg","O.jpg","0","0","1","",""
"","feedback","","html-keyboard-response","371","562216","0.0-1.0-501.0-0.0","0","0","50495","","null","","","null","55","","","","","","","","","","","","","","","",""
"","ITI","","html-keyboard-response","372","563218","0.0-1.0-504.0","0","0","50495","","null","","","null","55","","","","","","","","","","","","","","","NaN",""
"","S1","","html-keyboard-response","373","563370","0.0-1.0-506.0","0","0","50495","","null","","","null","56","","","","","","","","","","","","","","","",""
"","ISI","","html-keyboard-response","374","565372","0.0-1.0-507.0","0","0","50495","","null","","","null","56","NaN","","","","","","","","","","","","","","",""
"","S2","","html-keyboard-response","375","565525","0.0-1.0-508.0","0","0","50495","","null","","","null","56","","NaN","","","","","","","","","","","","","",""
"","response","","html-keyboard-response","376","566494","0.0-1.0-509.0-0.0","0","0","50495","","969","","","75","56","","","2","56","training","adjacent","EF","5","6","N.jpg","P.jpg","1","1","1","",""
"","feedback","","html-keyboard-response","377","567496","0.0-1.0-510.0-0.0","0","0","50495","","null","","","null","56","","","","","","","","","","","","","","","",""
"","ITI","","html-keyboard-response","378","568498","0.0-1.0-513.0","0","0","50495","","null","","","null","56","","","","","","","","","","","","","","","NaN",""
"","S1","","html-keyboard-response","379","568651","0.0-1.0-515.0","0","0","50495","","null","","","null","57","","","","","","","","","","","","","","","",""
"","ISI","","html-keyboard-response","380","570653","0.0-1.0-516.0","0","0","50495","","null","","","null","57","NaN","","","","","","","","","","","","","","",""
"","S2","","html-keyboard-response","381","570806","0.0-1.0-517.0","0","0","50495","","null","","","null","57","","NaN","","","","","","","","","","","","","",""
"","response","","html-keyboard-response","382","572109","0.0-1.0-518.0-0.0","0","0","50495","","1302","","","75","57","","","2","57","training","adjacent","EF","5","6","N.jpg","P.jpg","1","1","1","",""
"","feedback","","html-keyboard-response","383","573111","0.0-1.0-519.0-0.0","0","0","50495","","null","","","null","57","","","","","","","","","","","","","","","",""
"","ITI","","html-keyboard-response","384","574114","0.0-1.0-522.0","0","0","50495","","null","","","null","57","","","","","","","","","","","","","","","NaN",""
"","S1","","html-keyboard-response","385","574267","0.0-1.0-524.0","0","0","50495","","null","","","null","58","","","","","","","","","","","","","","","",""
"","ISI","","html-keyboard-response","386","576269","0.0-1.0-525.0","0","0","50495","","null","","","null","58","NaN","","","","","","","","","","","","","","",""
"","S2","","html-keyboard-response","387","576421","0.0-1.0-526.0","0","0","50495","","null","","","null","58","","NaN","","","","","","","","","","","","","",""
"","response","","html-keyboard-response","388","577524","0.0-1.0-527.0-0.0","0","0","50495","","1101","","","68","58","","","2","58","training","adjacent","AB","1","2","R.jpg","O.jpg","0","1","0","",""
"","feedback","","html-keyboard-response","389","578527","0.0-1.0-528.0-0.0","0","0","50495","","null","","","null","58","","","","","","","","","","","","","","","",""
"","time_out","","html-keyboard-response","390","580529","0.0-1.0-530.0-0.0","0","0","50495","","null","","","null","58","","","","","","","","","","","","","","","",""
"","ITI","","html-keyboard-response","391","581531","0.0-1.0-531.0","0","0","50495","","null","","","null","58","","","","","","","","","","","","","","","NaN",""
"","S1","","html-keyboard-response","392","581684","0.0-1.0-533.0","0","0","50495","","null","","","null","59","","","","","","","","","","","","","","","",""
"","ISI","","html-keyboard-response","393","583685","0.0-1.0-534.0","0","0","50495","","null","","","null","59","NaN","","","","","","","","","","","","","","",""
"","S2","","html-keyboard-response","394","583837","0.0-1.0-535.0","0","0","50495","","null","","","null","59","","NaN","","","","","","","","","","","","","",""
"","response","","html-keyboard-response","395","585207","0.0-1.0-536.0-0.0","0","0","50495","","1369","","","68","59","","","2","59","training","adjacent","CD","3","4","M.jpg","Q.jpg","0","1","0","",""
"","feedback","","html-keyboard-response","396","586210","0.0-1.0-537.0-0.0","0","0","50495","","null","","","null","59","","","","","","","","","","","","","","","",""
"","time_out","","html-keyboard-response","397","588212","0.0-1.0-539.0-0.0","0","0","50495","","null","","","null","59","","","","","","","","","","","","","","","",""
"","ITI","","html-keyboard-response","398","589215","0.0-1.0-540.0","0","0","50495","","null","","","null","59","","","","","","","","","","","","","","","NaN",""
"","S1","","html-keyboard-response","399","589367","0.0-1.0-542.0","0","0","50495","","null","","","null","60","","","","","","","","","","","","","","","",""
"","ISI","","html-keyboard-response","400","591369","0.0-1.0-543.0","0","0","50495","","null","","","null","60","NaN","","","","","","","","","","","","","","",""
"","S2","","html-keyboard-response","401","591521","0.0-1.0-544.0","0","0","50495","","null","","","null","60","","NaN","","","","","","","","","","","","","",""
"","response","","html-keyboard-response","402","593117","0.0-1.0-545.0-0.0","0","0","50495","","1596","","","68","60","","","2","60","training","adjacent","BA","2","1","O.jpg","R.jpg","0","0","1","",""
"","feedback","","html-keyboard-response","403","594119","0.0-1.0-546.0-0.0","0","0","50495","","null","","","null","60","","","","","","","","","","","","","","","",""
"","ITI","","html-keyboard-response","404","595121","0.0-1.0-549.0","0","0","50495","","null","","","null","60","","","","","","","","","","","","","","","NaN",""
"","S1","","html-keyboard-response","405","595273","0.0-1.0-551.0","0","0","50495","","null","","","null","61","","","","","","","","","","","","","","","",""
"","ISI","","html-keyboard-response","406","597276","0.0-1.0-552.0","0","0","50495","","null","","","null","61","NaN","","","","","","","","","","","","","","",""
"","S2","","html-keyboard-response","407","597429","0.0-1.0-553.0","0","0","50495","","null","","","null","61","","NaN","","","","","","","","","","","","","",""
"","response","","html-keyboard-response","408","598554","0.0-1.0-554.0-0.0","0","0","50495","","1124","","","75","61","","","2","61","training","adjacent","FG","6","7","P.jpg","L.jpg","1","1","1","",""
"","feedback","","html-keyboard-response","409","599556","0.0-1.0-555.0-0.0","0","0","50495","","null","","","null","61","","","","","","","","","","","","","","","",""
"","ITI","","html-keyboard-response","410","600557","0.0-1.0-558.0","0","0","50495","","null","","","null","61","","","","","","","","","","","","","","","NaN",""
"","S1","","html-keyboard-response","411","600709","0.0-1.0-560.0","0","0","50495","","null","","","null","62","","","","","","","","","","","","","","","",""
"","ISI","","html-keyboard-response","412","602710","0.0-1.0-561.0","0","0","50495","","null","","","null","62","NaN","","","","","","","","","","","","","","",""
"","S2","","html-keyboard-response","413","602864","0.0-1.0-562.0","0","0","50495","","null","","","null","62","","NaN","","","","","","","","","","","","","",""
"","response","","html-keyboard-response","414","604034","0.0-1.0-563.0-0.0","0","0","50495","","1169","","","75","62","","","2","62","training","adjacent","AB","1","2","R.jpg","O.jpg","1","1","1","",""
"","feedback","","html-keyboard-response","415","605036","0.0-1.0-564.0-0.0","0","0","50495","","null","","","null","62","","","","","","","","","","","","","","","",""
"","ITI","","html-keyboard-response","416","606038","0.0-1.0-567.0","0","0","50495","","null","","","null","62","","","","","","","","","","","","","","","NaN",""
"","S1","","html-keyboard-response","417","606190","0.0-1.0-569.0","0","0","50495","","null","","","null","63","","","","","","","","","","","","","","","",""
"","ISI","","html-keyboard-response","418","608192","0.0-1.0-570.0","0","0","50495","","null","","","null","63","NaN","","","","","","","","","","","","","","",""
"","S2","","html-keyboard-response","419","608344","0.0-1.0-571.0","0","0","50495","","null","","","null","63","","NaN","","","","","","","","","","","","","",""
"","response","","html-keyboard-response","420","609815","0.0-1.0-572.0-0.0","0","0","50495","","1470","","","68","63","","","2","63","training","adjacent","DE","4","5","Q.jpg","N.jpg","0","1","0","",""
"","feedback","","html-keyboard-response","421","610817","0.0-1.0-573.0-0.0","0","0","50495","","null","","","null","63","","","","","","","","","","","","","","","",""
"","time_out","","html-keyboard-response","422","612819","0.0-1.0-575.0-0.0","0","0","50495","","null","","","null","63","","","","","","","","","","","","","","","",""
"","ITI","","html-keyboard-response","423","613820","0.0-1.0-576.0","0","0","50495","","null","","","null","63","","","","","","","","","","","","","","","NaN",""
"","S1","","html-keyboard-response","424","613977","0.0-1.0-578.0","0","0","50495","","null","","","null","64","","","","","","","","","","","","","","","",""
"","ISI","","html-keyboard-response","425","615979","0.0-1.0-579.0","0","0","50495","","null","","","null","64","NaN","","","","","","","","","","","","","","",""
"","S2","","html-keyboard-response","426","616133","0.0-1.0-580.0","0","0","50495","","null","","","null","64","","NaN","","","","","","","","","","","","","",""
"","response","","html-keyboard-response","427","617320","0.0-1.0-581.0-0.0","0","0","50495","","1186","","","68","64","","","2","64","training","adjacent","GF","7","6","L.jpg","P.jpg","0","0","1","",""
"","feedback","","html-keyboard-response","428","618322","0.0-1.0-582.0-0.0","0","0","50495","","null","","","null","64","","","","","","","","","","","","","","","",""
"","ITI","","html-keyboard-response","429","619323","0.0-1.0-585.0","0","0","50495","","null","","","null","64","","","","","","","","","","","","","","","NaN",""
"","S1","","html-keyboard-response","430","619475","0.0-1.0-587.0","0","0","50495","","null","","","null","65","","","","","","","","","","","","","","","",""
"","ISI","","html-keyboard-response","431","621477","0.0-1.0-588.0","0","0","50495","","null","","","null","65","NaN","","","","","","","","","","","","","","",""
"","S2","","html-keyboard-response","432","621631","0.0-1.0-589.0","0","0","50495","","null","","","null","65","","NaN","","","","","","","","","","","","","",""
"","response","","html-keyboard-response","433","622748","0.0-1.0-590.0-0.0","0","0","50495","","1115","","","75","65","","","2","65","training","adjacent","CB","3","2","M.jpg","O.jpg","1","0","0","",""
"","feedback","","html-keyboard-response","434","623750","0.0-1.0-591.0-0.0","0","0","50495","","null","","","null","65","","","","","","","","","","","","","","","",""
"","time_out","","html-keyboard-response","435","625753","0.0-1.0-593.0-0.0","0","0","50495","","null","","","null","65","","","","","","","","","","","","","","","",""
"","ITI","","html-keyboard-response","436","626755","0.0-1.0-594.0","0","0","50495","","null","","","null","65","","","","","","","","","","","","","","","NaN",""
"","S1","","html-keyboard-response","437","626907","0.0-1.0-596.0","0","0","50495","","null","","","null","66","","","","","","","","","","","","","","","",""
"","ISI","","html-keyboard-response","438","628908","0.0-1.0-597.0","0","0","50495","","null","","","null","66","NaN","","","","","","","","","","","","","","",""
"","S2","","html-keyboard-response","439","629060","0.0-1.0-598.0","0","0","50495","","null","","","null","66","","NaN","","","","","","","","","","","","","",""
"","response","","html-keyboard-response","440","630439","0.0-1.0-599.0-0.0","0","0","50495","","1377","","","75","66","","","2","66","training","adjacent","AB","1","2","R.jpg","O.jpg","1","1","1","",""
"","feedback","","html-keyboard-response","441","631441","0.0-1.0-600.0-0.0","0","0","50495","","null","","","null","66","","","","","","","","","","","","","","","",""
"","ITI","","html-keyboard-response","442","632442","0.0-1.0-603.0","0","0","50495","","null","","","null","66","","","","","","","","","","","","","","","NaN",""
"","S1","","html-keyboard-response","443","632595","0.0-1.0-605.0","0","0","50495","","null","","","null","67","","","","","","","","","","","","","","","",""
"","ISI","","html-keyboard-response","444","634596","0.0-1.0-606.0","0","0","50495","","null","","","null","67","NaN","","","","","","","","","","","","","","",""
"","S2","","html-keyboard-response","445","634748","0.0-1.0-607.0","0","0","50495","","null","","","null","67","","NaN","","","","","","","","","","","","","",""
"","response","","html-keyboard-response","446","635536","0.0-1.0-608.0-0.0","0","0","50495","","787","","","75","67","","","2","67","training","adjacent","EF","5","6","N.jpg","P.jpg","1","1","1","",""
"","feedback","","html-keyboard-response","447","636539","0.0-1.0-609.0-0.0","0","0","50495","","null","","","null","67","","","","","","","","","","","","","","","",""
"","ITI","","html-keyboard-response","448","637541","0.0-1.0-612.0","0","0","50495","","null","","","null","67","","","","","","","","","","","","","","","NaN",""
"","S1","","html-keyboard-response","449","637693","0.0-1.0-614.0","0","0","50495","","null","","","null","68","","","","","","","","","","","","","","","",""
"","ISI","","html-keyboard-response","450","639695","0.0-1.0-615.0","0","0","50495","","null","","","null","68","NaN","","","","","","","","","","","","","","",""
"","S2","","html-keyboard-response","451","639847","0.0-1.0-616.0","0","0","50495","","null","","","null","68","","NaN","","","","","","","","","","","","","",""
"","response","","html-keyboard-response","452","641070","0.0-1.0-617.0-0.0","0","0","50495","","1222","","","75","68","","","2","68","training","adjacent","CD","3","4","M.jpg","Q.jpg","1","1","1","",""
"","feedback","","html-keyboard-response","453","642072","0.0-1.0-618.0-0.0","0","0","50495","","null","","","null","68","","","","","","","","","","","","","","","",""
"","ITI","","html-keyboard-response","454","643073","0.0-1.0-621.0","0","0","50495","","null","","","null","68","","","","","","","","","","","","","","","NaN",""
"","S1","","html-keyboard-response","455","643226","0.0-1.0-623.0","0","0","50495","","null","","","null","69","","","","","","","","","","","","","","","",""
"","ISI","","html-keyboard-response","456","645227","0.0-1.0-624.0","0","0","50495","","null","","","null","69","NaN","","","","","","","","","","","","","","",""
"","S2","","html-keyboard-response","457","645379","0.0-1.0-625.0","0","0","50495","","null","","","null","69","","NaN","","","","","","","","","","","","","",""
"","response","","html-keyboard-response","458","646364","0.0-1.0-626.0-0.0","0","0","50495","","983","","","68","69","","","2","69","training","adjacent","FE","6","5","P.jpg","N.jpg","0","0","1","",""
"","feedback","","html-keyboard-response","459","647365","0.0-1.0-627.0-0.0","0","0","50495","","null","","","null","69","","","","","","","","","","","","","","","",""
"","ITI","","html-keyboard-response","460","648367","0.0-1.0-630.0","0","0","50495","","null","","","null","69","","","","","","","","","","","","","","","NaN",""
"","S1","","html-keyboard-response","461","648520","0.0-1.0-632.0","0","0","50495","","null","","","null","70","","","","","","","","","","","","","","","",""
"","ISI","","html-keyboard-response","462","650522","0.0-1.0-633.0","0","0","50495","","null","","","null","70","NaN","","","","","","","","","","","","","","",""
"","S2","","html-keyboard-response","463","650674","0.0-1.0-634.0","0","0","50495","","null","","","null","70","","NaN","","","","","","","","","","","","","",""
"","response","","html-keyboard-response","464","652004","0.0-1.0-635.0-0.0","0","0","50495","","1329","","","75","70","","","2","70","training","adjacent","CD","3","4","M.jpg","Q.jpg","1","1","1","",""
"","feedback","","html-keyboard-response","465","653006","0.0-1.0-636.0-0.0","0","0","50495","","null","","","null","70","","","","","","","","","","","","","","","",""
"","ITI","","html-keyboard-response","466","654008","0.0-1.0-639.0","0","0","50495","","null","","","null","70","","","","","","","","","","","","","","","NaN",""
"","S1","","html-keyboard-response","467","654161","0.0-1.0-641.0","0","0","50495","","null","","","null","71","","","","","","","","","","","","","","","",""
"","ISI","","html-keyboard-response","468","656163","0.0-1.0-642.0","0","0","50495","","null","","","null","71","NaN","","","","","","","","","","","","","","",""
"","S2","","html-keyboard-response","469","656315","0.0-1.0-643.0","0","0","50495","","null","","","null","71","","NaN","","","","","","","","","","","","","",""
"","response","","html-keyboard-response","470","657342","0.0-1.0-644.0-0.0","0","0","50495","","1026","","","75","71","","","2","71","training","adjacent","BC","2","3","O.jpg","M.jpg","1","1","1","",""
"","feedback","","html-keyboard-response","471","658343","0.0-1.0-645.0-0.0","0","0","50495","","null","","","null","71","","","","","","","","","","","","","","","",""
"","ITI","","html-keyboard-response","472","659345","0.0-1.0-648.0","0","0","50495","","null","","","null","71","","","","","","","","","","","","","","","NaN",""
"","S1","","html-keyboard-response","473","659499","0.0-1.0-650.0","0","0","50495","","null","","","null","72","","","","","","","","","","","","","","","",""
"","ISI","","html-keyboard-response","474","661501","0.0-1.0-651.0","0","0","50495","","null","","","null","72","NaN","","","","","","","","","","","","","","",""
"","S2","","html-keyboard-response","475","661652","0.0-1.0-652.0","0","0","50495","","null","","","null","72","","NaN","","","","","","","","","","","","","",""
"","response","","html-keyboard-response","476","662731","0.0-1.0-653.0-0.0","0","0","50495","","1077","","","75","72","","","2","72","training","adjacent","FG","6","7","P.jpg","L.jpg","1","1","1","",""
"","feedback","","html-keyboard-response","477","663733","0.0-1.0-654.0-0.0","0","0","50495","","null","","","null","72","","","","","","","","","","","","","","","",""
"","ITI","","html-keyboard-response","478","664734","0.0-1.0-657.0","0","0","50495","","null","","","null","72","","","","","","","","","","","","","","","NaN",""
"","S1","","html-keyboard-response","479","664886","0.0-1.0-659.0","0","0","50495","","null","","","null","73","","","","","","","","","","","","","","","",""
"","ISI","","html-keyboard-response","480","666889","0.0-1.0-660.0","0","0","50495","","null","","","null","73","NaN","","","","","","","","","","","","","","",""
"","S2","","html-keyboard-response","481","667041","0.0-1.0-661.0","0","0","50495","","null","","","null","73","","NaN","","","","","","","","","","","","","",""
"","response","","html-keyboard-response","482","667607","0.0-1.0-662.0-0.0","0","0","50495","","566","","","75","73","","","2","73","training","adjacent","BA","2","1","O.jpg","R.jpg","1","0","0","",""
"","feedback","","html-keyboard-response","483","668609","0.0-1.0-663.0-0.0","0","0","50495","","null","","","null","73","","","","","","","","","","","","","","","",""
"","time_out","","html-keyboard-response","484","670611","0.0-1.0-665.0-0.0","0","0","50495","","null","","","null","73","","","","","","","","","","","","","","","",""
"","ITI","","html-keyboard-response","485","671613","0.0-1.0-666.0","0","0","50495","","null","","","null","73","","","","","","","","","","","","","","","NaN",""
"","S1","","html-keyboard-response","486","671773","0.0-1.0-668.0","0","0","50495","","null","","","null","74","","","","","","","","","","","","","","","",""
"","ISI","","html-keyboard-response","487","673775","0.0-1.0-669.0","0","0","50495","","null","","","null","74","NaN","","","","","","","","","","","","","","",""
"","S2","","html-keyboard-response","488","673926","0.0-1.0-670.0","0","0","50495","","null","","","null","74","","NaN","","","","","","","","","","","","","",""
"","response","","html-keyboard-response","489","675014","0.0-1.0-671.0-0.0","0","0","50495","","1086","","","75","74","","","2","74","training","adjacent","DC","4","3","Q.jpg","M.jpg","1","0","0","",""
"","feedback","","html-keyboard-response","490","676021","0.0-1.0-672.0-0.0","0","0","50495","","null","","","null","74","","","","","","","","","","","","","","","",""
"","time_out","","html-keyboard-response","491","678022","0.0-1.0-674.0-0.0","0","0","50495","","null","","","null","74","","","","","","","","","","","","","","","",""
"","ITI","","html-keyboard-response","492","679024","0.0-1.0-675.0","0","0","50495","","null","","","null","74","","","","","","","","","","","","","","","NaN",""
"","S1","","html-keyboard-response","493","679175","0.0-1.0-677.0","0","0","50495","","null","","","null","75","","","","","","","","","","","","","","","",""
"","ISI","","html-keyboard-response","494","681178","0.0-1.0-678.0","0","0","50495","","null","","","null","75","NaN","","","","","","","","","","","","","","",""
"","S2","","html-keyboard-response","495","681330","0.0-1.0-679.0","0","0","50495","","null","","","null","75","","NaN","","","","","","","","","","","","","",""
"","response","","html-keyboard-response","496","682242","0.0-1.0-680.0-0.0","0","0","50495","","912","","","75","75","","","2","75","training","adjacent","FG","6","7","P.jpg","L.jpg","1","1","1","",""
"","feedback","","html-keyboard-response","497","683249","0.0-1.0-681.0-0.0","0","0","50495","","null","","","null","75","","","","","","","","","","","","","","","",""
"","ITI","","html-keyboard-response","498","684257","0.0-1.0-684.0","0","0","50495","","null","","","null","75","","","","","","","","","","","","","","","NaN",""
"","S1","","html-keyboard-response","499","684409","0.0-1.0-686.0","0","0","50495","","null","","","null","76","","","","","","","","","","","","","","","",""
"","ISI","","html-keyboard-response","500","686410","0.0-1.0-687.0","0","0","50495","","null","","","null","76","NaN","","","","","","","","","","","","","","",""
"","S2","","html-keyboard-response","501","686563","0.0-1.0-688.0","0","0","50495","","null","","","null","76","","NaN","","","","","","","","","","","","","",""
"","response","","html-keyboard-response","502","687926","0.0-1.0-689.0-0.0","0","0","50495","","1361","","","75","76","","","2","76","training","adjacent","BC","2","3","O.jpg","M.jpg","1","1","1","",""
"","feedback","","html-keyboard-response","503","688929","0.0-1.0-690.0-0.0","0","0","50495","","null","","","null","76","","","","","","","","","","","","","","","",""
"","ITI","","html-keyboard-response","504","689931","0.0-1.0-693.0","0","0","50495","","null","","","null","76","","","","","","","","","","","","","","","NaN",""
"","S1","","html-keyboard-response","505","690082","0.0-1.0-695.0","0","0","50495","","null","","","null","77","","","","","","","","","","","","","","","",""
"","ISI","","html-keyboard-response","506","692087","0.0-1.0-696.0","0","0","50495","","null","","","null","77","NaN","","","","","","","","","","","","","","",""
"","S2","","html-keyboard-response","507","692239","0.0-1.0-697.0","0","0","50495","","null","","","null","77","","NaN","","","","","","","","","","","","","",""
"","response","","html-keyboard-response","508","693177","0.0-1.0-698.0-0.0","0","0","50495","","937","","","68","77","","","2","77","training","adjacent","GF","7","6","L.jpg","P.jpg","0","0","1","",""
"","feedback","","html-keyboard-response","509","694178","0.0-1.0-699.0-0.0","0","0","50495","","null","","","null","77","","","","","","","","","","","","","","","",""
"","ITI","","html-keyboard-response","510","695182","0.0-1.0-702.0","0","0","50495","","null","","","null","77","","","","","","","","","","","","","","","NaN",""
"","S1","","html-keyboard-response","511","695334","0.0-1.0-704.0","0","0","50495","","null","","","null","78","","","","","","","","","","","","","","","",""
"","ISI","","html-keyboard-response","512","697336","0.0-1.0-705.0","0","0","50495","","null","","","null","78","NaN","","","","","","","","","","","","","","",""
"","S2","","html-keyboard-response","513","697488","0.0-1.0-706.0","0","0","50495","","null","","","null","78","","NaN","","","","","","","","","","","","","",""
"","response","","html-keyboard-response","514","697701","0.0-1.0-707.0-0.0","0","0","50495","","213","","","68","78","","","2","78","training","adjacent","GF","7","6","L.jpg","P.jpg","0","0","1","",""
"","feedback","","html-keyboard-response","515","698703","0.0-1.0-708.0-0.0","0","0","50495","","null","","","null","78","","","","","","","","","","","","","","","",""
"","ITI","","html-keyboard-response","516","699704","0.0-1.0-711.0","0","0","50495","","null","","","null","78","","","","","","","","","","","","","","","NaN",""
"","S1","","html-keyboard-response","517","699857","0.0-1.0-713.0","0","0","50495","","null","","","null","79","","","","","","","","","","","","","","","",""
"","ISI","","html-keyboard-response","518","701858","0.0-1.0-714.0","0","0","50495","","null","","","null","79","NaN","","","","","","","","","","","","","","",""
"","S2","","html-keyboard-response","519","702010","0.0-1.0-715.0","0","0","50495","","null","","","null","79","","NaN","","","","","","","","","","","","","",""
"","response","","html-keyboard-response","520","703583","0.0-1.0-716.0-0.0","0","0","50495","","1572","","","68","79","","","2","79","training","adjacent","DC","4","3","Q.jpg","M.jpg","0","0","1","",""
"","feedback","","html-keyboard-response","521","704585","0.0-1.0-717.0-0.0","0","0","50495","","null","","","null","79","","","","","","","","","","","","","","","",""
"","ITI","","html-keyboard-response","522","705588","0.0-1.0-720.0","0","0","50495","","null","","","null","79","","","","","","","","","","","","","","","NaN",""
"","S1","","html-keyboard-response","523","705741","0.0-1.0-722.0","0","0","50495","","null","","","null","80","","","","","","","","","","","","","","","",""
"","ISI","","html-keyboard-response","524","707745","0.0-1.0-723.0","0","0","50495","","null","","","null","80","NaN","","","","","","","","","","","","","","",""
"","S2","","html-keyboard-response","525","707897","0.0-1.0-724.0","0","0","50495","","null","","","null","80","","NaN","","","","","","","","","","","","","",""
"","response","","html-keyboard-response","526","709550","0.0-1.0-725.0-0.0","0","0","50495","","1653","","","68","80","","","2","80","training","adjacent","FE","6","5","P.jpg","N.jpg","0","0","1","",""
"","feedback","","html-keyboard-response","527","710552","0.0-1.0-726.0-0.0","0","0","50495","","null","","","null","80","","","","","","","","","","","","","","","",""
"","ITI","","html-keyboard-response","528","711553","0.0-1.0-729.0","0","0","50495","","null","","","null","80","","","","","","","","","","","","","","","NaN",""
"","S1","","html-keyboard-response","529","711705","0.0-1.0-731.0","0","0","50495","","null","","","null","81","","","","","","","","","","","","","","","",""
"","ISI","","html-keyboard-response","530","713707","0.0-1.0-732.0","0","0","50495","","null","","","null","81","NaN","","","","","","","","","","","","","","",""
"","S2","","html-keyboard-response","531","713859","0.0-1.0-733.0","0","0","50495","","null","","","null","81","","NaN","","","","","","","","","","","","","",""
"","response","","html-keyboard-response","532","715249","0.0-1.0-734.0-0.0","0","0","50495","","1389","","","75","81","","","2","81","training","adjacent","CB","3","2","M.jpg","O.jpg","1","0","0","",""
"","feedback","","html-keyboard-response","533","716251","0.0-1.0-735.0-0.0","0","0","50495","","null","","","null","81","","","","","","","","","","","","","","","",""
"","time_out","","html-keyboard-response","534","718254","0.0-1.0-737.0-0.0","0","0","50495","","null","","","null","81","","","","","","","","","","","","","","","",""
"","ITI","","html-keyboard-response","535","719255","0.0-1.0-738.0","0","0","50495","","null","","","null","81","","","","","","","","","","","","","","","NaN",""
"","S1","","html-keyboard-response","536","719406","0.0-1.0-740.0","0","0","50495","","null","","","null","82","","","","","","","","","","","","","","","",""
"","ISI","","html-keyboard-response","537","721408","0.0-1.0-741.0","0","0","50495","","null","","","null","82","NaN","","","","","","","","","","","","","","",""
"","S2","","html-keyboard-response","538","721560","0.0-1.0-742.0","0","0","50495","","null","","","null","82","","NaN","","","","","","","","","","","","","",""
"","response","","html-keyboard-response","539","722709","0.0-1.0-743.0-0.0","0","0","50495","","1149","","","68","82","","","2","82","training","adjacent","BC","2","3","O.jpg","M.jpg","0","1","0","",""
"","feedback","","html-keyboard-response","540","723711","0.0-1.0-744.0-0.0","0","0","50495","","null","","","null","82","","","","","","","","","","","","","","","",""
"","time_out","","html-keyboard-response","541","725714","0.0-1.0-746.0-0.0","0","0","50495","","null","","","null","82","","","","","","","","","","","","","","","",""
"","ITI","","html-keyboard-response","542","726715","0.0-1.0-747.0","0","0","50495","","null","","","null","82","","","","","","","","","","","","","","","NaN",""
"","S1","","html-keyboard-response","543","726868","0.0-1.0-749.0","0","0","50495","","null","","","null","83","","","","","","","","","","","","","","","",""
"","ISI","","html-keyboard-response","544","728871","0.0-1.0-750.0","0","0","50495","","null","","","null","83","NaN","","","","","","","","","","","","","","",""
"","S2","","html-keyboard-response","545","729024","0.0-1.0-751.0","0","0","50495","","null","","","null","83","","NaN","","","","","","","","","","","","","",""
"","response","","html-keyboard-response","546","730163","0.0-1.0-752.0-0.0","0","0","50495","","1139","","","68","83","","","2","83","training","adjacent","DE","4","5","Q.jpg","N.jpg","0","1","0","",""
"","feedback","","html-keyboard-response","547","731166","0.0-1.0-753.0-0.0","0","0","50495","","null","","","null","83","","","","","","","","","","","","","","","",""
"","time_out","","html-keyboard-response","548","733168","0.0-1.0-755.0-0.0","0","0","50495","","null","","","null","83","","","","","","","","","","","","","","","",""
"","ITI","","html-keyboard-response","549","734170","0.0-1.0-756.0","0","0","50495","","null","","","null","83","","","","","","","","","","","","","","","NaN",""
"","S1","","html-keyboard-response","550","734321","0.0-1.0-758.0","0","0","50495","","null","","","null","84","","","","","","","","","","","","","","","",""
"","ISI","","html-keyboard-response","551","736323","0.0-1.0-759.0","0","0","50495","","null","","","null","84","NaN","","","","","","","","","","","","","","",""
"","S2","","html-keyboard-response","552","736476","0.0-1.0-760.0","0","0","50495","","null","","","null","84","","NaN","","","","","","","","","","","","","",""
"","response","","html-keyboard-response","553","737246","0.0-1.0-761.0-0.0","0","0","50495","","770","","","75","84","","","2","84","training","adjacent","ED","5","4","N.jpg","Q.jpg","1","0","0","",""
"","feedback","","html-keyboard-response","554","738248","0.0-1.0-762.0-0.0","0","0","50495","","null","","","null","84","","","","","","","","","","","","","","","",""
"","time_out","","html-keyboard-response","555","740250","0.0-1.0-764.0-0.0","0","0","50495","","null","","","null","84","","","","","","","","","","","","","","","",""
"","ITI","","html-keyboard-response","556","741252","0.0-1.0-765.0","0","0","50495","","null","","","null","84","","","","","","","","","","","","","","","NaN",""
"","S1","","html-keyboard-response","557","741404","0.0-1.0-767.0","0","0","50495","","null","","","null","85","","","","","","","","","","","","","","","",""
"","ISI","","html-keyboard-response","558","743406","0.0-1.0-768.0","0","0","50495","","null","","","null","85","NaN","","","","","","","","","","","","","","",""
"","S2","","html-keyboard-response","559","743559","0.0-1.0-769.0","0","0","50495","","null","","","null","85","","NaN","","","","","","","","","","","","","",""
"","response","","html-keyboard-response","560","745187","0.0-1.0-770.0-0.0","0","0","50495","","1627","","","75","85","","","2","85","training","adjacent","BC","2","3","O.jpg","M.jpg","1","1","1","",""
"","feedback","","html-keyboard-response","561","746189","0.0-1.0-771.0-0.0","0","0","50495","","null","","","null","85","","","","","","","","","","","","","","","",""
"","ITI","","html-keyboard-response","562","747190","0.0-1.0-774.0","0","0","50495","","null","","","null","85","","","","","","","","","","","","","","","NaN",""
"","S1","","html-keyboard-response","563","747343","0.0-1.0-776.0","0","0","50495","","null","","","null","86","","","","","","","","","","","","","","","",""
"","ISI","","html-keyboard-response","564","749346","0.0-1.0-777.0","0","0","50495","","null","","","null","86","NaN","","","","","","","","","","","","","","",""
"","S2","","html-keyboard-response","565","749498","0.0-1.0-778.0","0","0","50495","","null","","","null","86","","NaN","","","","","","","","","","","","","",""
"","response","","html-keyboard-response","566","750551","0.0-1.0-779.0-0.0","0","0","50495","","1051","","","75","86","","","2","86","training","adjacent","DC","4","3","Q.jpg","M.jpg","1","0","0","",""
"","feedback","","html-keyboard-response","567","751552","0.0-1.0-780.0-0.0","0","0","50495","","null","","","null","86","","","","","","","","","","","","","","","",""
"","time_out","","html-keyboard-response","568","753556","0.0-1.0-782.0-0.0","0","0","50495","","null","","","null","86","","","","","","","","","","","","","","","",""
"","ITI","","html-keyboard-response","569","754558","0.0-1.0-783.0","0","0","50495","","null","","","null","86","","","","","","","","","","","","","","","NaN",""
"","S1","","html-keyboard-response","570","754710","0.0-1.0-785.0","0","0","50495","","null","","","null","87","","","","","","","","","","","","","","","",""
"","ISI","","html-keyboard-response","571","756711","0.0-1.0-786.0","0","0","50495","","null","","","null","87","NaN","","","","","","","","","","","","","","",""
"","S2","","html-keyboard-response","572","756863","0.0-1.0-787.0","0","0","50495","","null","","","null","87","","NaN","","","","","","","","","","","","","",""
"","response","","html-keyboard-response","573","757964","0.0-1.0-788.0-0.0","0","0","50495","","1101","","","75","87","","","2","87","training","adjacent","BA","2","1","O.jpg","R.jpg","1","0","0","",""
"","feedback","","html-keyboard-response","574","758967","0.0-1.0-789.0-0.0","0","0","50495","","null","","","null","87","","","","","","","","","","","","","","","",""
"","time_out","","html-keyboard-response","575","760968","0.0-1.0-791.0-0.0","0","0","50495","","null","","","null","87","","","","","","","","","","","","","","","",""
"","ITI","","html-keyboard-response","576","761971","0.0-1.0-792.0","0","0","50495","","null","","","null","87","","","","","","","","","","","","","","","NaN",""
"","S1","","html-keyboard-response","577","762123","0.0-1.0-794.0","0","0","50495","","null","","","null","88","","","","","","","","","","","","","","","",""
"","ISI","","html-keyboard-response","578","764126","0.0-1.0-795.0","0","0","50495","","null","","","null","88","NaN","","","","","","","","","","","","","","",""
"","S2","","html-keyboard-response","579","764279","0.0-1.0-796.0","0","0","50495","","null","","","null","88","","NaN","","","","","","","","","","","","","",""
"","response","","html-keyboard-response","580","765747","0.0-1.0-797.0-0.0","0","0","50495","","1468","","","68","88","","","2","88","training","adjacent","EF","5","6","N.jpg","P.jpg","0","1","0","",""
