"success","ttype","start_time","trial_type","trial_index","time_elapsed","internal_node_id","warning","missed_checkup","PID","view_history","rt","responses","repeat_instructions","key_press","index","keypress_isi","keypress_S2","block","trial_num","phase","group_type","pair_type","S1_stim","S2_stim","S1_img","S2_img","S1_chosen","S1_higher","accuracy","keypress_iti","total_bonus_tally"
"true","full_screen","d03082023hr1547","fullscreen","0","14218","0.0-0.0","0","0","83798","","","","","","","","","","","","","","","","","","","","","",""
"","instructions","","instructions","1","36051","0.0-1.0-0.0-0.0","0","0","83798","[{""page_index"":0,""viewing_time"":4686},{""page_index"":1,""viewing_time"":5055},{""page_index"":2,""viewing_time"":9506},{""page_index"":3,""viewing_time"":2583}]","21830","","","","","","","","","","","","","","","","","","","",""
"","comprehension_check","","survey-multi-choice","2","68297","0.0-1.0-0.0-1.0","0","0","83798","","32242","{""Q0"":""True"",""Q1"":""D"",""Q2"":""Only when the screen 'MAKE A CHOICE' is shown"",""Q3"":""Green mark"",""Q4"":""either D or K""}","1","","","","","","","","","","","","","","","","","",""
"","missed_instruction_checkup","","html-keyboard-response","3","70473","0.0-1.0-0.0-2.0-0.0","0","1","83798","","2172","","","32","","","","","","","","","","","","","","","","",""
"","instructions","","instructions","4","82651","0.0-1.0-0.1-0.1","0","0","83798","[{""page_index"":0,""viewing_time"":1674},{""page_index"":1,""viewing_time"":8045},{""page_index"":2,""viewing_time"":1038},{""page_index"":3,""viewing_time"":1417}]","12174","","","","","","","","","","","","","","","","","","","",""
"","comprehension_check","","survey-multi-choice","5","96798","0.0-1.0-0.1-1.1","0","0","83798","","14134","{""Q0"":""True"",""Q1"":""D"",""Q2"":""Once the second image appears and while the screen 'MAKE A CHOICE' is shown"",""Q3"":""Green mark"",""Q4"":""either D or K""}","0","","","","","","","","","","","","","","","","","",""
"","start_exp","","html-keyboard-response","6","98263","0.0-1.0-1.0","0","0","83798","","1462","","","32","","","","","","","","","","","","","","","","",""
"","S1","","html-keyboard-response","7","98516","0.0-1.0-2.0","0","0","83798","","null","","","null","0","","","","","","","","","","","","","","","",""
"","ISI","","html-keyboard-response","8","98671","0.0-1.0-3.0","0","0","83798","","null","","","null","0","NaN","","","","","","","","","","","","","","",""
"","S2","","html-keyboard-response","9","98925","0.0-1.0-4.0","0","0","83798","","null","","","null","0","","NaN","","","","","","","","","","","","","",""
"","response","","html-keyboard-response","10","99886","0.0-1.0-5.0-0.0","0","0","83798","","957","","","68","0","","","1","0","training","adjacent","EF","5","6","R.jpg","L.jpg","1","1","1","",""
"","feedback","","html-keyboard-response","11","100891","0.0-1.0-6.0-0.0","0","0","83798","","null","","","null","0","","","","","","","","","","","","","","","",""
"","ITI","","html-keyboard-response","12","101897","0.0-1.0-9.0","0","0","83798","","null","","","null","0","","","","","","","","","","","","","","","NaN",""
"","S1","","html-keyboard-response","13","102153","0.0-1.0-11.0","0","0","83798","","null","","","null","1","","","","","","","","","","","","","","","",""
"","ISI","","html-keyboard-response","14","102306","0.0-1.0-12.0","0","0","83798","","null","","","null","1","NaN","","","","","","","","","","","","","","",""
"","S2","","html-keyboard-response","15","102560","0.0-1.0-13.0","0","0","83798","","null","","","null","1","","NaN","","","","","","","","","","","","","",""
"","response","","html-keyboard-response","16","102907","0.0-1.0-14.0-0.0","0","0","83798","","344","","","75","1","","","1","1","training","adjacent","BC","2","3","M.jpg","Q.jpg","0","1","0","",""
"","feedback","","html-keyboard-response","17","103910","0.0-1.0-15.0-0.0","0","0","83798","","null","","","null","1","","","","","","","","","","","","","","","",""
"","time_out","","html-keyboard-response","18","105914","0.0-1.0-17.0-0.0","0","0","83798","","null","","","null","1","","","","","","","","","","","","","","","",""
"","ITI","","html-keyboard-response","19","106927","0.0-1.0-18.0","0","0","83798","","null","","","null","1","","","","","","","","","","","","","","","NaN",""
"","S1","","html-keyboard-response","20","107181","0.0-1.0-20.0","0","0","83798","","null","","","null","2","","","","","","","","","","","","","","","",""
"","ISI","","html-keyboard-response","21","107334","0.0-1.0-21.0","0","0","83798","","null","","","null","2","NaN","","","","","","","","","","","","","","",""
"","S2","","html-keyboard-response","22","107587","0.0-1.0-22.0","0","0","83798","","null","","","null","2","","NaN","","","","","","","","","","","","","",""
"","response","","html-keyboard-response","23","107931","0.0-1.0-23.0-0.0","0","0","83798","","342","","","68","2","","","1","2","training","adjacent","DE","4","5","O.jpg","R.jpg","1","1","1","",""
"","feedback","","html-keyboard-response","24","108952","0.0-1.0-24.0-0.0","0","0","83798","","null","","","null","2","","","","","","","","","","","","","","","",""
"","ITI","","html-keyboard-response","25","109956","0.0-1.0-27.0","0","0","83798","","null","","","null","2","","","","","","","","","","","","","","","NaN",""
"","S1","","html-keyboard-response","26","110209","0.0-1.0-29.0","0","0","83798","","null","","","null","3","","","","","","","","","","","","","","","",""
"","ISI","","html-keyboard-response","27","110361","0.0-1.0-30.0","0","0","83798","","null","","","null","3","NaN","","","","","","","","","","","","","","",""
"","S2","","html-keyboard-response","28","110614","0.0-1.0-31.0","0","0","83798","","null","","","null","3","","NaN","","","","","","","","","","","","","",""
"","response","","html-keyboard-response","29","110861","0.0-1.0-32.0-0.0","0","0","83798","","244","","","68","3","","","1","3","training","adjacent","DE","4","5","O.jpg","R.jpg","1","1","1","",""
"","feedback","","html-keyboard-response","30","111864","0.0-1.0-33.0-0.0","0","0","83798","","null","","","null","3","","","","","","","","","","","","","","","",""
"","ITI","","html-keyboard-response","31","112868","0.0-1.0-36.0","0","0","83798","","null","","","null","3","","","","","","","","","","","","","","","NaN",""
"","S1","","html-keyboard-response","32","113122","0.0-1.0-38.0","0","0","83798","","null","","","null","4","","","","","","","","","","","","","","","",""
"","ISI","","html-keyboard-response","33","113275","0.0-1.0-39.0","0","0","83798","","null","","","null","4","NaN","","","","","","","","","","","","","","",""
"","S2","","html-keyboard-response","34","113530","0.0-1.0-40.0","0","0","83798","","null","","","null","4","","NaN","","","","","","","","","","","","","",""
"","response","","html-keyboard-response","35","113558","0.0-1.0-41.0-0.0","0","0","83798","","25","","","68","4","","","1","4","training","adjacent","AB","1","2","N.jpg","M.jpg","1","1","1","",""
"","feedback","","html-keyboard-response","36","114560","0.0-1.0-42.0-0.0","0","0","83798","","null","","","null","4","","","","","","","","","","","","","","","",""
"","ITI","","html-keyboard-response","37","115562","0.0-1.0-45.0","0","0","83798","","null","","","null","4","","","","","","","","","","","","","","","NaN",""
"","S1","","html-keyboard-response","38","115815","0.0-1.0-47.0","0","0","83798","","null","","","null","5","","","","","","","","","","","","","","","",""
"","ISI","","html-keyboard-response","39","115968","0.0-1.0-48.0","0","0","83798","","null","","","null","5","NaN","","","","","","","","","","","","","","",""
"","S2","","html-keyboard-response","40","116222","0.0-1.0-49.0","0","0","83798","","null","","","null","5","","NaN","","","","","","","","","","","","","",""
"","response","","html-keyboard-response","41","116488","0.0-1.0-50.0-0.0","0","0","83798","","261","","","68","5","","","1","5","training","adjacent","DC","4","3","O.jpg","Q.jpg","1","0","0","",""
"","feedback","","html-keyboard-response","42","117492","0.0-1.0-51.0-0.0","0","0","83798","","null","","","null","5","","","","","","","","","","","","","","","",""
"","time_out","","html-keyboard-response","43","119496","0.0-1.0-53.0-0.0","0","0","83798","","null","","","null","5","","","","","","","","","","","","","","","",""
"","ITI","","html-keyboard-response","44","120502","0.0-1.0-54.0","0","0","83798","","null","","","null","5","","","","","","","","","","","","","","","NaN",""
"","S1","","html-keyboard-response","45","120755","0.0-1.0-56.0","0","0","83798","","null","","","null","6","","","","","","","","","","","","","","","",""
"","ISI","","html-keyboard-response","46","120907","0.0-1.0-57.0","0","0","83798","","null","","","null","6","NaN","","","","","","","","","","","","","","",""
"","S2","","html-keyboard-response","47","121162","0.0-1.0-58.0","0","0","83798","","null","","","null","6","","NaN","","","","","","","","","","","","","",""
"","response","","html-keyboard-response","48","121411","0.0-1.0-59.0-0.0","0","0","83798","","247","","","75","6","","","1","6","training","adjacent","BA","2","1","M.jpg","N.jpg","0","0","1","",""
"","feedback","","html-keyboard-response","49","122414","0.0-1.0-60.0-0.0","0","0","83798","","null","","","null","6","","","","","","","","","","","","","","","",""
"","ITI","","html-keyboard-response","50","123416","0.0-1.0-63.0","0","0","83798","","null","","","null","6","","","","","","","","","","","","","","","NaN",""
"","S1","","html-keyboard-response","51","123671","0.0-1.0-65.0","0","0","83798","","null","","","null","7","","","","","","","","","","","","","","","",""
"","ISI","","html-keyboard-response","52","123824","0.0-1.0-66.0","0","0","83798","","null","","","null","7","NaN","","","","","","","","","","","","","","",""
"","S2","","html-keyboard-response","53","124079","0.0-1.0-67.0","0","0","83798","","null","","","null","7","","NaN","","","","","","","","","","","","","",""
"","response","","html-keyboard-response","54","124250","0.0-1.0-68.0-0.0","0","0","83798","","169","","","75","7","","","1","7","training","adjacent","CB","3","2","Q.jpg","M.jpg","0","0","1","",""
"","feedback","","html-keyboard-response","55","125255","0.0-1.0-69.0-0.0","0","0","83798","","null","","","null","7","","","","","","","","","","","","","","","",""
"","ITI","","html-keyboard-response","56","126258","0.0-1.0-72.0","0","0","83798","","null","","","null","7","","","","","","","","","","","","","","","NaN",""
"","S1","","html-keyboard-response","57","126510","0.0-1.0-74.0","0","0","83798","","null","","","null","8","","","","","","","","","","","","","","","",""
"","ISI","","html-keyboard-response","58","126665","0.0-1.0-75.0","0","0","83798","","null","","","null","8","NaN","","","","","","","","","","","","","","",""
"","S2","","html-keyboard-response","59","126918","0.0-1.0-76.0","0","0","83798","","null","","","null","8","","NaN","","","","","","","","","","","","","",""
"","response","","html-keyboard-response","60","127207","0.0-1.0-77.0-0.0","0","0","83798","","288","","","68","8","","","1","8","training","adjacent","CD","3","4","Q.jpg","O.jpg","1","1","1","",""
"","feedback","","html-keyboard-response","61","128212","0.0-1.0-78.0-0.0","0","0","83798","","null","","","null","8","","","","","","","","","","","","","","","",""
"","ITI","","html-keyboard-response","62","129215","0.0-1.0-81.0","0","0","83798","","null","","","null","8","","","","","","","","","","","","","","","NaN",""
"","S1","","html-keyboard-response","63","129468","0.0-1.0-83.0","0","0","83798","","null","","","null","9","","","","","","","","","","","","","","","",""
"","ISI","","html-keyboard-response","64","129621","0.0-1.0-84.0","0","0","83798","","null","","","null","9","NaN","","","","","","","","","","","","","","",""
"","S2","","html-keyboard-response","65","129874","0.0-1.0-85.0","0","0","83798","","null","","","null","9","","NaN","","","","","","","","","","","","","",""
"","response","","html-keyboard-response","66","130069","0.0-1.0-86.0-0.0","0","0","83798","","194","","","68","9","","","1","9","training","adjacent","GF","7","6","P.jpg","L.jpg","1","0","0","",""
"","feedback","","html-keyboard-response","67","131071","0.0-1.0-87.0-0.0","0","0","83798","","null","","","null","9","","","","","","","","","","","","","","","",""
"","time_out","","html-keyboard-response","68","133075","0.0-1.0-89.0-0.0","0","0","83798","","null","","","null","9","","","","","","","","","","","","","","","",""
"","ITI","","html-keyboard-response","69","134078","0.0-1.0-90.0","0","0","83798","","null","","","null","9","","","","","","","","","","","","","","","NaN",""
"","S1","","html-keyboard-response","70","134330","0.0-1.0-92.0","0","0","83798","","null","","","null","10","","","","","","","","","","","","","","","",""
"","ISI","","html-keyboard-response","71","134483","0.0-1.0-93.0","0","0","83798","","null","","","null","10","NaN","","","","","","","","","","","","","","",""
"","S2","","html-keyboard-response","72","134736","0.0-1.0-94.0","0","0","83798","","null","","","null","10","","NaN","","","","","","","","","","","","","",""
"","response","","html-keyboard-response","73","134928","0.0-1.0-95.0-0.0","0","0","83798","","190","","","75","10","","","1","10","training","adjacent","CD","3","4","Q.jpg","O.jpg","0","1","0","",""
"","feedback","","html-keyboard-response","74","135932","0.0-1.0-96.0-0.0","0","0","83798","","null","","","null","10","","","","","","","","","","","","","","","",""
"","time_out","","html-keyboard-response","75","137938","0.0-1.0-98.0-0.0","0","0","83798","","null","","","null","10","","","","","","","","","","","","","","","",""
"","ITI","","html-keyboard-response","76","138942","0.0-1.0-99.0","0","0","83798","","null","","","null","10","","","","","","","","","","","","","","","NaN",""
"","S1","","html-keyboard-response","77","139196","0.0-1.0-101.0","0","0","83798","","null","","","null","11","","","","","","","","","","","","","","","",""
"","ISI","","html-keyboard-response","78","139352","0.0-1.0-102.0","0","0","83798","","null","","","null","11","NaN","","","","","","","","","","","","","","",""
"","S2","","html-keyboard-response","79","139608","0.0-1.0-103.0","0","0","83798","","null","","","null","11","","NaN","","","","","","","","","","","","","",""
"","response","","html-keyboard-response","80","139701","0.0-1.0-104.0-0.0","0","0","83798","","92","","","75","11","","","1","11","training","adjacent","FG","6","7","L.jpg","P.jpg","0","1","0","",""
"","feedback","","html-keyboard-response","81","140705","0.0-1.0-105.0-0.0","0","0","83798","","null","","","null","11","","","","","","","","","","","","","","","",""
"","time_out","","html-keyboard-response","82","142710","0.0-1.0-107.0-0.0","0","0","83798","","null","","","null","11","","","","","","","","","","","","","","","",""
"","ITI","","html-keyboard-response","83","143712","0.0-1.0-108.0","0","0","83798","","null","","","null","11","","","","","","","","","","","","","","","NaN",""
"","S1","","html-keyboard-response","84","143966","0.0-1.0-110.0","0","0","83798","","null","","","null","12","","","","","","","","","","","","","","","",""
"","ISI","","html-keyboard-response","85","144121","0.0-1.0-111.0","0","0","83798","","null","","","null","12","NaN","","","","","","","","","","","","","","",""
"","S2","","html-keyboard-response","86","144374","0.0-1.0-112.0","0","0","83798","","null","","","null","12","","NaN","","","","","","","","","","","","","",""
"","response","","html-keyboard-response","87","144722","0.0-1.0-113.0-0.0","0","0","83798","","347","","","75","12","","","1","12","training","adjacent","GF","7","6","P.jpg","L.jpg","0","0","1","",""
"","feedback","","html-keyboard-response","88","145724","0.0-1.0-114.0-0.0","0","0","83798","","null","","","null","12","","","","","","","","","","","","","","","",""
"","ITI","","html-keyboard-response","89","146727","0.0-1.0-117.0","0","0","83798","","null","","","null","12","","","","","","","","","","","","","","","NaN",""
"","S1","","html-keyboard-response","90","146980","0.0-1.0-119.0","0","0","83798","","null","","","null","13","","","","","","","","","","","","","","","",""
"","ISI","","html-keyboard-response","91","147133","0.0-1.0-120.0","0","0","83798","","null","","","null","13","NaN","","","","","","","","","","","","","","",""
"","S2","","html-keyboard-response","92","147387","0.0-1.0-121.0","0","0","83798","","null","","","null","13","","NaN","","","","","","","","","","","","","",""
"","response","","html-keyboard-response","93","147504","0.0-1.0-122.0-0.0","0","0","83798","","116","","","68","13","","","1","13","training","adjacent","CB","3","2","Q.jpg","M.jpg","1","0","0","",""
"","feedback","","html-keyboard-response","94","148509","0.0-1.0-123.0-0.0","0","0","83798","","null","","","null","13","","","","","","","","","","","","","","","",""
"","time_out","","html-keyboard-response","95","150513","0.0-1.0-125.0-0.0","0","0","83798","","null","","","null","13","","","","","","","","","","","","","","","",""
"","ITI","","html-keyboard-response","96","151519","0.0-1.0-126.0","0","0","83798","","null","","","null","13","","","","","","","","","","","","","","","NaN",""
"","S1","","html-keyboard-response","97","151773","0.0-1.0-128.0","0","0","83798","","null","","","null","14","","","","","","","","","","","","","","","",""
"","ISI","","html-keyboard-response","98","151925","0.0-1.0-129.0","0","0","83798","","null","","","null","14","NaN","","","","","","","","","","","","","","",""
"","S2","","html-keyboard-response","99","152177","0.0-1.0-130.0","0","0","83798","","null","","","null","14","","NaN","","","","","","","","","","","","","",""
"","response","","html-keyboard-response","100","152558","0.0-1.0-131.0-0.0","0","0","83798","","379","","","68","14","","","1","14","training","adjacent","FE","6","5","L.jpg","R.jpg","1","0","0","",""
"","feedback","","html-keyboard-response","101","153560","0.0-1.0-132.0-0.0","0","0","83798","","null","","","null","14","","","","","","","","","","","","","","","",""
"","time_out","","html-keyboard-response","102","155564","0.0-1.0-134.0-0.0","0","0","83798","","null","","","null","14","","","","","","","","","","","","","","","",""
"","ITI","","html-keyboard-response","103","156568","0.0-1.0-135.0","0","0","83798","","null","","","null","14","","","","","","","","","","","","","","","NaN",""
"","S1","","html-keyboard-response","104","156832","0.0-1.0-137.0","0","0","83798","","null","","","null","15","","","","","","","","","","","","","","","",""
"","ISI","","html-keyboard-response","105","156985","0.0-1.0-138.0","0","0","83798","","null","","","null","15","NaN","","","","","","","","","","","","","","",""
"","S2","","html-keyboard-response","106","157240","0.0-1.0-139.0","0","0","83798","","null","","","null","15","","NaN","","","","","","","","","","","","","",""
"","response","","html-keyboard-response","107","157319","0.0-1.0-140.0-0.0","0","0","83798","","76","","","75","15","","","1","15","training","adjacent","BA","2","1","M.jpg","N.jpg","0","0","1","",""
"","feedback","","html-keyboard-response","108","158321","0.0-1.0-141.0-0.0","0","0","83798","","null","","","null","15","","","","","","","","","","","","","","","",""
"","ITI","","html-keyboard-response","109","159324","0.0-1.0-144.0","0","0","83798","","null","","","null","15","","","","","","","","","","","","","","","NaN",""
"","S1","","html-keyboard-response","110","159576","0.0-1.0-146.0","0","0","83798","","null","","","null","16","","","","","","","","","","","","","","","",""
"","ISI","","html-keyboard-response","111","159729","0.0-1.0-147.0","0","0","83798","","null","","","null","16","NaN","","","","","","","","","","","","","","",""
"","S2","","html-keyboard-response","112","159982","0.0-1.0-148.0","0","0","83798","","null","","","null","16","","NaN","","","","","","","","","","","","","",""
"","response","","html-keyboard-response","113","160186","0.0-1.0-149.0-0.0","0","0","83798","","201","","","75","16","","","1","16","training","adjacent","AB","1","2","N.jpg","M.jpg","0","1","0","",""
"","feedback","","html-keyboard-response","114","161189","0.0-1.0-150.0-0.0","0","0","83798","","null","","","null","16","","","","","","","","","","","","","","","",""
"","time_out","","html-keyboard-response","115","163193","0.0-1.0-152.0-0.0","0","0","83798","","null","","","null","16","","","","","","","","","","","","","","","",""
"","ITI","","html-keyboard-response","116","164198","0.0-1.0-153.0","0","0","83798","","null","","","null","16","","","","","","","","","","","","","","","NaN",""
"","S1","","html-keyboard-response","117","164452","0.0-1.0-155.0","0","0","83798","","null","","","null","17","","","","","","","","","","","","","","","",""
"","ISI","","html-keyboard-response","118","164606","0.0-1.0-156.0","0","0","83798","","null","","","null","17","NaN","","","","","","","","","","","","","","",""
"","S2","","html-keyboard-response","119","164859","0.0-1.0-157.0","0","0","83798","","null","","","null","17","","NaN","","","","","","","","","","","","","",""
"","response","","html-keyboard-response","120","164986","0.0-1.0-158.0-0.0","0","0","83798","","125","","","68","17","","","1","17","training","adjacent","CD","3","4","Q.jpg","O.jpg","1","1","1","",""
"","feedback","","html-keyboard-response","121","165989","0.0-1.0-159.0-0.0","0","0","83798","","null","","","null","17","","","","","","","","","","","","","","","",""
"","ITI","","html-keyboard-response","122","166991","0.0-1.0-162.0","0","0","83798","","null","","","null","17","","","","","","","","","","","","","","","NaN",""
"","S1","","html-keyboard-response","123","167245","0.0-1.0-164.0","0","0","83798","","null","","","null","18","","","","","","","","","","","","","","","",""
"","ISI","","html-keyboard-response","124","167399","0.0-1.0-165.0","0","0","83798","","null","","","null","18","NaN","","","","","","","","","","","","","","",""
"","S2","","html-keyboard-response","125","167652","0.0-1.0-166.0","0","0","83798","","null","","","null","18","","NaN","","","","","","","","","","","","","",""
"","response","","html-keyboard-response","126","167764","0.0-1.0-167.0-0.0","0","0","83798","","111","","","75","18","","","1","18","training","adjacent","ED","5","4","R.jpg","O.jpg","0","0","1","",""
"","feedback","","html-keyboard-response","127","168767","0.0-1.0-168.0-0.0","0","0","83798","","null","","","null","18","","","","","","","","","","","","","","","",""
"","ITI","","html-keyboard-response","128","169769","0.0-1.0-171.0","0","0","83798","","null","","","null","18","","","","","","","","","","","","","","","NaN",""
"","S1","","html-keyboard-response","129","170022","0.0-1.0-173.0","0","0","83798","","null","","","null","19","","","","","","","","","","","","","","","",""
"","ISI","","html-keyboard-response","130","170175","0.0-1.0-174.0","0","0","83798","","null","","","null","19","NaN","","","","","","","","","","","","","","",""
"","S2","","html-keyboard-response","131","170427","0.0-1.0-175.0","0","0","83798","","null","","","null","19","","NaN","","","","","","","","","","","","","",""
"","response","","html-keyboard-response","132","170607","0.0-1.0-176.0-0.0","0","0","83798","","178","","","75","19","","","1","19","training","adjacent","EF","5","6","R.jpg","L.jpg","0","1","0","",""
"","feedback","","html-keyboard-response","133","171609","0.0-1.0-177.0-0.0","0","0","83798","","null","","","null","19","","","","","","","","","","","","","","","",""
"","time_out","","html-keyboard-response","134","173612","0.0-1.0-179.0-0.0","0","0","83798","","null","","","null","19","","","","","","","","","","","","","","","",""
"","ITI","","html-keyboard-response","135","174618","0.0-1.0-180.0","0","0","83798","","null","","","null","19","","","","","","","","","","","","","","","NaN",""
"","S1","","html-keyboard-response","136","174871","0.0-1.0-182.0","0","0","83798","","null","","","null","20","","","","","","","","","","","","","","","",""
"","ISI","","html-keyboard-response","137","175023","0.0-1.0-183.0","0","0","83798","","null","","","null","20","NaN","","","","","","","","","","","","","","",""
"","S2","","html-keyboard-response","138","175276","0.0-1.0-184.0","0","0","83798","","null","","","null","20","","NaN","","","","","","","","","","","","","",""
"","response","","html-keyboard-response","139","175397","0.0-1.0-185.0-0.0","0","0","83798","","119","","","68","20","","","1","20","training","adjacent","DC","4","3","O.jpg","Q.jpg","1","0","0","",""
"","feedback","","html-keyboard-response","140","176400","0.0-1.0-186.0-0.0","0","0","83798","","null","","","null","20","","","","","","","","","","","","","","","",""
"","time_out","","html-keyboard-response","141","178403","0.0-1.0-188.0-0.0","0","0","83798","","null","","","null","20","","","","","","","","","","","","","","","",""
"","ITI","","html-keyboard-response","142","179405","0.0-1.0-189.0","0","0","83798","","null","","","null","20","","","","","","","","","","","","","","","NaN",""
"","S1","","html-keyboard-response","143","179658","0.0-1.0-191.0","0","0","83798","","null","","","null","21","","","","","","","","","","","","","","","",""
"","ISI","","html-keyboard-response","144","179811","0.0-1.0-192.0","0","0","83798","","null","","","null","21","NaN","","","","","","","","","","","","","","",""
"","S2","","html-keyboard-response","145","180067","0.0-1.0-193.0","0","0","83798","","null","","","null","21","","NaN","","","","","","","","","","","","","",""
"","response","","html-keyboard-response","146","180418","0.0-1.0-194.0-0.0","0","0","83798","","350","","","68","21","","","1","21","training","adjacent","ED","5","4","R.jpg","O.jpg","1","0","0","",""
"","feedback","","html-keyboard-response","147","181421","0.0-1.0-195.0-0.0","0","0","83798","","null","","","null","21","","","","","","","","","","","","","","","",""
"","time_out","","html-keyboard-response","148","183424","0.0-1.0-197.0-0.0","0","0","83798","","null","","","null","21","","","","","","","","","","","","","","","",""
"","ITI","","html-keyboard-response","149","184427","0.0-1.0-198.0","0","0","83798","","null","","","null","21","","","","","","","","","","","","","","","NaN",""
"","S1","","html-keyboard-response","150","184683","0.0-1.0-200.0","0","0","83798","","null","","","null","22","","","","","","","","","","","","","","","",""
"","ISI","","html-keyboard-response","151","184836","0.0-1.0-201.0","0","0","83798","","null","","","null","22","NaN","","","","","","","","","","","","","","",""
"","S2","","html-keyboard-response","152","185091","0.0-1.0-202.0","0","0","83798","","null","","","null","22","","NaN","","","","","","","","","","","","","",""
"","response","","html-keyboard-response","153","185332","0.0-1.0-203.0-0.0","0","0","83798","","237","","","68","22","","","1","22","training","adjacent","CB","3","2","Q.jpg","M.jpg","1","0","0","",""
"","feedback","","html-keyboard-response","154","186337","0.0-1.0-204.0-0.0","0","0","83798","","null","","","null","22","","","","","","","","","","","","","","","",""
"","time_out","","html-keyboard-response","155","188340","0.0-1.0-206.0-0.0","0","0","83798","","null","","","null","22","","","","","","","","","","","","","","","",""
"","ITI","","html-keyboard-response","156","189342","0.0-1.0-207.0","0","0","83798","","null","","","null","22","","","","","","","","","","","","","","","NaN",""
"","S1","","html-keyboard-response","157","189596","0.0-1.0-209.0","0","0","83798","","null","","","null","23","","","","","","","","","","","","","","","",""
"","ISI","","html-keyboard-response","158","189749","0.0-1.0-210.0","0","0","83798","","null","","","null","23","NaN","","","","","","","","","","","","","","",""
"","S2","","html-keyboard-response","159","190001","0.0-1.0-211.0","0","0","83798","","null","","","null","23","","NaN","","","","","","","","","","","","","",""
"","response","","html-keyboard-response","160","190295","0.0-1.0-212.0-0.0","0","0","83798","","291","","","75","23","","","1","23","training","adjacent","FE","6","5","L.jpg","R.jpg","0","0","1","",""
"","feedback","","html-keyboard-response","161","191300","0.0-1.0-213.0-0.0","0","0","83798","","null","","","null","23","","","","","","","","","","","","","","","",""
"","ITI","","html-keyboard-response","162","192304","0.0-1.0-216.0","0","0","83798","","null","","","null","23","","","","","","","","","","","","","","","NaN",""
"","S1","","html-keyboard-response","163","192557","0.0-1.0-218.0","0","0","83798","","null","","","null","24","","","","","","","","","","","","","","","",""
"","ISI","","html-keyboard-response","164","192710","0.0-1.0-219.0","0","0","83798","","null","","","null","24","NaN","","","","","","","","","","","","","","",""
"","S2","","html-keyboard-response","165","192964","0.0-1.0-220.0","0","0","83798","","null","","","null","24","","NaN","","","","","","","","","","","","","",""
"","response","","html-keyboard-response","166","193286","0.0-1.0-221.0-0.0","0","0","83798","","321","","","75","24","","","1","24","training","adjacent","AB","1","2","N.jpg","M.jpg","0","1","0","",""
"","feedback","","html-keyboard-response","167","194291","0.0-1.0-222.0-0.0","0","0","83798","","null","","","null","24","","","","","","","","","","","","","","","",""
"","time_out","","html-keyboard-response","168","196296","0.0-1.0-224.0-0.0","0","0","83798","","null","","","null","24","","","","","","","","","","","","","","","",""
"","ITI","","html-keyboard-response","169","197299","0.0-1.0-225.0","0","0","83798","","null","","","null","24","","","","","","","","","","","","","","","NaN",""
"","S1","","html-keyboard-response","170","197554","0.0-1.0-227.0","0","0","83798","","null","","","null","25","","","","","","","","","","","","","","","",""
"","ISI","","html-keyboard-response","171","197708","0.0-1.0-228.0","0","0","83798","","null","","","null","25","NaN","","","","","","","","","","","","","","",""
"","S2","","html-keyboard-response","172","197961","0.0-1.0-229.0","0","0","83798","","null","","","null","25","","NaN","","","","","","","","","","","","","",""
"","response","","html-keyboard-response","173","198440","0.0-1.0-230.0-0.0","0","0","83798","","475","","","68","25","","","1","25","training","adjacent","BC","2","3","M.jpg","Q.jpg","1","1","1","",""
"","feedback","","html-keyboard-response","174","199449","0.0-1.0-231.0-0.0","0","0","83798","","null","","","null","25","","","","","","","","","","","","","","","",""
"","ITI","","html-keyboard-response","175","200456","0.0-1.0-234.0","0","0","83798","","null","","","null","25","","","","","","","","","","","","","","","NaN",""
"","S1","","html-keyboard-response","176","200710","0.0-1.0-236.0","0","0","83798","","null","","","null","26","","","","","","","","","","","","","","","",""
"","ISI","","html-keyboard-response","177","200867","0.0-1.0-237.0","0","0","83798","","null","","","null","26","NaN","","","","","","","","","","","","","","",""
"","S2","","html-keyboard-response","178","201130","0.0-1.0-238.0","0","0","83798","","null","","","null","26","","NaN","","","","","","","","","","","","","",""
"","response","","html-keyboard-response","179","201364","0.0-1.0-239.0-0.0","0","0","83798","","233","","","68","26","","","1","26","training","adjacent","DE","4","5","O.jpg","R.jpg","1","1","1","",""
"","feedback","","html-keyboard-response","180","202367","0.0-1.0-240.0-0.0","0","0","83798","","null","","","null","26","","","","","","","","","","","","","","","",""
"","ITI","","html-keyboard-response","181","203370","0.0-1.0-243.0","0","0","83798","","null","","","null","26","","","","","","","","","","","","","","","NaN",""
"","S1","","html-keyboard-response","182","203623","0.0-1.0-245.0","0","0","83798","","null","","","null","27","","","","","","","","","","","","","","","",""
"","ISI","","html-keyboard-response","183","203775","0.0-1.0-246.0","0","0","83798","","null","","","null","27","NaN","","","","","","","","","","","","","","",""
"","S2","","html-keyboard-response","184","204027","0.0-1.0-247.0","0","0","83798","","null","","","null","27","","NaN","","","","","","","","","","","","","",""
"","response","","html-keyboard-response","185","204187","0.0-1.0-248.0-0.0","0","0","83798","","159","","","75","27","","","1","27","training","adjacent","FG","6","7","L.jpg","P.jpg","0","1","0","",""
"","feedback","","html-keyboard-response","186","205191","0.0-1.0-249.0-0.0","0","0","83798","","null","","","null","27","","","","","","","","","","","","","","","",""
"","time_out","","html-keyboard-response","187","207193","0.0-1.0-251.0-0.0","0","0","83798","","null","","","null","27","","","","","","","","","","","","","","","",""
"","ITI","","html-keyboard-response","188","208196","0.0-1.0-252.0","0","0","83798","","null","","","null","27","","","","","","","","","","","","","","","NaN",""
"","S1","","html-keyboard-response","189","208451","0.0-1.0-254.0","0","0","83798","","null","","","null","28","","","","","","","","","","","","","","","",""
"","ISI","","html-keyboard-response","190","208604","0.0-1.0-255.0","0","0","83798","","null","","","null","28","NaN","","","","","","","","","","","","","","",""
"","S2","","html-keyboard-response","191","208856","0.0-1.0-256.0","0","0","83798","","null","","","null","28","","NaN","","","","","","","","","","","","","",""
"","response","","html-keyboard-response","192","208973","0.0-1.0-257.0-0.0","0","0","83798","","115","","","68","28","","","1","28","training","adjacent","DC","4","3","O.jpg","Q.jpg","1","0","0","",""
"","feedback","","html-keyboard-response","193","209976","0.0-1.0-258.0-0.0","0","0","83798","","null","","","null","28","","","","","","","","","","","","","","","",""
"","time_out","","html-keyboard-response","194","211982","0.0-1.0-260.0-0.0","0","0","83798","","null","","","null","28","","","","","","","","","","","","","","","",""
"","ITI","","html-keyboard-response","195","212985","0.0-1.0-261.0","0","0","83798","","null","","","null","28","","","","","","","","","","","","","","","NaN",""
"","S1","","html-keyboard-response","196","213237","0.0-1.0-263.0","0","0","83798","","null","","","null","29","","","","","","","","","","","","","","","",""
"","ISI","","html-keyboard-response","197","213389","0.0-1.0-264.0","0","0","83798","","null","","","null","29","NaN","","","","","","","","","","","","","","",""
"","S2","","html-keyboard-response","198","213652","0.0-1.0-265.0","0","0","83798","","null","","","null","29","","NaN","","","","","","","","","","","","","",""
"","response","","html-keyboard-response","199","213784","0.0-1.0-266.0-0.0","0","0","83798","","131","","","75","29","","","1","29","training","adjacent","ED","5","4","R.jpg","O.jpg","0","0","1","",""
"","feedback","","html-keyboard-response","200","214788","0.0-1.0-267.0-0.0","0","0","83798","","null","","","null","29","","","","","","","","","","","","","","","",""
"","ITI","","html-keyboard-response","201","215792","0.0-1.0-270.0","0","0","83798","","null","","","null","29","","","","","","","","","","","","","","","NaN",""
"","S1","","html-keyboard-response","202","216045","0.0-1.0-272.0","0","0","83798","","null","","","null","30","","","","","","","","","","","","","","","",""
"","ISI","","html-keyboard-response","203","216198","0.0-1.0-273.0","0","0","83798","","null","","","null","30","NaN","","","","","","","","","","","","","","",""
"","S2","","html-keyboard-response","204","216452","0.0-1.0-274.0","0","0","83798","","null","","","null","30","","NaN","","","","","","","","","","","","","",""
"","response","","html-keyboard-response","205","216692","0.0-1.0-275.0-0.0","0","0","83798","","237","","","75","30","","","1","30","training","adjacent","ED","5","4","R.jpg","O.jpg","0","0","1","",""
"","feedback","","html-keyboard-response","206","217696","0.0-1.0-276.0-0.0","0","0","83798","","null","","","null","30","","","","","","","","","","","","","","","",""
"","ITI","","html-keyboard-response","207","218699","0.0-1.0-279.0","0","0","83798","","null","","","null","30","","","","","","","","","","","","","","","NaN",""
"","S1","","html-keyboard-response","208","218955","0.0-1.0-281.0","0","0","83798","","null","","","null","31","","","","","","","","","","","","","","","",""
"","ISI","","html-keyboard-response","209","219108","0.0-1.0-282.0","0","0","83798","","null","","","null","31","NaN","","","","","","","","","","","","","","",""
"","S2","","html-keyboard-response","210","219360","0.0-1.0-283.0","0","0","83798","","null","","","null","31","","NaN","","","","","","","","","","","","","",""
"","response","","html-keyboard-response","211","219464","0.0-1.0-284.0-0.0","0","0","83798","","100","","","75","31","","","1","31","training","adjacent","FG","6","7","L.jpg","P.jpg","0","1","0","",""
"","feedback","","html-keyboard-response","212","220468","0.0-1.0-285.0-0.0","0","0","83798","","null","","","null","31","","","","","","","","","","","","","","","",""
"","time_out","","html-keyboard-response","213","222471","0.0-1.0-287.0-0.0","0","0","83798","","null","","","null","31","","","","","","","","","","","","","","","",""
"","ITI","","html-keyboard-response","214","223474","0.0-1.0-288.0","0","0","83798","","null","","","null","31","","","","","","","","","","","","","","","NaN",""
"","S1","","html-keyboard-response","215","223727","0.0-1.0-290.0","0","0","83798","","null","","","null","32","","","","","","","","","","","","","","","",""
"","ISI","","html-keyboard-response","216","223881","0.0-1.0-291.0","0","0","83798","","null","","","null","32","NaN","","","","","","","","","","","","","","",""
"","S2","","html-keyboard-response","217","224135","0.0-1.0-292.0","0","0","83798","","null","","","null","32","","NaN","","","","","","","","","","","","","",""
"","response","","html-keyboard-response","218","224226","0.0-1.0-293.0-0.0","0","0","83798","","90","","","68","32","","","1","32","training","adjacent","EF","5","6","R.jpg","L.jpg","1","1","1","",""
"","feedback","","html-keyboard-response","219","225229","0.0-1.0-294.0-0.0","0","0","83798","","null","","","null","32","","","","","","","","","","","","","","","",""
"","ITI","","html-keyboard-response","220","226233","0.0-1.0-297.0","0","0","83798","","null","","","null","32","","","","","","","","","","","","","","","NaN",""
"","S1","","html-keyboard-response","221","226498","0.0-1.0-299.0","0","0","83798","","null","","","null","33","","","","","","","","","","","","","","","",""
"","ISI","","html-keyboard-response","222","226652","0.0-1.0-300.0","0","0","83798","","null","","","null","33","NaN","","","","","","","","","","","","","","",""
"","S2","","html-keyboard-response","223","226905","0.0-1.0-301.0","0","0","83798","","null","","","null","33","","NaN","","","","","","","","","","","","","",""
"","response","","html-keyboard-response","224","227042","0.0-1.0-302.0-0.0","0","0","83798","","135","","","68","33","","","1","33","training","adjacent","BC","2","3","M.jpg","Q.jpg","1","1","1","",""
"","feedback","","html-keyboard-response","225","228046","0.0-1.0-303.0-0.0","0","0","83798","","null","","","null","33","","","","","","","","","","","","","","","",""
"","ITI","","html-keyboard-response","226","229049","0.0-1.0-306.0","0","0","83798","","null","","","null","33","","","","","","","","","","","","","","","NaN",""
"","S1","","html-keyboard-response","227","229303","0.0-1.0-308.0","0","0","83798","","null","","","null","34","","","","","","","","","","","","","","","",""
"","ISI","","html-keyboard-response","228","229456","0.0-1.0-309.0","0","0","83798","","null","","","null","34","NaN","","","","","","","","","","","","","","",""
"","S2","","html-keyboard-response","229","229709","0.0-1.0-310.0","0","0","83798","","null","","","null","34","","NaN","","","","","","","","","","","","","",""
"","response","","html-keyboard-response","230","230113","0.0-1.0-311.0-0.0","0","0","83798","","402","","","68","34","","","1","34","training","adjacent","BA","2","1","M.jpg","N.jpg","1","0","0","",""
"","feedback","","html-keyboard-response","231","231116","0.0-1.0-312.0-0.0","0","0","83798","","null","","","null","34","","","","","","","","","","","","","","","",""
"","time_out","","html-keyboard-response","232","233117","0.0-1.0-314.0-0.0","0","0","83798","","null","","","null","34","","","","","","","","","","","","","","","",""
"","ITI","","html-keyboard-response","233","234121","0.0-1.0-315.0","0","0","83798","","null","","","null","34","","","","","","","","","","","","","","","NaN",""
"","S1","","html-keyboard-response","234","234374","0.0-1.0-317.0","0","0","83798","","null","","","null","35","","","","","","","","","","","","","","","",""
"","ISI","","html-keyboard-response","235","234527","0.0-1.0-318.0","0","0","83798","","null","","","null","35","NaN","","","","","","","","","","","","","","",""
"","S2","","html-keyboard-response","236","234779","0.0-1.0-319.0","0","0","83798","","null","","","null","35","","NaN","","","","","","","","","","","","","",""
"","response","","html-keyboard-response","237","234990","0.0-1.0-320.0-0.0","0","0","83798","","210","","","68","35","","","1","35","training","adjacent","BA","2","1","M.jpg","N.jpg","1","0","0","",""
"","feedback","","html-keyboard-response","238","236009","0.0-1.0-321.0-0.0","0","0","83798","","null","","","null","35","","","","","","","","","","","","","","","",""
"","time_out","","html-keyboard-response","239","238012","0.0-1.0-323.0-0.0","0","0","83798","","null","","","null","35","","","","","","","","","","","","","","","",""
"","ITI","","html-keyboard-response","240","239014","0.0-1.0-324.0","0","0","83798","","null","","","null","35","","","","","","","","","","","","","","","NaN",""
"","S1","","html-keyboard-response","241","239269","0.0-1.0-326.0","0","0","83798","","null","","","null","36","","","","","","","","","","","","","","","",""
"","ISI","","html-keyboard-response","242","239423","0.0-1.0-327.0","0","0","83798","","null","","","null","36","NaN","","","","","","","","","","","","","","",""
"","S2","","html-keyboard-response","243","239676","0.0-1.0-328.0","0","0","83798","","null","","","null","36","","NaN","","","","","","","","","","","","","",""
"","response","","html-keyboard-response","244","240113","0.0-1.0-329.0-0.0","0","0","83798","","434","","","75","36","","","1","36","training","adjacent","EF","5","6","R.jpg","L.jpg","0","1","0","",""
"","feedback","","html-keyboard-response","245","241117","0.0-1.0-330.0-0.0","0","0","83798","","null","","","null","36","","","","","","","","","","","","","","","",""
"","time_out","","html-keyboard-response","246","243120","0.0-1.0-332.0-0.0","0","0","83798","","null","","","null","36","","","","","","","","","","","","","","","",""
"","ITI","","html-keyboard-response","247","244124","0.0-1.0-333.0","0","0","83798","","null","","","null","36","","","","","","","","","","","","","","","NaN",""
"","S1","","html-keyboard-response","248","244377","0.0-1.0-335.0","0","0","83798","","null","","","null","37","","","","","","","","","","","","","","","",""
"","ISI","","html-keyboard-response","249","244529","0.0-1.0-336.0","0","0","83798","","null","","","null","37","NaN","","","","","","","","","","","","","","",""
"","S2","","html-keyboard-response","250","244796","0.0-1.0-337.0","0","0","83798","","null","","","null","37","","NaN","","","","","","","","","","","","","",""
"","response","","html-keyboard-response","251","245111","0.0-1.0-338.0-0.0","0","0","83798","","311","","","68","37","","","1","37","training","adjacent","DE","4","5","O.jpg","R.jpg","1","1","1","",""
"","feedback","","html-keyboard-response","252","246113","0.0-1.0-339.0-0.0","0","0","83798","","null","","","null","37","","","","","","","","","","","","","","","",""
"","ITI","","html-keyboard-response","253","247118","0.0-1.0-342.0","0","0","83798","","null","","","null","37","","","","","","","","","","","","","","","NaN",""
"","S1","","html-keyboard-response","254","247372","0.0-1.0-344.0","0","0","83798","","null","","","null","38","","","","","","","","","","","","","","","",""
"","ISI","","html-keyboard-response","255","247525","0.0-1.0-345.0","0","0","83798","","null","","","null","38","NaN","","","","","","","","","","","","","","",""
"","S2","","html-keyboard-response","256","247779","0.0-1.0-346.0","0","0","83798","","null","","","null","38","","NaN","","","","","","","","","","","","","",""
"","response","","html-keyboard-response","257","248149","0.0-1.0-347.0-0.0","0","0","83798","","367","","","75","38","","","1","38","training","adjacent","BC","2","3","M.jpg","Q.jpg","0","1","0","",""
"","feedback","","html-keyboard-response","258","249154","0.0-1.0-348.0-0.0","0","0","83798","","null","","","null","38","","","","","","","","","","","","","","","",""
"","time_out","","html-keyboard-response","259","251156","0.0-1.0-350.0-0.0","0","0","83798","","null","","","null","38","","","","","","","","","","","","","","","",""
"","ITI","","html-keyboard-response","260","252158","0.0-1.0-351.0","0","0","83798","","null","","","null","38","","","","","","","","","","","","","","","NaN",""
"","S1","","html-keyboard-response","261","252410","0.0-1.0-353.0","0","0","83798","","null","","","null","39","","","","","","","","","","","","","","","",""
"","ISI","","html-keyboard-response","262","252563","0.0-1.0-354.0","0","0","83798","","null","","","null","39","NaN","","","","","","","","","","","","","","",""
"","S2","","html-keyboard-response","263","252816","0.0-1.0-355.0","0","0","83798","","null","","","null","39","","NaN","","","","","","","","","","","","","",""
"","response","","html-keyboard-response","264","253357","0.0-1.0-356.0-0.0","0","0","83798","","540","","","75","39","","","1","39","training","adjacent","CB","3","2","Q.jpg","M.jpg","0","0","1","",""
"","feedback","","html-keyboard-response","265","254359","0.0-1.0-357.0-0.0","0","0","83798","","null","","","null","39","","","","","","","","","","","","","","","",""
"","ITI","","html-keyboard-response","266","255361","0.0-1.0-360.0","0","0","83798","","null","","","null","39","","","","","","","","","","","","","","","NaN",""
"","S1","","html-keyboard-response","267","255629","0.0-1.0-362.0","0","0","83798","","null","","","null","40","","","","","","","","","","","","","","","",""
"","ISI","","html-keyboard-response","268","255781","0.0-1.0-363.0","0","0","83798","","null","","","null","40","NaN","","","","","","","","","","","","","","",""
"","S2","","html-keyboard-response","269","256038","0.0-1.0-364.0","0","0","83798","","null","","","null","40","","NaN","","","","","","","","","","","","","",""
"","response","","html-keyboard-response","270","256292","0.0-1.0-365.0-0.0","0","0","83798","","252","","","75","40","","","1","40","training","adjacent","GF","7","6","P.jpg","L.jpg","0","0","1","",""
"","feedback","","html-keyboard-response","271","257294","0.0-1.0-366.0-0.0","0","0","83798","","null","","","null","40","","","","","","","","","","","","","","","",""
"","ITI","","html-keyboard-response","272","258297","0.0-1.0-369.0","0","0","83798","","null","","","null","40","","","","","","","","","","","","","","","NaN",""
"","S1","","html-keyboard-response","273","258549","0.0-1.0-371.0","0","0","83798","","null","","","null","41","","","","","","","","","","","","","","","",""
"","ISI","","html-keyboard-response","274","258702","0.0-1.0-372.0","0","0","83798","","null","","","null","41","NaN","","","","","","","","","","","","","","",""
"","S2","","html-keyboard-response","275","258956","0.0-1.0-373.0","0","0","83798","","null","","","null","41","","NaN","","","","","","","","","","","","","",""
"","response","","html-keyboard-response","276","259112","0.0-1.0-374.0-0.0","0","0","83798","","154","","","68","41","","","1","41","training","adjacent","AB","1","2","N.jpg","M.jpg","1","1","1","",""
"","feedback","","html-keyboard-response","277","260116","0.0-1.0-375.0-0.0","0","0","83798","","null","","","null","41","","","","","","","","","","","","","","","",""
"","ITI","","html-keyboard-response","278","261120","0.0-1.0-378.0","0","0","83798","","null","","","null","41","","","","","","","","","","","","","","","NaN",""
"","S1","","html-keyboard-response","279","261373","0.0-1.0-380.0","0","0","83798","","null","","","null","42","","","","","","","","","","","","","","","",""
"","ISI","","html-keyboard-response","280","261526","0.0-1.0-381.0","0","0","83798","","null","","","null","42","NaN","","","","","","","","","","","","","","",""
"","S2","","html-keyboard-response","281","261780","0.0-1.0-382.0","0","0","83798","","null","","","null","42","","NaN","","","","","","","","","","","","","",""
"","response","","html-keyboard-response","282","261946","0.0-1.0-383.0-0.0","0","0","83798","","164","","","75","42","","","1","42","training","adjacent","FG","6","7","L.jpg","P.jpg","0","1","0","",""
"","feedback","","html-keyboard-response","283","262950","0.0-1.0-384.0-0.0","0","0","83798","","null","","","null","42","","","","","","","","","","","","","","","",""
"","time_out","","html-keyboard-response","284","264952","0.0-1.0-386.0-0.0","0","0","83798","","null","","","null","42","","","","","","","","","","","","","","","",""
"","ITI","","html-keyboard-response","285","265955","0.0-1.0-387.0","0","0","83798","","null","","","null","42","","","","","","","","","","","","","","","NaN",""
"","S1","","html-keyboard-response","286","266210","0.0-1.0-389.0","0","0","83798","","null","","","null","43","","","","","","","","","","","","","","","",""
"","ISI","","html-keyboard-response","287","266377","0.0-1.0-390.0","0","0","83798","","null","","","null","43","NaN","","","","","","","","","","","","","","",""
"","S2","","html-keyboard-response","288","266630","0.0-1.0-391.0","0","0","83798","","null","","","null","43","","NaN","","","","","","","","","","","","","",""
"","response","","html-keyboard-response","289","266696","0.0-1.0-392.0-0.0","0","0","83798","","65","","","75","43","","","1","43","training","adjacent","FE","6","5","L.jpg","R.jpg","0","0","1","",""
"","feedback","","html-keyboard-response","290","267699","0.0-1.0-393.0-0.0","0","0","83798","","null","","","null","43","","","","","","","","","","","","","","","",""
"","ITI","","html-keyboard-response","291","268704","0.0-1.0-396.0","0","0","83798","","null","","","null","43","","","","","","","","","","","","","","","NaN",""
"","S1","","html-keyboard-response","292","268956","0.0-1.0-398.0","0","0","83798","","null","","","null","44","","","","","","","","","","","","","","","",""
"","ISI","","html-keyboard-response","293","269111","0.0-1.0-399.0","0","0","83798","","null","","","null","44","NaN","","","","","","","","","","","","","","",""
"","S2","","html-keyboard-response","294","269366","0.0-1.0-400.0","0","0","83798","","null","","","null","44","","NaN","","","","","","","","","","","","","",""
"","response","","html-keyboard-response","295","269415","0.0-1.0-401.0-0.0","0","0","83798","","44","","","68","44","","","1","44","training","adjacent","DC","4","3","O.jpg","Q.jpg","1","0","0","",""
"","feedback","","html-keyboard-response","296","270421","0.0-1.0-402.0-0.0","0","0","83798","","null","","","null","44","","","","","","","","","","","","","","","",""
"","time_out","","html-keyboard-response","297","272427","0.0-1.0-404.0-0.0","0","0","83798","","null","","","null","44","","","","","","","","","","","","","","","",""
"","ITI","","html-keyboard-response","298","273431","0.0-1.0-405.0","0","0","83798","","null","","","null","44","","","","","","","","","","","","","","","NaN",""
"","S1","","html-keyboard-response","299","273684","0.0-1.0-407.0","0","0","83798","","null","","","null","45","","","","","","","","","","","","","","","",""
"","ISI","","html-keyboard-response","300","273836","0.0-1.0-408.0","0","0","83798","","null","","","null","45","NaN","","","","","","","","","","","","","","",""
"","S2","","html-keyboard-response","301","274089","0.0-1.0-409.0","0","0","83798","","null","","","null","45","","NaN","","","","","","","","","","","","","",""
"","response","","html-keyboard-response","302","274158","0.0-1.0-410.0-0.0","0","0","83798","","65","","","75","45","","","1","45","training","adjacent","GF","7","6","P.jpg","L.jpg","0","0","1","",""
"","feedback","","html-keyboard-response","303","275162","0.0-1.0-411.0-0.0","0","0","83798","","null","","","null","45","","","","","","","","","","","","","","","",""
"","ITI","","html-keyboard-response","304","276164","0.0-1.0-414.0","0","0","83798","","null","","","null","45","","","","","","","","","","","","","","","NaN",""
"","S1","","html-keyboard-response","305","276418","0.0-1.0-416.0","0","0","83798","","null","","","null","46","","","","","","","","","","","","","","","",""
"","ISI","","html-keyboard-response","306","276571","0.0-1.0-417.0","0","0","83798","","null","","","null","46","NaN","","","","","","","","","","","","","","",""
"","S2","","html-keyboard-response","307","276823","0.0-1.0-418.0","0","0","83798","","null","","","null","46","","NaN","","","","","","","","","","","","","",""
"","response","","html-keyboard-response","308","277119","0.0-1.0-419.0-0.0","0","0","83798","","294","","","68","46","","","1","46","training","adjacent","FE","6","5","L.jpg","R.jpg","1","0","0","",""
"","feedback","","html-keyboard-response","309","278122","0.0-1.0-420.0-0.0","0","0","83798","","null","","","null","46","","","","","","","","","","","","","","","",""
"","time_out","","html-keyboard-response","310","280124","0.0-1.0-422.0-0.0","0","0","83798","","null","","","null","46","","","","","","","","","","","","","","","",""
"","ITI","","html-keyboard-response","311","281129","0.0-1.0-423.0","0","0","83798","","null","","","null","46","","","","","","","","","","","","","","","NaN",""
"","S1","","html-keyboard-response","312","281384","0.0-1.0-425.0","0","0","83798","","null","","","null","47","","","","","","","","","","","","","","","",""
"","ISI","","html-keyboard-response","313","281538","0.0-1.0-426.0","0","0","83798","","null","","","null","47","NaN","","","","","","","","","","","","","","",""
"","S2","","html-keyboard-response","314","281792","0.0-1.0-427.0","0","0","83798","","null","","","null","47","","NaN","","","","","","","","","","","","","",""
"","response","","html-keyboard-response","315","282638","0.0-1.0-428.0-0.0","0","0","83798","","841","","","75","47","","","1","47","training","adjacent","CD","3","4","Q.jpg","O.jpg","0","1","0","",""
"","feedback","","html-keyboard-response","316","283642","0.0-1.0-429.0-0.0","0","0","83798","","null","","","null","47","","","","","","","","","","","","","","","",""
"","time_out","","html-keyboard-response","317","285646","0.0-1.0-431.0-0.0","0","0","83798","","null","","","null","47","","","","","","","","","","","","","","","",""
"","ITI","","html-keyboard-response","318","286648","0.0-1.0-432.0","0","0","83798","","null","","","null","47","","","","","","","","","","","","","","","NaN",""
"","block_over","","html-keyboard-response","319","296444","0.0-1.0-433.0-0.0","0","0","83798","","9794","","","32","47","","","","","","","","","","","","","","","",""
"","S1","","html-keyboard-response","320","296696","0.0-1.0-434.0","0","0","83798","","null","","","null","48","","","","","","","","","","","","","","","",""
"","ISI","","html-keyboard-response","321","296852","0.0-1.0-435.0","0","0","83798","","null","","","null","48","NaN","","","","","","","","","","","","","","",""
"","S2","","html-keyboard-response","322","297106","0.0-1.0-436.0","0","0","83798","","null","","","null","48","","NaN","","","","","","","","","","","","","",""
"","response","","html-keyboard-response","323","297946","0.0-1.0-437.0-0.0","0","0","83798","","839","","","75","48","","","2","48","training","adjacent","DE","4","5","O.jpg","R.jpg","0","1","0","",""
"","feedback","","html-keyboard-response","324","298949","0.0-1.0-438.0-0.0","0","0","83798","","null","","","null","48","","","","","","","","","","","","","","","",""
"","time_out","","html-keyboard-response","325","300954","0.0-1.0-440.0-0.0","0","0","83798","","null","","","null","48","","","","","","","","","","","","","","","",""
"","ITI","","html-keyboard-response","326","301958","0.0-1.0-441.0","0","0","83798","","null","","","null","48","","","","","","","","","","","","","","","NaN",""
"","S1","","html-keyboard-response","327","302212","0.0-1.0-443.0","0","0","83798","","null","","","null","49","","","","","","","","","","","","","","","",""
"","ISI","","html-keyboard-response","328","302367","0.0-1.0-444.0","0","0","83798","","null","","","null","49","NaN","","","","","","","","","","","","","","",""
"","S2","","html-keyboard-response","329","302623","0.0-1.0-445.0","0","0","83798","","null","","","null","49","","NaN","","","","","","","","","","","","","",""
"","response","","html-keyboard-response","330","303958","0.0-1.0-446.0-0.0","0","0","83798","","1332","","","68","49","","","2","49","training","adjacent","GF","7","6","P.jpg","L.jpg","1","0","0","",""
"","feedback","","html-keyboard-response","331","304964","0.0-1.0-447.0-0.0","0","0","83798","","null","","","null","49","","","","","","","","","","","","","","","",""
"","time_out","","html-keyboard-response","332","306968","0.0-1.0-449.0-0.0","0","0","83798","","null","","","null","49","","","","","","","","","","","","","","","",""
"","ITI","","html-keyboard-response","333","307971","0.0-1.0-450.0","0","0","83798","","null","","","null","49","","","","","","","","","","","","","","","NaN",""
"","S1","","html-keyboard-response","334","308225","0.0-1.0-452.0","0","0","83798","","null","","","null","50","","","","","","","","","","","","","","","",""
"","ISI","","html-keyboard-response","335","308378","0.0-1.0-453.0","0","0","83798","","null","","","null","50","NaN","","","","","","","","","","","","","","",""
"","S2","","html-keyboard-response","336","308630","0.0-1.0-454.0","0","0","83798","","null","","","null","50","","NaN","","","","","","","","","","","","","",""
"","response","","html-keyboard-response","337","308938","0.0-1.0-455.0-0.0","0","0","83798","","305","","","75","50","","","2","50","training","adjacent","DE","4","5","O.jpg","R.jpg","0","1","0","",""
"","feedback","","html-keyboard-response","338","309940","0.0-1.0-456.0-0.0","0","0","83798","","null","","","null","50","","","","","","","","","","","","","","","",""
"","time_out","","html-keyboard-response","339","311946","0.0-1.0-458.0-0.0","0","0","83798","","null","","","null","50","","","","","","","","","","","","","","","",""
"","ITI","","html-keyboard-response","340","312951","0.0-1.0-459.0","0","0","83798","","null","","","null","50","","","","","","","","","","","","","","","NaN",""
"","S1","","html-keyboard-response","341","313204","0.0-1.0-461.0","0","0","83798","","null","","","null","51","","","","","","","","","","","","","","","",""
"","ISI","","html-keyboard-response","342","313359","0.0-1.0-462.0","0","0","83798","","null","","","null","51","NaN","","","","","","","","","","","","","","",""
"","S2","","html-keyboard-response","343","313613","0.0-1.0-463.0","0","0","83798","","null","","","null","51","","NaN","","","","","","","","","","","","","",""
"","response","","html-keyboard-response","344","313665","0.0-1.0-464.0-0.0","0","0","83798","","48","","","68","51","","","2","51","training","adjacent","CD","3","4","Q.jpg","O.jpg","1","1","1","",""
"","feedback","","html-keyboard-response","345","314670","0.0-1.0-465.0-0.0","0","0","83798","","null","","","null","51","","","","","","","","","","","","","","","",""
"","ITI","","html-keyboard-response","346","315672","0.0-1.0-468.0","0","0","83798","","null","","","null","51","","","","","","","","","","","","","","","NaN",""
"","S1","","html-keyboard-response","347","315929","0.0-1.0-470.0","0","0","83798","","null","","","null","52","","","","","","","","","","","","","","","",""
"","ISI","","html-keyboard-response","348","316083","0.0-1.0-471.0","0","0","83798","","null","","","null","52","NaN","","","","","","","","","","","","","","",""
"","S2","","html-keyboard-response","349","316339","0.0-1.0-472.0","0","0","83798","","null","","","null","52","","NaN","","","","","","","","","","","","","",""
"","response","","html-keyboard-response","350","316607","0.0-1.0-473.0-0.0","0","0","83798","","264","","","75","52","","","2","52","training","adjacent","CB","3","2","Q.jpg","M.jpg","0","0","1","",""
"","feedback","","html-keyboard-response","351","317609","0.0-1.0-474.0-0.0","0","0","83798","","null","","","null","52","","","","","","","","","","","","","","","",""
"","ITI","","html-keyboard-response","352","318623","0.0-1.0-477.0","0","0","83798","","null","","","null","52","","","","","","","","","","","","","","","NaN",""
"","S1","","html-keyboard-response","353","318875","0.0-1.0-479.0","0","0","83798","","null","","","null","53","","","","","","","","","","","","","","","",""
"","ISI","","html-keyboard-response","354","319028","0.0-1.0-480.0","0","0","83798","","null","","","null","53","NaN","","","","","","","","","","","","","","",""
"","S2","","html-keyboard-response","355","319282","0.0-1.0-481.0","0","0","83798","","null","","","null","53","","NaN","","","","","","","","","","","","","",""
"","response","","html-keyboard-response","356","319654","0.0-1.0-482.0-0.0","0","0","83798","","371","","","68","53","","","2","53","training","adjacent","BC","2","3","M.jpg","Q.jpg","1","1","1","",""
"","feedback","","html-keyboard-response","357","320657","0.0-1.0-483.0-0.0","0","0","83798","","null","","","null","53","","","","","","","","","","","","","","","",""
"","ITI","","html-keyboard-response","358","321660","0.0-1.0-486.0","0","0","83798","","null","","","null","53","","","","","","","","","","","","","","","NaN",""
"","S1","","html-keyboard-response","359","321914","0.0-1.0-488.0","0","0","83798","","null","","","null","54","","","","","","","","","","","","","","","",""
"","ISI","","html-keyboard-response","360","322069","0.0-1.0-489.0","0","0","83798","","null","","","null","54","NaN","","","","","","","","","","","","","","",""
"","S2","","html-keyboard-response","361","322338","0.0-1.0-490.0","0","0","83798","","null","","","null","54","","NaN","","","","","","","","","","","","","",""
"","response","","html-keyboard-response","362","322562","0.0-1.0-491.0-0.0","0","0","83798","","220","","","68","54","","","2","54","training","adjacent","DE","4","5","O.jpg","R.jpg","1","1","1","",""
"","feedback","","html-keyboard-response","363","323565","0.0-1.0-492.0-0.0","0","0","83798","","null","","","null","54","","","","","","","","","","","","","","","",""
"","ITI","","html-keyboard-response","364","324568","0.0-1.0-495.0","0","0","83798","","null","","","null","54","","","","","","","","","","","","","","","NaN",""
"","S1","","html-keyboard-response","365","324820","0.0-1.0-497.0","0","0","83798","","null","","","null","55","","","","","","","","","","","","","","","",""
"","ISI","","html-keyboard-response","366","324974","0.0-1.0-498.0","0","0","83798","","null","","","null","55","NaN","","","","","","","","","","","","","","",""
"","S2","","html-keyboard-response","367","325231","0.0-1.0-499.0","0","0","83798","","null","","","null","55","","NaN","","","","","","","","","","","","","",""
"","response","","html-keyboard-response","368","325484","0.0-1.0-500.0-0.0","0","0","83798","","251","","","75","55","","","2","55","training","adjacent","FE","6","5","L.jpg","R.jpg","0","0","1","",""
"","feedback","","html-keyboard-response","369","326487","0.0-1.0-501.0-0.0","0","0","83798","","null","","","null","55","","","","","","","","","","","","","","","",""
"","ITI","","html-keyboard-response","370","327493","0.0-1.0-504.0","0","0","83798","","null","","","null","55","","","","","","","","","","","","","","","NaN",""
"","S1","","html-keyboard-response","371","327746","0.0-1.0-506.0","0","0","83798","","null","","","null","56","","","","","","","","","","","","","","","",""
"","ISI","","html-keyboard-response","372","327899","0.0-1.0-507.0","0","0","83798","","null","","","null","56","NaN","","","","","","","","","","","","","","",""
"","S2","","html-keyboard-response","373","328152","0.0-1.0-508.0","0","0","83798","","null","","","null","56","","NaN","","","","","","","","","","","","","",""
"","response","","html-keyboard-response","374","328278","0.0-1.0-509.0-0.0","0","0","83798","","123","","","75","56","","","2","56","training","adjacent","FE","6","5","L.jpg","R.jpg","0","0","1","",""
"","feedback","","html-keyboard-response","375","329284","0.0-1.0-510.0-0.0","0","0","83798","","null","","","null","56","","","","","","","","","","","","","","","",""
"","ITI","","html-keyboard-response","376","330288","0.0-1.0-513.0","0","0","83798","","null","","","null","56","","","","","","","","","","","","","","","NaN",""
"","S1","","html-keyboard-response","377","330542","0.0-1.0-515.0","0","0","83798","","null","","","null","57","","","","","","","","","","","","","","","",""
"","ISI","","html-keyboard-response","378","330696","0.0-1.0-516.0","0","0","83798","","null","","","null","57","NaN","","","","","","","","","","","","","","",""
"","S2","","html-keyboard-response","379","330949","0.0-1.0-517.0","0","0","83798","","null","","","null","57","","NaN","","","","","","","","","","","","","",""
"","response","","html-keyboard-response","380","331207","0.0-1.0-518.0-0.0","0","0","83798","","255","","","75","57","","","2","57","training","adjacent","AB","1","2","N.jpg","M.jpg","0","1","0","",""
"","feedback","","html-keyboard-response","381","332212","0.0-1.0-519.0-0.0","0","0","83798","","null","","","null","57","","","","","","","","","","","","","","","",""
"","time_out","","html-keyboard-response","382","334215","0.0-1.0-521.0-0.0","0","0","83798","","null","","","null","57","","","","","","","","","","","","","","","",""
"","ITI","","html-keyboard-response","383","335218","0.0-1.0-522.0","0","0","83798","","null","","","null","57","","","","","","","","","","","","","","","NaN",""
"","S1","","html-keyboard-response","384","335470","0.0-1.0-524.0","0","0","83798","","null","","","null","58","","","","","","","","","","","","","","","",""
"","ISI","","html-keyboard-response","385","335623","0.0-1.0-525.0","0","0","83798","","null","","","null","58","NaN","","","","","","","","","","","","","","",""
"","S2","","html-keyboard-response","386","335876","0.0-1.0-526.0","0","0","83798","","null","","","null","58","","NaN","","","","","","","","","","","","","",""
"","response","","html-keyboard-response","387","335959","0.0-1.0-527.0-0.0","0","0","83798","","80","","","68","58","","","2","58","training","adjacent","CD","3","4","Q.jpg","O.jpg","1","1","1","",""
"","feedback","","html-keyboard-response","388","336962","0.0-1.0-528.0-0.0","0","0","83798","","null","","","null","58","","","","","","","","","","","","","","","",""
"","ITI","","html-keyboard-response","389","337965","0.0-1.0-531.0","0","0","83798","","null","","","null","58","","","","","","","","","","","","","","","NaN",""
"","S1","","html-keyboard-response","390","338217","0.0-1.0-533.0","0","0","83798","","null","","","null","59","","","","","","","","","","","","","","","",""
"","ISI","","html-keyboard-response","391","338370","0.0-1.0-534.0","0","0","83798","","null","","","null","59","NaN","","","","","","","","","","","","","","",""
"","S2","","html-keyboard-response","392","338624","0.0-1.0-535.0","0","0","83798","","null","","","null","59","","NaN","","","","","","","","","","","","","",""
"","response","","html-keyboard-response","393","338832","0.0-1.0-536.0-0.0","0","0","83798","","206","","","68","59","","","2","59","training","adjacent","ED","5","4","R.jpg","O.jpg","1","0","0","",""
"","feedback","","html-keyboard-response","394","339837","0.0-1.0-537.0-0.0","0","0","83798","","null","","","null","59","","","","","","","","","","","","","","","",""
"","time_out","","html-keyboard-response","395","341841","0.0-1.0-539.0-0.0","0","0","83798","","null","","","null","59","","","","","","","","","","","","","","","",""
"","ITI","","html-keyboard-response","396","342842","0.0-1.0-540.0","0","0","83798","","null","","","null","59","","","","","","","","","","","","","","","NaN",""
"","S1","","html-keyboard-response","397","343095","0.0-1.0-542.0","0","0","83798","","null","","","null","60","","","","","","","","","","","","","","","",""
"","ISI","","html-keyboard-response","398","343248","0.0-1.0-543.0","0","0","83798","","null","","","null","60","NaN","","","","","","","","","","","","","","",""
"","S2","","html-keyboard-response","399","343503","0.0-1.0-544.0","0","0","83798","","null","","","null","60","","NaN","","","","","","","","","","","","","",""
"","response","","html-keyboard-response","400","343641","0.0-1.0-545.0-0.0","0","0","83798","","134","","","75","60","","","2","60","training","adjacent","GF","7","6","P.jpg","L.jpg","0","0","1","",""
"","feedback","","html-keyboard-response","401","344646","0.0-1.0-546.0-0.0","0","0","83798","","null","","","null","60","","","","","","","","","","","","","","","",""
"","ITI","","html-keyboard-response","402","345649","0.0-1.0-549.0","0","0","83798","","null","","","null","60","","","","","","","","","","","","","","","NaN",""
"","S1","","html-keyboard-response","403","345902","0.0-1.0-551.0","0","0","83798","","null","","","null","61","","","","","","","","","","","","","","","",""
"","ISI","","html-keyboard-response","404","346059","0.0-1.0-552.0","0","0","83798","","null","","","null","61","NaN","","","","","","","","","","","","","","",""
"","S2","","html-keyboard-response","405","346321","0.0-1.0-553.0","0","0","83798","","null","","","null","61","","NaN","","","","","","","","","","","","","",""
"","response","","html-keyboard-response","406","346519","0.0-1.0-554.0-0.0","0","0","83798","","195","","","75","61","","","2","61","training","adjacent","EF","5","6","R.jpg","L.jpg","0","1","0","",""
"","feedback","","html-keyboard-response","407","347524","0.0-1.0-555.0-0.0","0","0","83798","","null","","","null","61","","","","","","","","","","","","","","","",""
"","time_out","","html-keyboard-response","408","349529","0.0-1.0-557.0-0.0","0","0","83798","","null","","","null","61","","","","","","","","","","","","","","","",""
"","ITI","","html-keyboard-response","409","350532","0.0-1.0-558.0","0","0","83798","","null","","","null","61","","","","","","","","","","","","","","","NaN",""
"","S1","","html-keyboard-response","410","350784","0.0-1.0-560.0","0","0","83798","","null","","","null","62","","","","","","","","","","","","","","","",""
"","ISI","","html-keyboard-response","411","350937","0.0-1.0-561.0","0","0","83798","","null","","","null","62","NaN","","","","","","","","","","","","","","",""
"","S2","","html-keyboard-response","412","351192","0.0-1.0-562.0","0","0","83798","","null","","","null","62","","NaN","","","","","","","","","","","","","",""
"","response","","html-keyboard-response","413","351356","0.0-1.0-563.0-0.0","0","0","83798","","160","","","68","62","","","2","62","training","adjacent","DE","4","5","O.jpg","R.jpg","1","1","1","",""
"","feedback","","html-keyboard-response","414","352360","0.0-1.0-564.0-0.0","0","0","83798","","null","","","null","62","","","","","","","","","","","","","","","",""
"","ITI","","html-keyboard-response","415","353363","0.0-1.0-567.0","0","0","83798","","null","","","null","62","","","","","","","","","","","","","","","NaN",""
"","S1","","html-keyboard-response","416","353616","0.0-1.0-569.0","0","0","83798","","null","","","null","63","","","","","","","","","","","","","","","",""
"","ISI","","html-keyboard-response","417","353768","0.0-1.0-570.0","0","0","83798","","null","","","null","63","NaN","","","","","","","","","","","","","","",""
"","S2","","html-keyboard-response","418","354021","0.0-1.0-571.0","0","0","83798","","null","","","null","63","","NaN","","","","","","","","","","","","","",""
"","response","","html-keyboard-response","419","354335","0.0-1.0-572.0-0.0","0","0","83798","","312","","","68","63","","","2","63","training","adjacent","BC","2","3","M.jpg","Q.jpg","1","1","1","",""
"","feedback","","html-keyboard-response","420","355339","0.0-1.0-573.0-0.0","0","0","83798","","null","","","null","63","","","","","","","","","","","","","","","",""
"","ITI","","html-keyboard-response","421","356343","0.0-1.0-576.0","0","0","83798","","null","","","null","63","","","","","","","","","","","","","","","NaN",""
"","S1","","html-keyboard-response","422","356596","0.0-1.0-578.0","0","0","83798","","null","","","null","64","","","","","","","","","","","","","","","",""
"","ISI","","html-keyboard-response","423","356748","0.0-1.0-579.0","0","0","83798","","null","","","null","64","NaN","","","","","","","","","","","","","","",""
"","S2","","html-keyboard-response","424","357002","0.0-1.0-580.0","0","0","83798","","null","","","null","64","","NaN","","","","","","","","","","","","","",""
"","response","","html-keyboard-response","425","357303","0.0-1.0-581.0-0.0","0","0","83798","","299","","","75","64","","","2","64","training","adjacent","BA","2","1","M.jpg","N.jpg","0","0","1","",""
"","feedback","","html-keyboard-response","426","358306","0.0-1.0-582.0-0.0","0","0","83798","","null","","","null","64","","","","","","","","","","","","","","","",""
"","ITI","","html-keyboard-response","427","359309","0.0-1.0-585.0","0","0","83798","","null","","","null","64","","","","","","","","","","","","","","","NaN",""
"","S1","","html-keyboard-response","428","359562","0.0-1.0-587.0","0","0","83798","","null","","","null","65","","","","","","","","","","","","","","","",""
"","ISI","","html-keyboard-response","429","359715","0.0-1.0-588.0","0","0","83798","","null","","","null","65","NaN","","","","","","","","","","","","","","",""
"","S2","","html-keyboard-response","430","359970","0.0-1.0-589.0","0","0","83798","","null","","","null","65","","NaN","","","","","","","","","","","","","",""
"","response","","html-keyboard-response","431","360265","0.0-1.0-590.0-0.0","0","0","83798","","293","","","68","65","","","2","65","training","adjacent","EF","5","6","R.jpg","L.jpg","1","1","1","",""
"","feedback","","html-keyboard-response","432","361269","0.0-1.0-591.0-0.0","0","0","83798","","null","","","null","65","","","","","","","","","","","","","","","",""
"","ITI","","html-keyboard-response","433","362274","0.0-1.0-594.0","0","0","83798","","null","","","null","65","","","","","","","","","","","","","","","NaN",""
"","S1","","html-keyboard-response","434","362530","0.0-1.0-596.0","0","0","83798","","null","","","null","66","","","","","","","","","","","","","","","",""
"","ISI","","html-keyboard-response","435","362685","0.0-1.0-597.0","0","0","83798","","null","","","null","66","NaN","","","","","","","","","","","","","","",""
"","S2","","html-keyboard-response","436","362940","0.0-1.0-598.0","0","0","83798","","null","","","null","66","","NaN","","","","","","","","","","","","","",""
"","response","","html-keyboard-response","437","363215","0.0-1.0-599.0-0.0","0","0","83798","","273","","","75","66","","","2","66","training","adjacent","DC","4","3","O.jpg","Q.jpg","0","0","1","",""
"","feedback","","html-keyboard-response","438","364219","0.0-1.0-600.0-0.0","0","0","83798","","null","","","null","66","","","","","","","","","","","","","","","",""
"","ITI","","html-keyboard-response","439","365225","0.0-1.0-603.0","0","0","83798","","null","","","null","66","","","","","","","","","","","","","","","NaN",""
"","S1","","html-keyboard-response","440","365480","0.0-1.0-605.0","0","0","83798","","null","","","null","67","","","","","","","","","","","","","","","",""
"","ISI","","html-keyboard-response","441","365634","0.0-1.0-606.0","0","0","83798","","null","","","null","67","NaN","","","","","","","","","","","","","","",""
"","S2","","html-keyboard-response","442","365887","0.0-1.0-607.0","0","0","83798","","null","","","null","67","","NaN","","","","","","","","","","","","","",""
"","response","","html-keyboard-response","443","366130","0.0-1.0-608.0-0.0","0","0","83798","","242","","","68","67","","","2","67","training","adjacent","FG","6","7","L.jpg","P.jpg","1","1","1","",""
"","feedback","","html-keyboard-response","444","367135","0.0-1.0-609.0-0.0","0","0","83798","","null","","","null","67","","","","","","","","","","","","","","","",""
"","ITI","","html-keyboard-response","445","368139","0.0-1.0-612.0","0","0","83798","","null","","","null","67","","","","","","","","","","","","","","","NaN",""
"","S1","","html-keyboard-response","446","368391","0.0-1.0-614.0","0","0","83798","","null","","","null","68","","","","","","","","","","","","","","","",""
"","ISI","","html-keyboard-response","447","368544","0.0-1.0-615.0","0","0","83798","","null","","","null","68","NaN","","","","","","","","","","","","","","",""
"","S2","","html-keyboard-response","448","368795","0.0-1.0-616.0","0","0","83798","","null","","","null","68","","NaN","","","","","","","","","","","","","",""
"","response","","html-keyboard-response","449","369015","0.0-1.0-617.0-0.0","0","0","83798","","218","","","75","68","","","2","68","training","adjacent","ED","5","4","R.jpg","O.jpg","0","0","1","",""
"","feedback","","html-keyboard-response","450","370017","0.0-1.0-618.0-0.0","0","0","83798","","null","","","null","68","","","","","","","","","","","","","","","",""
"","ITI","","html-keyboard-response","451","371020","0.0-1.0-621.0","0","0","83798","","null","","","null","68","","","","","","","","","","","","","","","NaN",""
"","S1","","html-keyboard-response","452","371272","0.0-1.0-623.0","0","0","83798","","null","","","null","69","","","","","","","","","","","","","","","",""
"","ISI","","html-keyboard-response","453","371432","0.0-1.0-624.0","0","0","83798","","null","","","null","69","NaN","","","","","","","","","","","","","","",""
"","S2","","html-keyboard-response","454","371684","0.0-1.0-625.0","0","0","83798","","null","","","null","69","","NaN","","","","","","","","","","","","","",""
"","response","","html-keyboard-response","455","371909","0.0-1.0-626.0-0.0","0","0","83798","","222","","","68","69","","","2","69","training","adjacent","DC","4","3","O.jpg","Q.jpg","1","0","0","",""
"","feedback","","html-keyboard-response","456","372912","0.0-1.0-627.0-0.0","0","0","83798","","null","","","null","69","","","","","","","","","","","","","","","",""
"","time_out","","html-keyboard-response","457","374915","0.0-1.0-629.0-0.0","0","0","83798","","null","","","null","69","","","","","","","","","","","","","","","",""
"","ITI","","html-keyboard-response","458","375918","0.0-1.0-630.0","0","0","83798","","null","","","null","69","","","","","","","","","","","","","","","NaN",""
"","S1","","html-keyboard-response","459","376172","0.0-1.0-632.0","0","0","83798","","null","","","null","70","","","","","","","","","","","","","","","",""
"","ISI","","html-keyboard-response","460","376338","0.0-1.0-633.0","0","0","83798","","null","","","null","70","NaN","","","","","","","","","","","","","","",""
"","S2","","html-keyboard-response","461","376593","0.0-1.0-634.0","0","0","83798","","null","","","null","70","","NaN","","","","","","","","","","","","","",""
"","response","","html-keyboard-response","462","376761","0.0-1.0-635.0-0.0","0","0","83798","","166","","","75","70","","","2","70","training","adjacent","FG","6","7","L.jpg","P.jpg","0","1","0","",""
"","feedback","","html-keyboard-response","463","377764","0.0-1.0-636.0-0.0","0","0","83798","","null","","","null","70","","","","","","","","","","","","","","","",""
"","time_out","","html-keyboard-response","464","379766","0.0-1.0-638.0-0.0","0","0","83798","","null","","","null","70","","","","","","","","","","","","","","","",""
"","ITI","","html-keyboard-response","465","380770","0.0-1.0-639.0","0","0","83798","","null","","","null","70","","","","","","","","","","","","","","","NaN",""
"","S1","","html-keyboard-response","466","381024","0.0-1.0-641.0","0","0","83798","","null","","","null","71","","","","","","","","","","","","","","","",""
"","ISI","","html-keyboard-response","467","381177","0.0-1.0-642.0","0","0","83798","","null","","","null","71","NaN","","","","","","","","","","","","","","",""
"","S2","","html-keyboard-response","468","381430","0.0-1.0-643.0","0","0","83798","","null","","","null","71","","NaN","","","","","","","","","","","","","",""
"","response","","html-keyboard-response","469","381856","0.0-1.0-644.0-0.0","0","0","83798","","422","","","75","71","","","2","71","training","adjacent","EF","5","6","R.jpg","L.jpg","0","1","0","",""
"","feedback","","html-keyboard-response","470","382864","0.0-1.0-645.0-0.0","0","0","83798","","null","","","null","71","","","","","","","","","","","","","","","",""
"","time_out","","html-keyboard-response","471","384870","0.0-1.0-647.0-0.0","0","0","83798","","null","","","null","71","","","","","","","","","","","","","","","",""
"","ITI","","html-keyboard-response","472","385875","0.0-1.0-648.0","0","0","83798","","null","","","null","71","","","","","","","","","","","","","","","NaN",""
"","S1","","html-keyboard-response","473","386130","0.0-1.0-650.0","0","0","83798","","null","","","null","72","","","","","","","","","","","","","","","",""
"","ISI","","html-keyboard-response","474","386282","0.0-1.0-651.0","0","0","83798","","null","","","null","72","NaN","","","","","","","","","","","","","","",""
"","S2","","html-keyboard-response","475","386535","0.0-1.0-652.0","0","0","83798","","null","","","null","72","","NaN","","","","","","","","","","","","","",""
"","response","","html-keyboard-response","476","386639","0.0-1.0-653.0-0.0","0","0","83798","","103","","","68","72","","","2","72","training","adjacent","GF","7","6","P.jpg","L.jpg","1","0","0","",""
"","feedback","","html-keyboard-response","477","387641","0.0-1.0-654.0-0.0","0","0","83798","","null","","","null","72","","","","","","","","","","","","","","","",""
"","time_out","","html-keyboard-response","478","389644","0.0-1.0-656.0-0.0","0","0","83798","","null","","","null","72","","","","","","","","","","","","","","","",""
"","ITI","","html-keyboard-response","479","390648","0.0-1.0-657.0","0","0","83798","","null","","","null","72","","","","","","","","","","","","","","","NaN",""
"","S1","","html-keyboard-response","480","390904","0.0-1.0-659.0","0","0","83798","","null","","","null","73","","","","","","","","","","","","","","","",""
"","ISI","","html-keyboard-response","481","391057","0.0-1.0-660.0","0","0","83798","","null","","","null","73","NaN","","","","","","","","","","","","","","",""
"","S2","","html-keyboard-response","482","391310","0.0-1.0-661.0","0","0","83798","","null","","","null","73","","NaN","","","","","","","","","","","","","",""
"","response","","html-keyboard-response","483","391388","0.0-1.0-662.0-0.0","0","0","83798","","76","","","75","73","","","2","73","training","adjacent","GF","7","6","P.jpg","L.jpg","0","0","1","",""
"","feedback","","html-keyboard-response","484","392393","0.0-1.0-663.0-0.0","0","0","83798","","null","","","null","73","","","","","","","","","","","","","","","",""
"","ITI","","html-keyboard-response","485","393397","0.0-1.0-666.0","0","0","83798","","null","","","null","73","","","","","","","","","","","","","","","NaN",""
"","S1","","html-keyboard-response","486","393649","0.0-1.0-668.0","0","0","83798","","null","","","null","74","","","","","","","","","","","","","","","",""
"","ISI","","html-keyboard-response","487","393801","0.0-1.0-669.0","0","0","83798","","null","","","null","74","NaN","","","","","","","","","","","","","","",""
"","S2","","html-keyboard-response","488","394056","0.0-1.0-670.0","0","0","83798","","null","","","null","74","","NaN","","","","","","","","","","","","","",""
"","response","","html-keyboard-response","489","394157","0.0-1.0-671.0-0.0","0","0","83798","","95","","","68","74","","","2","74","training","adjacent","FG","6","7","L.jpg","P.jpg","1","1","1","",""
"","feedback","","html-keyboard-response","490","395164","0.0-1.0-672.0-0.0","0","0","83798","","null","","","null","74","","","","","","","","","","","","","","","",""
"","ITI","","html-keyboard-response","491","396168","0.0-1.0-675.0","0","0","83798","","null","","","null","74","","","","","","","","","","","","","","","NaN",""
"","S1","","html-keyboard-response","492","396421","0.0-1.0-677.0","0","0","83798","","null","","","null","75","","","","","","","","","","","","","","","",""
"","ISI","","html-keyboard-response","493","396574","0.0-1.0-678.0","0","0","83798","","null","","","null","75","NaN","","","","","","","","","","","","","","",""
"","S2","","html-keyboard-response","494","396826","0.0-1.0-679.0","0","0","83798","","null","","","null","75","","NaN","","","","","","","","","","","","","",""
"","response","","html-keyboard-response","495","396862","0.0-1.0-680.0-0.0","0","0","83798","","33","","","75","75","","","2","75","training","adjacent","AB","1","2","N.jpg","M.jpg","0","1","0","",""
"","feedback","","html-keyboard-response","496","397865","0.0-1.0-681.0-0.0","0","0","83798","","null","","","null","75","","","","","","","","","","","","","","","",""
"","time_out","","html-keyboard-response","497","399868","0.0-1.0-683.0-0.0","0","0","83798","","null","","","null","75","","","","","","","","","","","","","","","",""
"","ITI","","html-keyboard-response","498","400871","0.0-1.0-684.0","0","0","83798","","null","","","null","75","","","","","","","","","","","","","","","NaN",""
"","S1","","html-keyboard-response","499","401123","0.0-1.0-686.0","0","0","83798","","null","","","null","76","","","","","","","","","","","","","","","",""
"","ISI","","html-keyboard-response","500","401276","0.0-1.0-687.0","0","0","83798","","null","","","null","76","NaN","","","","","","","","","","","","","","",""
"","S2","","html-keyboard-response","501","401482","0.0-1.0-688.0","0","0","83798","","204","","","68","76","","d","2","76","training","adjacent","BA","2","1","M.jpg","N.jpg","1","0","0","",""
"","feedback","","html-keyboard-response","502","402486","0.0-1.0-690.0-0.0","0","0","83798","","null","","","null","76","","","","","","","","","","","","","","","",""
"","time_out","","html-keyboard-response","503","404489","0.0-1.0-692.0-0.0","0","0","83798","","null","","","null","76","","","","","","","","","","","","","","","",""
"","ITI","","html-keyboard-response","504","405493","0.0-1.0-693.0","0","0","83798","","null","","","null","76","","","","","","","","","","","","","","","NaN",""
"","S1","","html-keyboard-response","505","405746","0.0-1.0-695.0","0","0","83798","","null","","","null","77","","","","","","","","","","","","","","","",""
"","ISI","","html-keyboard-response","506","405899","0.0-1.0-696.0","0","0","83798","","null","","","null","77","NaN","","","","","","","","","","","","","","",""
"","S2","","html-keyboard-response","507","406152","0.0-1.0-697.0","0","0","83798","","null","","","null","77","","NaN","","","","","","","","","","","","","",""
"","response","","html-keyboard-response","508","406391","0.0-1.0-698.0-0.0","0","0","83798","","236","","","75","77","","","2","77","training","adjacent","FE","6","5","L.jpg","R.jpg","0","0","1","",""
"","feedback","","html-keyboard-response","509","407396","0.0-1.0-699.0-0.0","0","0","83798","","null","","","null","77","","","","","","","","","","","","","","","",""
"","ITI","","html-keyboard-response","510","408399","0.0-1.0-702.0","0","0","83798","","null","","","null","77","","","","","","","","","","","","","","","NaN",""
"","S1","","html-keyboard-response","511","408655","0.0-1.0-704.0","0","0","83798","","null","","","null","78","","","","","","","","","","","","","","","",""
"","ISI","","html-keyboard-response","512","408811","0.0-1.0-705.0","0","0","83798","","null","","","null","78","NaN","","","","","","","","","","","","","","",""
"","S2","","html-keyboard-response","513","409066","0.0-1.0-706.0","0","0","83798","","null","","","null","78","","NaN","","","","","","","","","","","","","",""
"","response","","html-keyboard-response","514","409187","0.0-1.0-707.0-0.0","0","0","83798","","119","","","68","78","","","2","78","training","adjacent","BC","2","3","M.jpg","Q.jpg","1","1","1","",""
"","feedback","","html-keyboard-response","515","410193","0.0-1.0-708.0-0.0","0","0","83798","","null","","","null","78","","","","","","","","","","","","","","","",""
"","ITI","","html-keyboard-response","516","411197","0.0-1.0-711.0","0","0","83798","","null","","","null","78","","","","","","","","","","","","","","","NaN",""
"","S1","","html-keyboard-response","517","411450","0.0-1.0-713.0","0","0","83798","","null","","","null","79","","","","","","","","","","","","","","","",""
"","ISI","","html-keyboard-response","518","411605","0.0-1.0-714.0","0","0","83798","","null","","","null","79","NaN","","","","","","","","","","","","","","",""
"","S2","","html-keyboard-response","519","411858","0.0-1.0-715.0","0","0","83798","","null","","","null","79","","NaN","","","","","","","","","","","","","",""
"","response","","html-keyboard-response","520","412028","0.0-1.0-716.0-0.0","0","0","83798","","167","","","75","79","","","2","79","training","adjacent","ED","5","4","R.jpg","O.jpg","0","0","1","",""
"","feedback","","html-keyboard-response","521","413032","0.0-1.0-717.0-0.0","0","0","83798","","null","","","null","79","","","","","","","","","","","","","","","",""
"","ITI","","html-keyboard-response","522","414034","0.0-1.0-720.0","0","0","83798","","null","","","null","79","","","","","","","","","","","","","","","NaN",""
"","S1","","html-keyboard-response","523","414290","0.0-1.0-722.0","0","0","83798","","null","","","null","80","","","","","","","","","","","","","","","",""
"","ISI","","html-keyboard-response","524","414447","0.0-1.0-723.0","0","0","83798","","null","","","null","80","NaN","","","","","","","","","","","","","","",""
"","S2","","html-keyboard-response","525","414702","0.0-1.0-724.0","0","0","83798","","null","","","null","80","","NaN","","","","","","","","","","","","","",""
"","response","","html-keyboard-response","526","414809","0.0-1.0-725.0-0.0","0","0","83798","","105","","","75","80","","","2","80","training","adjacent","CD","3","4","Q.jpg","O.jpg","0","1","0","",""
"","feedback","","html-keyboard-response","527","415812","0.0-1.0-726.0-0.0","0","0","83798","","null","","","null","80","","","","","","","","","","","","","","","",""
"","time_out","","html-keyboard-response","528","417814","0.0-1.0-728.0-0.0","0","0","83798","","null","","","null","80","","","","","","","","","","","","","","","",""
"","ITI","","html-keyboard-response","529","418817","0.0-1.0-729.0","0","0","83798","","null","","","null","80","","","","","","","","","","","","","","","NaN",""
"","S1","","html-keyboard-response","530","419070","0.0-1.0-731.0","0","0","83798","","null","","","null","81","","","","","","","","","","","","","","","",""
"","ISI","","html-keyboard-response","531","419223","0.0-1.0-732.0","0","0","83798","","null","","","null","81","NaN","","","","","","","","","","","","","","",""
"","S2","","html-keyboard-response","532","419476","0.0-1.0-733.0","0","0","83798","","null","","","null","81","","NaN","","","","","","","","","","","","","",""
"","response","","html-keyboard-response","533","419554","0.0-1.0-734.0-0.0","0","0","83798","","77","","","75","81","","","2","81","training","adjacent","CD","3","4","Q.jpg","O.jpg","0","1","0","",""
"","feedback","","html-keyboard-response","534","420557","0.0-1.0-735.0-0.0","0","0","83798","","null","","","null","81","","","","","","","","","","","","","","","",""
"","time_out","","html-keyboard-response","535","422561","0.0-1.0-737.0-0.0","0","0","83798","","null","","","null","81","","","","","","","","","","","","","","","",""
"","ITI","","html-keyboard-response","536","423564","0.0-1.0-738.0","0","0","83798","","null","","","null","81","","","","","","","","","","","","","","","NaN",""
"","S1","","html-keyboard-response","537","423816","0.0-1.0-740.0","0","0","83798","","null","","","null","82","","","","","","","","","","","","","","","",""
"","ISI","","html-keyboard-response","538","423969","0.0-1.0-741.0","0","0","83798","","null","","","null","82","NaN","","","","","","","","","","","","","","",""
"","S2","","html-keyboard-response","539","424206","0.0-1.0-742.0","0","0","83798","","235","","","75","82","","k","2","82","training","adjacent","FE","6","5","L.jpg","R.jpg","0","0","1","",""
"","feedback","","html-keyboard-response","540","425208","0.0-1.0-744.0-0.0","0","0","83798","","null","","","null","82","","","","","","","","","","","","","","","",""
"","ITI","","html-keyboard-response","541","426210","0.0-1.0-747.0","0","0","83798","","null","","","null","82","","","","","","","","","","","","","","","NaN",""
"","S1","","html-keyboard-response","542","426463","0.0-1.0-749.0","0","0","83798","","null","","","null","83","","","","","","","","","","","","","","","",""
"","ISI","","html-keyboard-response","543","426616","0.0-1.0-750.0","0","0","83798","","null","","","null","83","NaN","","","","","","","","","","","","","","",""
"","S2","","html-keyboard-response","544","426850","0.0-1.0-751.0","0","0","83798","","233","","","68","83","","d","2","83","training","adjacent","CB","3","2","Q.jpg","M.jpg","1","0","0","",""
"","feedback","","html-keyboard-response","545","427853","0.0-1.0-753.0-0.0","0","0","83798","","null","","","null","83","","","","","","","","","","","","","","","",""
"","time_out","","html-keyboard-response","546","429856","0.0-1.0-755.0-0.0","0","0","83798","","null","","","null","83","","","","","","","","","","","","","","","",""
"","ITI","","html-keyboard-response","547","430858","0.0-1.0-756.0","0","0","83798","","null","","","null","83","","","","","","","","","","","","","","","NaN",""
"","S1","","html-keyboard-response","548","431111","0.0-1.0-758.0","0","0","83798","","null","","","null","84","","","","","","","","","","","","","","","",""
"","ISI","","html-keyboard-response","549","431263","0.0-1.0-759.0","0","0","83798","","null","","","null","84","NaN","","","","","","","","","","","","","","",""
"","S2","","html-keyboard-response","550","431516","0.0-1.0-760.0","0","0","83798","","null","","","null","84","","NaN","","","","","","","","","","","","","",""
"","response","","html-keyboard-response","551","431543","0.0-1.0-761.0-0.0","0","0","83798","","25","","","75","84","","","2","84","training","adjacent","FG","6","7","L.jpg","P.jpg","0","1","0","",""
"","feedback","","html-keyboard-response","552","432545","0.0-1.0-762.0-0.0","0","0","83798","","null","","","null","84","","","","","","","","","","","","","","","",""
"","time_out","","html-keyboard-response","553","434548","0.0-1.0-764.0-0.0","0","0","83798","","null","","","null","84","","","","","","","","","","","","","","","",""
"","ITI","","html-keyboard-response","554","435550","0.0-1.0-765.0","0","0","83798","","null","","","null","84","","","","","","","","","","","","","","","NaN",""
"","S1","","html-keyboard-response","555","435803","0.0-1.0-767.0","0","0","83798","","null","","","null","85","","","","","","","","","","","","","","","",""
"","ISI","","html-keyboard-response","556","435956","0.0-1.0-768.0","0","0","83798","","null","","","null","85","NaN","","","","","","","","","","","","","","",""
"","S2","","html-keyboard-response","557","436209","0.0-1.0-769.0","0","0","83798","","null","","","null","85","","NaN","","","","","","","","","","","","","",""
"","response","","html-keyboard-response","558","436565","0.0-1.0-770.0-0.0","0","0","83798","","355","","","75","85","","","2","85","training","adjacent","AB","1","2","N.jpg","M.jpg","0","1","0","",""
"","feedback","","html-keyboard-response","559","437568","0.0-1.0-771.0-0.0","0","0","83798","","null","","","null","85","","","","","","","","","","","","","","","",""
"","time_out","","html-keyboard-response","560","439571","0.0-1.0-773.0-0.0","0","0","83798","","null","","","null","85","","","","","","","","","","","","","","","",""
"","ITI","","html-keyboard-response","561","440573","0.0-1.0-774.0","0","0","83798","","null","","","null","85","","","","","","","","","","","","","","","NaN",""
"","S1","","html-keyboard-response","562","440827","0.0-1.0-776.0","0","0","83798","","null","","","null","86","","","","","","","","","","","","","","","",""
"","ISI","","html-keyboard-response","563","440980","0.0-1.0-777.0","0","0","83798","","null","","","null","86","NaN","","","","","","","","","","","","","","",""
"","S2","","html-keyboard-response","564","441207","0.0-1.0-778.0","0","0","83798","","224","","","75","86","","k","2","86","training","adjacent","AB","1","2","N.jpg","M.jpg","0","1","0","",""
"","feedback","","html-keyboard-response","565","442210","0.0-1.0-780.0-0.0","0","0","83798","","null","","","null","86","","","","","","","","","","","","","","","",""
"","time_out","","html-keyboard-response","566","444215","0.0-1.0-782.0-0.0","0","0","83798","","null","","","null","86","","","","","","","","","","","","","","","",""
"","ITI","","html-keyboard-response","567","445218","0.0-1.0-783.0","0","0","83798","","null","","","null","86","","","","","","","","","","","","","","","NaN",""
"","S1","","html-keyboard-response","568","445472","0.0-1.0-785.0","0","0","83798","","null","","","null","87","","","","","","","","","","","","","","","",""
"","ISI","","html-keyboard-response","569","445625","0.0-1.0-786.0","0","0","83798","","null","","","null","87","NaN","","","","","","","","","","","","","","",""
"","S2","","html-keyboard-response","570","445878","0.0-1.0-787.0","0","0","83798","","null","","","null","87","","NaN","","","","","","","","","","","","","",""
"","response","","html-keyboard-response","571","445966","0.0-1.0-788.0-0.0","0","0","83798","","87","","","68","87","","","2","87","training","adjacent","EF","5","6","R.jpg","L.jpg","1","1","1","",""
"","feedback","","html-keyboard-response","572","446968","0.0-1.0-789.0-0.0","0","0","83798","","null","","","null","87","","","","","","","","","","","","","","","",""
"","ITI","","html-keyboard-response","573","447972","0.0-1.0-792.0","0","0","83798","","null","","","null","87","","","","","","","","","","","","","","","NaN",""
"","S1","","html-keyboard-response","574","448225","0.0-1.0-794.0","0","0","83798","","null","","","null","88","","","","","","","","","","","","","","","",""
"","ISI","","html-keyboard-response","575","448377","0.0-1.0-795.0","0","0","83798","","null","","","null","88","NaN","","","","","","","","","","","","","","",""
"","S2","","html-keyboard-response","576","448630","0.0-1.0-796.0","0","0","83798","","null","","","null","88","","NaN","","","","","","","","","","","","","",""
"","response","","html-keyboard-response","577","448809","0.0-1.0-797.0-0.0","0","0","83798","","177","","","75","88","","","2","88","training","adjacent","BA","2","1","M.jpg","N.jpg","0","0","1","",""
"","feedback","","html-keyboard-response","578","449811","0.0-1.0-798.0-0.0","0","0","83798","","null","","","null","88","","","","","","","","","","","","","","","",""
"","ITI","","html-keyboard-response","579","450814","0.0-1.0-801.0","0","0","83798","","null","","","null","88","","","","","","","","","","","","","","","NaN",""
"","S1","","html-keyboard-response","580","451073","0.0-1.0-803.0","0","0","83798","","null","","","null","89","","","","","","","","","","","","","","","",""
"","ISI","","html-keyboard-response","581","451225","0.0-1.0-804.0","0","0","83798","","null","","","null","89","NaN","","","","","","","","","","","","","","",""
