"success","ttype","start_time","trial_type","trial_index","time_elapsed","internal_node_id","warning","missed_checkup","PID","view_history","rt","responses","repeat_instructions","key_press","index","keypress_isi","keypress_S2","block","trial_num","phase","group_type","pair_type","S1_stim","S2_stim","S1_img","S2_img","S1_chosen","S1_higher","accuracy","keypress_iti","total_bonus_tally"
"true","full_screen","d04162023hr0213","fullscreen","0","8006","0.0-0.0","0","0","71667","","","","","","","","","","","","","","","","","","","","","",""
"","instructions","","instructions","1","36731","0.0-1.0-0.0-0.0","0","0","71667","[{""page_index"":0,""viewing_time"":4772},{""page_index"":1,""viewing_time"":15363},{""page_index"":2,""viewing_time"":6412},{""page_index"":3,""viewing_time"":2176}]","28724","","","","","","","","","","","","","","","","","","","",""
"","comprehension_check","","survey-multi-choice","2","68001","0.0-1.0-0.0-1.0","0","0","71667","","31266","{""Q0"":""True"",""Q1"":""K"",""Q2"":""Only when the screen 'MAKE A CHOICE' is shown"",""Q3"":""Green mark"",""Q4"":""either D or K""}","1","","","","","","","","","","","","","","","","","",""
"","missed_instruction_checkup","","html-keyboard-response","3","70087","0.0-1.0-0.0-2.0-0.0","0","1","71667","","2082","","","32","","","","","","","","","","","","","","","","",""
"","instructions","","instructions","4","125605","0.0-1.0-0.1-0.1","0","0","71667","[{""page_index"":0,""viewing_time"":1495},{""page_index"":1,""viewing_time"":40145},{""page_index"":2,""viewing_time"":11285},{""page_index"":3,""viewing_time"":2592}]","55518","","","","","","","","","","","","","","","","","","","",""
"","comprehension_check","","survey-multi-choice","5","173468","0.0-1.0-0.1-1.1","0","0","71667","","47859","{""Q0"":""True"",""Q1"":""K"",""Q2"":""Once the second image appears and while the screen 'MAKE A CHOICE' is shown"",""Q3"":""Green mark"",""Q4"":""either D or K""}","0","","","","","","","","","","","","","","","","","",""
"","start_exp","","html-keyboard-response","6","175156","0.0-1.0-1.0","0","0","71667","","1686","","","32","","","","","","","","","","","","","","","","",""
"","S1","","html-keyboard-response","7","175408","0.0-1.0-2.0","0","0","71667","","null","","","null","0","","","","","","","","","","","","","","","",""
"","ISI","","html-keyboard-response","8","176411","0.0-1.0-3.0","0","0","71667","","null","","","null","0","NaN","","","","","","","","","","","","","","",""
"","S2","","html-keyboard-response","9","176663","0.0-1.0-4.0","0","0","71667","","null","","","null","0","","NaN","","","","","","","","","","","","","",""
"","response","","html-keyboard-response","10","178113","0.0-1.0-5.0-0.0","0","0","71667","","1449","","","68","0","","","1","0","training","adjacent","EF","5","6","P.jpg","R.jpg","0","1","0","",""
"","feedback","","html-keyboard-response","11","179114","0.0-1.0-6.0-0.0","0","0","71667","","null","","","null","0","","","","","","","","","","","","","","","",""
"","time_out","","html-keyboard-response","12","181116","0.0-1.0-8.0-0.0","0","0","71667","","null","","","null","0","","","","","","","","","","","","","","","",""
"","ITI","","html-keyboard-response","13","182118","0.0-1.0-9.0","0","0","71667","","null","","","null","0","","","","","","","","","","","","","","","NaN",""
"","S1","","html-keyboard-response","14","182371","0.0-1.0-11.0","0","0","71667","","null","","","null","1","","","","","","","","","","","","","","","",""
"","ISI","","html-keyboard-response","15","183372","0.0-1.0-12.0","0","0","71667","","null","","","null","1","NaN","","","","","","","","","","","","","","",""
"","S2","","html-keyboard-response","16","183625","0.0-1.0-13.0","0","0","71667","","null","","","null","1","","NaN","","","","","","","","","","","","","",""
"","response","","html-keyboard-response","17","183941","0.0-1.0-14.0-0.0","0","0","71667","","315","","","75","1","","","1","1","training","adjacent","CB","3","2","L.jpg","O.jpg","1","0","0","",""
"","feedback","","html-keyboard-response","18","184944","0.0-1.0-15.0-0.0","0","0","71667","","null","","","null","1","","","","","","","","","","","","","","","",""
"","time_out","","html-keyboard-response","19","186946","0.0-1.0-17.0-0.0","0","0","71667","","null","","","null","1","","","","","","","","","","","","","","","",""
"","ITI","","html-keyboard-response","20","187948","0.0-1.0-18.0","0","0","71667","","null","","","null","1","","","","","","","","","","","","","","","NaN",""
"","S1","","html-keyboard-response","21","188200","0.0-1.0-20.0","0","0","71667","","null","","","null","2","","","","","","","","","","","","","","","",""
"","ISI","","html-keyboard-response","22","189202","0.0-1.0-21.0","0","0","71667","","null","","","null","2","NaN","","","","","","","","","","","","","","",""
"","S2","","html-keyboard-response","23","189455","0.0-1.0-22.0","0","0","71667","","null","","","null","2","","NaN","","","","","","","","","","","","","",""
"","response","","html-keyboard-response","24","189773","0.0-1.0-23.0-0.0","0","0","71667","","316","","","68","2","","","1","2","training","adjacent","CD","3","4","L.jpg","Q.jpg","0","1","0","",""
"","feedback","","html-keyboard-response","25","190776","0.0-1.0-24.0-0.0","0","0","71667","","null","","","null","2","","","","","","","","","","","","","","","",""
"","time_out","","html-keyboard-response","26","192778","0.0-1.0-26.0-0.0","0","0","71667","","null","","","null","2","","","","","","","","","","","","","","","",""
"","ITI","","html-keyboard-response","27","193780","0.0-1.0-27.0","0","0","71667","","null","","","null","2","","","","","","","","","","","","","","","NaN",""
"","S1","","html-keyboard-response","28","194031","0.0-1.0-29.0","0","0","71667","","null","","","null","3","","","","","","","","","","","","","","","",""
"","ISI","","html-keyboard-response","29","195033","0.0-1.0-30.0","0","0","71667","","null","","","null","3","NaN","","","","","","","","","","","","","","",""
"","S2","","html-keyboard-response","30","195286","0.0-1.0-31.0","0","0","71667","","null","","","null","3","","NaN","","","","","","","","","","","","","",""
"","response","","html-keyboard-response","31","195620","0.0-1.0-32.0-0.0","0","0","71667","","333","","","68","3","","","1","3","training","adjacent","BA","2","1","O.jpg","M.jpg","0","0","1","",""
"","feedback","","html-keyboard-response","32","196622","0.0-1.0-33.0-0.0","0","0","71667","","null","","","null","3","","","","","","","","","","","","","","","",""
"","ITI","","html-keyboard-response","33","197624","0.0-1.0-36.0","0","0","71667","","null","","","null","3","","","","","","","","","","","","","","","NaN",""
"","S1","","html-keyboard-response","34","197876","0.0-1.0-38.0","0","0","71667","","null","","","null","4","","","","","","","","","","","","","","","",""
"","ISI","","html-keyboard-response","35","198878","0.0-1.0-39.0","0","0","71667","","null","","","null","4","NaN","","","","","","","","","","","","","","",""
"","S2","","html-keyboard-response","36","199130","0.0-1.0-40.0","0","0","71667","","null","","","null","4","","NaN","","","","","","","","","","","","","",""
"","response","","html-keyboard-response","37","200883","0.0-1.0-41.0-0.0","0","0","71667","","null","","","null","4","","","1","4","training","adjacent","GF","7","6","N.jpg","R.jpg","NaN","0","0","",""
"","too_slow_prompt","","html-keyboard-response","38","201884","0.0-1.0-43.0-0.0","1","0","71667","","null","","","null","","","","","","","","","","","","","","","","",""
"","time_out","","html-keyboard-response","39","203886","0.0-1.0-44.0-0.0","0","0","71667","","null","","","null","4","","","","","","","","","","","","","","","",""
"","ITI","","html-keyboard-response","40","204888","0.0-1.0-45.0","0","0","71667","","null","","","null","4","","","","","","","","","","","","","","","NaN",""
"","S1","","html-keyboard-response","41","205140","0.0-1.0-47.0","0","0","71667","","null","","","null","5","","","","","","","","","","","","","","","",""
"","ISI","","html-keyboard-response","42","206142","0.0-1.0-48.0","0","0","71667","","null","","","null","5","NaN","","","","","","","","","","","","","","",""
"","S2","","html-keyboard-response","43","206395","0.0-1.0-49.0","0","0","71667","","null","","","null","5","","NaN","","","","","","","","","","","","","",""
"","response","","html-keyboard-response","44","206510","0.0-1.0-50.0-0.0","0","0","71667","","114","","","75","5","","","1","5","training","adjacent","DE","4","5","Q.jpg","P.jpg","1","1","1","",""
"","feedback","","html-keyboard-response","45","207512","0.0-1.0-51.0-0.0","0","0","71667","","null","","","null","5","","","","","","","","","","","","","","","",""
"","ITI","","html-keyboard-response","46","208514","0.0-1.0-54.0","0","0","71667","","null","","","null","5","","","","","","","","","","","","","","","NaN",""
"","S1","","html-keyboard-response","47","208765","0.0-1.0-56.0","0","0","71667","","null","","","null","6","","","","","","","","","","","","","","","",""
"","ISI","","html-keyboard-response","48","209768","0.0-1.0-57.0","0","0","71667","","null","","","null","6","NaN","","","","","","","","","","","","","","",""
"","S2","","html-keyboard-response","49","210020","0.0-1.0-58.0","0","0","71667","","null","","","null","6","","NaN","","","","","","","","","","","","","",""
"","response","","html-keyboard-response","50","210148","0.0-1.0-59.0-0.0","0","0","71667","","127","","","68","6","","","1","6","training","adjacent","FE","6","5","R.jpg","P.jpg","0","0","1","",""
"","feedback","","html-keyboard-response","51","211150","0.0-1.0-60.0-0.0","0","0","71667","","null","","","null","6","","","","","","","","","","","","","","","",""
"","ITI","","html-keyboard-response","52","212153","0.0-1.0-63.0","0","0","71667","","null","","","null","6","","","","","","","","","","","","","","","NaN",""
"","S1","","html-keyboard-response","53","212406","0.0-1.0-65.0","0","0","71667","","null","","","null","7","","","","","","","","","","","","","","","",""
"","ISI","","html-keyboard-response","54","213407","0.0-1.0-66.0","0","0","71667","","null","","","null","7","NaN","","","","","","","","","","","","","","",""
"","S2","","html-keyboard-response","55","213660","0.0-1.0-67.0","0","0","71667","","null","","","null","7","","NaN","","","","","","","","","","","","","",""
"","response","","html-keyboard-response","56","214358","0.0-1.0-68.0-0.0","0","0","71667","","695","","","75","7","","","1","7","training","adjacent","GF","7","6","N.jpg","R.jpg","1","0","0","",""
"","feedback","","html-keyboard-response","57","215360","0.0-1.0-69.0-0.0","0","0","71667","","null","","","null","7","","","","","","","","","","","","","","","",""
"","time_out","","html-keyboard-response","58","217361","0.0-1.0-71.0-0.0","0","0","71667","","null","","","null","7","","","","","","","","","","","","","","","",""
"","ITI","","html-keyboard-response","59","218364","0.0-1.0-72.0","0","0","71667","","null","","","null","7","","","","","","","","","","","","","","","NaN",""
"","S1","","html-keyboard-response","60","218617","0.0-1.0-74.0","0","0","71667","","null","","","null","8","","","","","","","","","","","","","","","",""
"","ISI","","html-keyboard-response","61","219619","0.0-1.0-75.0","0","0","71667","","null","","","null","8","NaN","","","","","","","","","","","","","","",""
"","S2","","html-keyboard-response","62","219871","0.0-1.0-76.0","0","0","71667","","null","","","null","8","","NaN","","","","","","","","","","","","","",""
"","response","","html-keyboard-response","63","220034","0.0-1.0-77.0-0.0","0","0","71667","","160","","","68","8","","","1","8","training","adjacent","BC","2","3","O.jpg","L.jpg","0","1","0","",""
"","feedback","","html-keyboard-response","64","221037","0.0-1.0-78.0-0.0","0","0","71667","","null","","","null","8","","","","","","","","","","","","","","","",""
"","time_out","","html-keyboard-response","65","223038","0.0-1.0-80.0-0.0","0","0","71667","","null","","","null","8","","","","","","","","","","","","","","","",""
"","ITI","","html-keyboard-response","66","224039","0.0-1.0-81.0","0","0","71667","","null","","","null","8","","","","","","","","","","","","","","","NaN",""
"","S1","","html-keyboard-response","67","224294","0.0-1.0-83.0","0","0","71667","","null","","","null","9","","","","","","","","","","","","","","","",""
"","ISI","","html-keyboard-response","68","225296","0.0-1.0-84.0","0","0","71667","","null","","","null","9","NaN","","","","","","","","","","","","","","",""
"","S2","","html-keyboard-response","69","225549","0.0-1.0-85.0","0","0","71667","","null","","","null","9","","NaN","","","","","","","","","","","","","",""
"","response","","html-keyboard-response","70","225737","0.0-1.0-86.0-0.0","0","0","71667","","186","","","68","9","","","1","9","training","adjacent","EF","5","6","P.jpg","R.jpg","0","1","0","",""
"","feedback","","html-keyboard-response","71","226739","0.0-1.0-87.0-0.0","0","0","71667","","null","","","null","9","","","","","","","","","","","","","","","",""
"","time_out","","html-keyboard-response","72","228741","0.0-1.0-89.0-0.0","0","0","71667","","null","","","null","9","","","","","","","","","","","","","","","",""
"","ITI","","html-keyboard-response","73","229743","0.0-1.0-90.0","0","0","71667","","null","","","null","9","","","","","","","","","","","","","","","NaN",""
"","S1","","html-keyboard-response","74","229996","0.0-1.0-92.0","0","0","71667","","null","","","null","10","","","","","","","","","","","","","","","",""
"","ISI","","html-keyboard-response","75","230998","0.0-1.0-93.0","0","0","71667","","null","","","null","10","NaN","","","","","","","","","","","","","","",""
"","S2","","html-keyboard-response","76","231250","0.0-1.0-94.0","0","0","71667","","null","","","null","10","","NaN","","","","","","","","","","","","","",""
"","response","","html-keyboard-response","77","231502","0.0-1.0-95.0-0.0","0","0","71667","","250","","","75","10","","","1","10","training","adjacent","DC","4","3","Q.jpg","L.jpg","1","0","0","",""
"","feedback","","html-keyboard-response","78","232504","0.0-1.0-96.0-0.0","0","0","71667","","null","","","null","10","","","","","","","","","","","","","","","",""
"","time_out","","html-keyboard-response","79","234507","0.0-1.0-98.0-0.0","0","0","71667","","null","","","null","10","","","","","","","","","","","","","","","",""
"","ITI","","html-keyboard-response","80","235509","0.0-1.0-99.0","0","0","71667","","null","","","null","10","","","","","","","","","","","","","","","NaN",""
"","S1","","html-keyboard-response","81","235762","0.0-1.0-101.0","0","0","71667","","null","","","null","11","","","","","","","","","","","","","","","",""
"","ISI","","html-keyboard-response","82","236764","0.0-1.0-102.0","0","0","71667","","null","","","null","11","NaN","","","","","","","","","","","","","","",""
"","S2","","html-keyboard-response","83","237016","0.0-1.0-103.0","0","0","71667","","null","","","null","11","","NaN","","","","","","","","","","","","","",""
"","response","","html-keyboard-response","84","238384","0.0-1.0-104.0-0.0","0","0","71667","","1366","","","68","11","","","1","11","training","adjacent","ED","5","4","P.jpg","Q.jpg","0","0","1","",""
"","feedback","","html-keyboard-response","85","239386","0.0-1.0-105.0-0.0","0","0","71667","","null","","","null","11","","","","","","","","","","","","","","","",""
"","ITI","","html-keyboard-response","86","240388","0.0-1.0-108.0","0","0","71667","","null","","","null","11","","","","","","","","","","","","","","","NaN",""
"","S1","","html-keyboard-response","87","240641","0.0-1.0-110.0","0","0","71667","","null","","","null","12","","","","","","","","","","","","","","","",""
"","ISI","","html-keyboard-response","88","241643","0.0-1.0-111.0","0","0","71667","","null","","","null","12","NaN","","","","","","","","","","","","","","",""
"","S2","","html-keyboard-response","89","241896","0.0-1.0-112.0","0","0","71667","","null","","","null","12","","NaN","","","","","","","","","","","","","",""
"","response","","html-keyboard-response","90","242972","0.0-1.0-113.0-0.0","0","0","71667","","1074","","","68","12","","","1","12","training","adjacent","DC","4","3","Q.jpg","L.jpg","0","0","1","",""
"","feedback","","html-keyboard-response","91","243975","0.0-1.0-114.0-0.0","0","0","71667","","null","","","null","12","","","","","","","","","","","","","","","",""
"","ITI","","html-keyboard-response","92","244977","0.0-1.0-117.0","0","0","71667","","null","","","null","12","","","","","","","","","","","","","","","NaN",""
"","S1","","html-keyboard-response","93","245229","0.0-1.0-119.0","0","0","71667","","null","","","null","13","","","","","","","","","","","","","","","",""
"","ISI","","html-keyboard-response","94","246232","0.0-1.0-120.0","0","0","71667","","null","","","null","13","NaN","","","","","","","","","","","","","","",""
"","S2","","html-keyboard-response","95","246484","0.0-1.0-121.0","0","0","71667","","null","","","null","13","","NaN","","","","","","","","","","","","","",""
"","response","","html-keyboard-response","96","248184","0.0-1.0-122.0-0.0","0","0","71667","","1699","","","75","13","","","1","13","training","adjacent","EF","5","6","P.jpg","R.jpg","1","1","1","",""
"","feedback","","html-keyboard-response","97","249187","0.0-1.0-123.0-0.0","0","0","71667","","null","","","null","13","","","","","","","","","","","","","","","",""
"","ITI","","html-keyboard-response","98","250189","0.0-1.0-126.0","0","0","71667","","null","","","null","13","","","","","","","","","","","","","","","NaN",""
"","S1","","html-keyboard-response","99","250442","0.0-1.0-128.0","0","0","71667","","null","","","null","14","","","","","","","","","","","","","","","",""
"","ISI","","html-keyboard-response","100","251445","0.0-1.0-129.0","0","0","71667","","null","","","null","14","NaN","","","","","","","","","","","","","","",""
"","S2","","html-keyboard-response","101","251697","0.0-1.0-130.0","0","0","71667","","null","","","null","14","","NaN","","","","","","","","","","","","","",""
"","response","","html-keyboard-response","102","252817","0.0-1.0-131.0-0.0","0","0","71667","","1118","","","68","14","","","1","14","training","adjacent","BA","2","1","O.jpg","M.jpg","0","0","1","",""
"","feedback","","html-keyboard-response","103","253820","0.0-1.0-132.0-0.0","0","0","71667","","null","","","null","14","","","","","","","","","","","","","","","",""
"","ITI","","html-keyboard-response","104","254822","0.0-1.0-135.0","0","0","71667","","null","","","null","14","","","","","","","","","","","","","","","NaN",""
"","S1","","html-keyboard-response","105","255075","0.0-1.0-137.0","0","0","71667","","null","","","null","15","","","","","","","","","","","","","","","",""
"","ISI","","html-keyboard-response","106","256077","0.0-1.0-138.0","0","0","71667","","null","","","null","15","NaN","","","","","","","","","","","","","","",""
"","S2","","html-keyboard-response","107","256330","0.0-1.0-139.0","0","0","71667","","null","","","null","15","","NaN","","","","","","","","","","","","","",""
"","response","","html-keyboard-response","108","257165","0.0-1.0-140.0-0.0","0","0","71667","","833","","","75","15","","","1","15","training","adjacent","CD","3","4","L.jpg","Q.jpg","1","1","1","",""
"","feedback","","html-keyboard-response","109","258168","0.0-1.0-141.0-0.0","0","0","71667","","null","","","null","15","","","","","","","","","","","","","","","",""
"","ITI","","html-keyboard-response","110","259170","0.0-1.0-144.0","0","0","71667","","null","","","null","15","","","","","","","","","","","","","","","NaN",""
"","S1","","html-keyboard-response","111","259423","0.0-1.0-146.0","0","0","71667","","null","","","null","16","","","","","","","","","","","","","","","",""
"","ISI","","html-keyboard-response","112","260425","0.0-1.0-147.0","0","0","71667","","null","","","null","16","NaN","","","","","","","","","","","","","","",""
"","S2","","html-keyboard-response","113","260678","0.0-1.0-148.0","0","0","71667","","null","","","null","16","","NaN","","","","","","","","","","","","","",""
"","response","","html-keyboard-response","114","261092","0.0-1.0-149.0-0.0","0","0","71667","","413","","","68","16","","","1","16","training","adjacent","CD","3","4","L.jpg","Q.jpg","0","1","0","",""
"","feedback","","html-keyboard-response","115","262095","0.0-1.0-150.0-0.0","0","0","71667","","null","","","null","16","","","","","","","","","","","","","","","",""
"","time_out","","html-keyboard-response","116","264098","0.0-1.0-152.0-0.0","0","0","71667","","null","","","null","16","","","","","","","","","","","","","","","",""
"","ITI","","html-keyboard-response","117","265102","0.0-1.0-153.0","0","0","71667","","null","","","null","16","","","","","","","","","","","","","","","NaN",""
"","S1","","html-keyboard-response","118","265355","0.0-1.0-155.0","0","0","71667","","null","","","null","17","","","","","","","","","","","","","","","",""
"","ISI","","html-keyboard-response","119","266357","0.0-1.0-156.0","0","0","71667","","null","","","null","17","NaN","","","","","","","","","","","","","","",""
"","S2","","html-keyboard-response","120","266610","0.0-1.0-157.0","0","0","71667","","null","","","null","17","","NaN","","","","","","","","","","","","","",""
"","response","","html-keyboard-response","121","266680","0.0-1.0-158.0-0.0","0","0","71667","","69","","","75","17","","","1","17","training","adjacent","FE","6","5","R.jpg","P.jpg","1","0","0","",""
"","feedback","","html-keyboard-response","122","267683","0.0-1.0-159.0-0.0","0","0","71667","","null","","","null","17","","","","","","","","","","","","","","","",""
"","time_out","","html-keyboard-response","123","269686","0.0-1.0-161.0-0.0","0","0","71667","","null","","","null","17","","","","","","","","","","","","","","","",""
"","ITI","","html-keyboard-response","124","270689","0.0-1.0-162.0","0","0","71667","","null","","","null","17","","","","","","","","","","","","","","","NaN",""
"","S1","","html-keyboard-response","125","270940","0.0-1.0-164.0","0","0","71667","","null","","","null","18","","","","","","","","","","","","","","","",""
"","ISI","","html-keyboard-response","126","271942","0.0-1.0-165.0","0","0","71667","","null","","","null","18","NaN","","","","","","","","","","","","","","",""
"","S2","","html-keyboard-response","127","272195","0.0-1.0-166.0","0","0","71667","","null","","","null","18","","NaN","","","","","","","","","","","","","",""
"","response","","html-keyboard-response","128","272698","0.0-1.0-167.0-0.0","0","0","71667","","501","","","68","18","","","1","18","training","adjacent","ED","5","4","P.jpg","Q.jpg","0","0","1","",""
"","feedback","","html-keyboard-response","129","273701","0.0-1.0-168.0-0.0","0","0","71667","","null","","","null","18","","","","","","","","","","","","","","","",""
"","ITI","","html-keyboard-response","130","274704","0.0-1.0-171.0","0","0","71667","","null","","","null","18","","","","","","","","","","","","","","","NaN",""
"","S1","","html-keyboard-response","131","274956","0.0-1.0-173.0","0","0","71667","","null","","","null","19","","","","","","","","","","","","","","","",""
"","ISI","","html-keyboard-response","132","275957","0.0-1.0-174.0","0","0","71667","","null","","","null","19","NaN","","","","","","","","","","","","","","",""
"","S2","","html-keyboard-response","133","276210","0.0-1.0-175.0","0","0","71667","","null","","","null","19","","NaN","","","","","","","","","","","","","",""
"","response","","html-keyboard-response","134","276617","0.0-1.0-176.0-0.0","0","0","71667","","405","","","75","19","","","1","19","training","adjacent","CB","3","2","L.jpg","O.jpg","1","0","0","",""
"","feedback","","html-keyboard-response","135","277619","0.0-1.0-177.0-0.0","0","0","71667","","null","","","null","19","","","","","","","","","","","","","","","",""
"","time_out","","html-keyboard-response","136","279621","0.0-1.0-179.0-0.0","0","0","71667","","null","","","null","19","","","","","","","","","","","","","","","",""
"","ITI","","html-keyboard-response","137","280623","0.0-1.0-180.0","0","0","71667","","null","","","null","19","","","","","","","","","","","","","","","NaN",""
"","S1","","html-keyboard-response","138","280875","0.0-1.0-182.0","0","0","71667","","null","","","null","20","","","","","","","","","","","","","","","",""
"","ISI","","html-keyboard-response","139","281878","0.0-1.0-183.0","0","0","71667","","null","","","null","20","NaN","","","","","","","","","","","","","","",""
"","S2","","html-keyboard-response","140","282130","0.0-1.0-184.0","0","0","71667","","null","","","null","20","","NaN","","","","","","","","","","","","","",""
"","response","","html-keyboard-response","141","282771","0.0-1.0-185.0-0.0","0","0","71667","","639","","","68","20","","","1","20","training","adjacent","FG","6","7","R.jpg","N.jpg","0","1","0","",""
"","feedback","","html-keyboard-response","142","283774","0.0-1.0-186.0-0.0","0","0","71667","","null","","","null","20","","","","","","","","","","","","","","","",""
"","time_out","","html-keyboard-response","143","285777","0.0-1.0-188.0-0.0","0","0","71667","","null","","","null","20","","","","","","","","","","","","","","","",""
"","ITI","","html-keyboard-response","144","286780","0.0-1.0-189.0","0","0","71667","","null","","","null","20","","","","","","","","","","","","","","","NaN",""
"","S1","","html-keyboard-response","145","287031","0.0-1.0-191.0","0","0","71667","","null","","","null","21","","","","","","","","","","","","","","","",""
"","ISI","","html-keyboard-response","146","288033","0.0-1.0-192.0","0","0","71667","","null","","","null","21","NaN","","","","","","","","","","","","","","",""
"","S2","","html-keyboard-response","147","288285","0.0-1.0-193.0","0","0","71667","","null","","","null","21","","NaN","","","","","","","","","","","","","",""
"","response","","html-keyboard-response","148","288667","0.0-1.0-194.0-0.0","0","0","71667","","380","","","75","21","","","1","21","training","adjacent","FG","6","7","R.jpg","N.jpg","1","1","1","",""
"","feedback","","html-keyboard-response","149","289670","0.0-1.0-195.0-0.0","0","0","71667","","null","","","null","21","","","","","","","","","","","","","","","",""
"","ITI","","html-keyboard-response","150","290672","0.0-1.0-198.0","0","0","71667","","null","","","null","21","","","","","","","","","","","","","","","NaN",""
"","S1","","html-keyboard-response","151","290924","0.0-1.0-200.0","0","0","71667","","null","","","null","22","","","","","","","","","","","","","","","",""
"","ISI","","html-keyboard-response","152","291926","0.0-1.0-201.0","0","0","71667","","null","","","null","22","NaN","","","","","","","","","","","","","","",""
"","S2","","html-keyboard-response","153","292178","0.0-1.0-202.0","0","0","71667","","null","","","null","22","","NaN","","","","","","","","","","","","","",""
"","response","","html-keyboard-response","154","292746","0.0-1.0-203.0-0.0","0","0","71667","","566","","","68","22","","","1","22","training","adjacent","DC","4","3","Q.jpg","L.jpg","0","0","1","",""
"","feedback","","html-keyboard-response","155","293749","0.0-1.0-204.0-0.0","0","0","71667","","null","","","null","22","","","","","","","","","","","","","","","",""
"","ITI","","html-keyboard-response","156","294751","0.0-1.0-207.0","0","0","71667","","null","","","null","22","","","","","","","","","","","","","","","NaN",""
"","S1","","html-keyboard-response","157","295004","0.0-1.0-209.0","0","0","71667","","null","","","null","23","","","","","","","","","","","","","","","",""
"","ISI","","html-keyboard-response","158","296006","0.0-1.0-210.0","0","0","71667","","null","","","null","23","NaN","","","","","","","","","","","","","","",""
"","S2","","html-keyboard-response","159","296258","0.0-1.0-211.0","0","0","71667","","null","","","null","23","","NaN","","","","","","","","","","","","","",""
"","response","","html-keyboard-response","160","298010","0.0-1.0-212.0-0.0","0","0","71667","","null","","","null","23","","","1","23","training","adjacent","BA","2","1","O.jpg","M.jpg","NaN","0","0","",""
"","too_slow_prompt","","html-keyboard-response","161","299013","0.0-1.0-214.0-0.0","1","0","71667","","null","","","null","","","","","","","","","","","","","","","","",""
"","time_out","","html-keyboard-response","162","301015","0.0-1.0-215.0-0.0","0","0","71667","","null","","","null","23","","","","","","","","","","","","","","","",""
"","ITI","","html-keyboard-response","163","302018","0.0-1.0-216.0","0","0","71667","","null","","","null","23","","","","","","","","","","","","","","","NaN",""
"","S1","","html-keyboard-response","164","302269","0.0-1.0-218.0","0","0","71667","","null","","","null","24","","","","","","","","","","","","","","","",""
"","ISI","","html-keyboard-response","165","303271","0.0-1.0-219.0","0","0","71667","","null","","","null","24","NaN","","","","","","","","","","","","","","",""
"","S2","","html-keyboard-response","166","303524","0.0-1.0-220.0","0","0","71667","","null","","","null","24","","NaN","","","","","","","","","","","","","",""
"","response","","html-keyboard-response","167","303874","0.0-1.0-221.0-0.0","0","0","71667","","348","","","75","24","","","1","24","training","adjacent","AB","1","2","M.jpg","O.jpg","1","1","1","",""
"","feedback","","html-keyboard-response","168","304876","0.0-1.0-222.0-0.0","0","0","71667","","null","","","null","24","","","","","","","","","","","","","","","",""
"","ITI","","html-keyboard-response","169","305878","0.0-1.0-225.0","0","0","71667","","null","","","null","24","","","","","","","","","","","","","","","NaN",""
"","S1","","html-keyboard-response","170","306130","0.0-1.0-227.0","0","0","71667","","null","","","null","25","","","","","","","","","","","","","","","",""
"","ISI","","html-keyboard-response","171","307132","0.0-1.0-228.0","0","0","71667","","618","","","68","25","d","","","","","","","","","","","","","","",""
"","S2","","html-keyboard-response","172","307385","0.0-1.0-229.0","0","0","71667","","null","","","null","25","","NaN","","","","","","","","","","","","","",""
"","response","","html-keyboard-response","173","308157","0.0-1.0-230.0-0.0","0","0","71667","","770","","","68","25","","","1","25","training","adjacent","BC","2","3","O.jpg","L.jpg","0","1","0","",""
"","feedback","","html-keyboard-response","174","309159","0.0-1.0-231.0-0.0","0","0","71667","","null","","","null","25","","","","","","","","","","","","","","","",""
"","time_out","","html-keyboard-response","175","311161","0.0-1.0-233.0-0.0","0","0","71667","","null","","","null","25","","","","","","","","","","","","","","","",""
"","ITI","","html-keyboard-response","176","312163","0.0-1.0-234.0","0","0","71667","","null","","","null","25","","","","","","","","","","","","","","","NaN",""
"","S1","","html-keyboard-response","177","312415","0.0-1.0-236.0","0","0","71667","","null","","","null","26","","","","","","","","","","","","","","","",""
"","ISI","","html-keyboard-response","178","313417","0.0-1.0-237.0","0","0","71667","","607","","","68","26","d","","","","","","","","","","","","","","",""
"","S2","","html-keyboard-response","179","313671","0.0-1.0-238.0","0","0","71667","","null","","","null","26","","NaN","","","","","","","","","","","","","",""
"","response","","html-keyboard-response","180","314139","0.0-1.0-239.0-0.0","0","0","71667","","466","","","68","26","","","1","26","training","adjacent","GF","7","6","N.jpg","R.jpg","0","0","1","",""
"","feedback","","html-keyboard-response","181","315144","0.0-1.0-240.0-0.0","0","0","71667","","null","","","null","26","","","","","","","","","","","","","","","",""
"","ITI","","html-keyboard-response","182","316147","0.0-1.0-243.0","0","0","71667","","null","","","null","26","","","","","","","","","","","","","","","NaN",""
"","S1","","html-keyboard-response","183","316399","0.0-1.0-245.0","0","0","71667","","null","","","null","27","","","","","","","","","","","","","","","",""
"","ISI","","html-keyboard-response","184","317400","0.0-1.0-246.0","0","0","71667","","null","","","null","27","NaN","","","","","","","","","","","","","","",""
"","S2","","html-keyboard-response","185","317652","0.0-1.0-247.0","0","0","71667","","null","","","null","27","","NaN","","","","","","","","","","","","","",""
"","response","","html-keyboard-response","186","318224","0.0-1.0-248.0-0.0","0","0","71667","","570","","","75","27","","","1","27","training","adjacent","BA","2","1","O.jpg","M.jpg","1","0","0","",""
"","feedback","","html-keyboard-response","187","319226","0.0-1.0-249.0-0.0","0","0","71667","","null","","","null","27","","","","","","","","","","","","","","","",""
"","time_out","","html-keyboard-response","188","321229","0.0-1.0-251.0-0.0","0","0","71667","","null","","","null","27","","","","","","","","","","","","","","","",""
"","ITI","","html-keyboard-response","189","322231","0.0-1.0-252.0","0","0","71667","","null","","","null","27","","","","","","","","","","","","","","","NaN",""
"","S1","","html-keyboard-response","190","322482","0.0-1.0-254.0","0","0","71667","","null","","","null","28","","","","","","","","","","","","","","","",""
"","ISI","","html-keyboard-response","191","323484","0.0-1.0-255.0","0","0","71667","","null","","","null","28","NaN","","","","","","","","","","","","","","",""
"","S2","","html-keyboard-response","192","323737","0.0-1.0-256.0","0","0","71667","","null","","","null","28","","NaN","","","","","","","","","","","","","",""
"","response","","html-keyboard-response","193","324125","0.0-1.0-257.0-0.0","0","0","71667","","387","","","75","28","","","1","28","training","adjacent","ED","5","4","P.jpg","Q.jpg","1","0","0","",""
"","feedback","","html-keyboard-response","194","325128","0.0-1.0-258.0-0.0","0","0","71667","","null","","","null","28","","","","","","","","","","","","","","","",""
"","time_out","","html-keyboard-response","195","327130","0.0-1.0-260.0-0.0","0","0","71667","","null","","","null","28","","","","","","","","","","","","","","","",""
"","ITI","","html-keyboard-response","196","328132","0.0-1.0-261.0","0","0","71667","","null","","","null","28","","","","","","","","","","","","","","","NaN",""
"","S1","","html-keyboard-response","197","328384","0.0-1.0-263.0","0","0","71667","","null","","","null","29","","","","","","","","","","","","","","","",""
"","ISI","","html-keyboard-response","198","329386","0.0-1.0-264.0","0","0","71667","","null","","","null","29","NaN","","","","","","","","","","","","","","",""
"","S2","","html-keyboard-response","199","329638","0.0-1.0-265.0","0","0","71667","","null","","","null","29","","NaN","","","","","","","","","","","","","",""
"","response","","html-keyboard-response","200","329746","0.0-1.0-266.0-0.0","0","0","71667","","106","","","68","29","","","1","29","training","adjacent","CD","3","4","L.jpg","Q.jpg","0","1","0","",""
"","feedback","","html-keyboard-response","201","330749","0.0-1.0-267.0-0.0","0","0","71667","","null","","","null","29","","","","","","","","","","","","","","","",""
"","time_out","","html-keyboard-response","202","332751","0.0-1.0-269.0-0.0","0","0","71667","","null","","","null","29","","","","","","","","","","","","","","","",""
"","ITI","","html-keyboard-response","203","333752","0.0-1.0-270.0","0","0","71667","","null","","","null","29","","","","","","","","","","","","","","","NaN",""
"","S1","","html-keyboard-response","204","334006","0.0-1.0-272.0","0","0","71667","","null","","","null","30","","","","","","","","","","","","","","","",""
"","ISI","","html-keyboard-response","205","335008","0.0-1.0-273.0","0","0","71667","","524","","","75","30","k","","","","","","","","","","","","","","",""
"","S2","","html-keyboard-response","206","335259","0.0-1.0-274.0","0","0","71667","","null","","","null","30","","NaN","","","","","","","","","","","","","",""
"","response","","html-keyboard-response","207","335656","0.0-1.0-275.0-0.0","0","0","71667","","395","","","75","30","","","1","30","training","adjacent","ED","5","4","P.jpg","Q.jpg","1","0","0","",""
"","feedback","","html-keyboard-response","208","336659","0.0-1.0-276.0-0.0","0","0","71667","","null","","","null","30","","","","","","","","","","","","","","","",""
"","time_out","","html-keyboard-response","209","338662","0.0-1.0-278.0-0.0","0","0","71667","","null","","","null","30","","","","","","","","","","","","","","","",""
"","ITI","","html-keyboard-response","210","339664","0.0-1.0-279.0","0","0","71667","","null","","","null","30","","","","","","","","","","","","","","","NaN",""
"","S1","","html-keyboard-response","211","339916","0.0-1.0-281.0","0","0","71667","","null","","","null","31","","","","","","","","","","","","","","","",""
"","ISI","","html-keyboard-response","212","340919","0.0-1.0-282.0","0","0","71667","","null","","","null","31","NaN","","","","","","","","","","","","","","",""
"","S2","","html-keyboard-response","213","341172","0.0-1.0-283.0","0","0","71667","","null","","","null","31","","NaN","","","","","","","","","","","","","",""
"","response","","html-keyboard-response","214","341722","0.0-1.0-284.0-0.0","0","0","71667","","549","","","75","31","","","1","31","training","adjacent","DE","4","5","Q.jpg","P.jpg","1","1","1","",""
"","feedback","","html-keyboard-response","215","342725","0.0-1.0-285.0-0.0","0","0","71667","","null","","","null","31","","","","","","","","","","","","","","","",""
"","ITI","","html-keyboard-response","216","343727","0.0-1.0-288.0","0","0","71667","","null","","","null","31","","","","","","","","","","","","","","","NaN",""
"","S1","","html-keyboard-response","217","343980","0.0-1.0-290.0","0","0","71667","","null","","","null","32","","","","","","","","","","","","","","","",""
"","ISI","","html-keyboard-response","218","344982","0.0-1.0-291.0","0","0","71667","","null","","","null","32","NaN","","","","","","","","","","","","","","",""
"","S2","","html-keyboard-response","219","345237","0.0-1.0-292.0","0","0","71667","","null","","","null","32","","NaN","","","","","","","","","","","","","",""
"","response","","html-keyboard-response","220","346704","0.0-1.0-293.0-0.0","0","0","71667","","1466","","","68","32","","","1","32","training","adjacent","DC","4","3","Q.jpg","L.jpg","0","0","1","",""
"","feedback","","html-keyboard-response","221","347707","0.0-1.0-294.0-0.0","0","0","71667","","null","","","null","32","","","","","","","","","","","","","","","",""
"","ITI","","html-keyboard-response","222","348710","0.0-1.0-297.0","0","0","71667","","null","","","null","32","","","","","","","","","","","","","","","NaN",""
"","S1","","html-keyboard-response","223","348962","0.0-1.0-299.0","0","0","71667","","null","","","null","33","","","","","","","","","","","","","","","",""
"","ISI","","html-keyboard-response","224","349964","0.0-1.0-300.0","0","0","71667","","null","","","null","33","NaN","","","","","","","","","","","","","","",""
"","S2","","html-keyboard-response","225","350217","0.0-1.0-301.0","0","0","71667","","null","","","null","33","","NaN","","","","","","","","","","","","","",""
"","response","","html-keyboard-response","226","350834","0.0-1.0-302.0-0.0","0","0","71667","","615","","","75","33","","","1","33","training","adjacent","BC","2","3","O.jpg","L.jpg","1","1","1","",""
"","feedback","","html-keyboard-response","227","351837","0.0-1.0-303.0-0.0","0","0","71667","","null","","","null","33","","","","","","","","","","","","","","","",""
"","ITI","","html-keyboard-response","228","352839","0.0-1.0-306.0","0","0","71667","","null","","","null","33","","","","","","","","","","","","","","","NaN",""
"","S1","","html-keyboard-response","229","353092","0.0-1.0-308.0","0","0","71667","","null","","","null","34","","","","","","","","","","","","","","","",""
"","ISI","","html-keyboard-response","230","354093","0.0-1.0-309.0","0","0","71667","","null","","","null","34","NaN","","","","","","","","","","","","","","",""
"","S2","","html-keyboard-response","231","354346","0.0-1.0-310.0","0","0","71667","","null","","","null","34","","NaN","","","","","","","","","","","","","",""
"","response","","html-keyboard-response","232","355238","0.0-1.0-311.0-0.0","0","0","71667","","890","","","68","34","","","1","34","training","adjacent","CB","3","2","L.jpg","O.jpg","0","0","1","",""
"","feedback","","html-keyboard-response","233","356241","0.0-1.0-312.0-0.0","0","0","71667","","null","","","null","34","","","","","","","","","","","","","","","",""
"","ITI","","html-keyboard-response","234","357243","0.0-1.0-315.0","0","0","71667","","null","","","null","34","","","","","","","","","","","","","","","NaN",""
"","S1","","html-keyboard-response","235","357495","0.0-1.0-317.0","0","0","71667","","null","","","null","35","","","","","","","","","","","","","","","",""
"","ISI","","html-keyboard-response","236","358497","0.0-1.0-318.0","0","0","71667","","null","","","null","35","NaN","","","","","","","","","","","","","","",""
"","S2","","html-keyboard-response","237","358749","0.0-1.0-319.0","0","0","71667","","null","","","null","35","","NaN","","","","","","","","","","","","","",""
"","response","","html-keyboard-response","238","359707","0.0-1.0-320.0-0.0","0","0","71667","","956","","","75","35","","","1","35","training","adjacent","FG","6","7","R.jpg","N.jpg","1","1","1","",""
"","feedback","","html-keyboard-response","239","360709","0.0-1.0-321.0-0.0","0","0","71667","","null","","","null","35","","","","","","","","","","","","","","","",""
"","ITI","","html-keyboard-response","240","361711","0.0-1.0-324.0","0","0","71667","","null","","","null","35","","","","","","","","","","","","","","","NaN",""
"","S1","","html-keyboard-response","241","361963","0.0-1.0-326.0","0","0","71667","","null","","","null","36","","","","","","","","","","","","","","","",""
"","ISI","","html-keyboard-response","242","362965","0.0-1.0-327.0","0","0","71667","","null","","","null","36","NaN","","","","","","","","","","","","","","",""
"","S2","","html-keyboard-response","243","363217","0.0-1.0-328.0","0","0","71667","","null","","","null","36","","NaN","","","","","","","","","","","","","",""
"","response","","html-keyboard-response","244","364714","0.0-1.0-329.0-0.0","0","0","71667","","1495","","","68","36","","","1","36","training","adjacent","FE","6","5","R.jpg","P.jpg","0","0","1","",""
"","feedback","","html-keyboard-response","245","365717","0.0-1.0-330.0-0.0","0","0","71667","","null","","","null","36","","","","","","","","","","","","","","","",""
"","ITI","","html-keyboard-response","246","366719","0.0-1.0-333.0","0","0","71667","","null","","","null","36","","","","","","","","","","","","","","","NaN",""
"","S1","","html-keyboard-response","247","366972","0.0-1.0-335.0","0","0","71667","","null","","","null","37","","","","","","","","","","","","","","","",""
"","ISI","","html-keyboard-response","248","367975","0.0-1.0-336.0","0","0","71667","","null","","","null","37","NaN","","","","","","","","","","","","","","",""
"","S2","","html-keyboard-response","249","368217","0.0-1.0-337.0","0","0","71667","","240","","","75","37","","k","1","37","training","adjacent","AB","1","2","M.jpg","O.jpg","1","1","1","",""
"","feedback","","html-keyboard-response","250","369221","0.0-1.0-339.0-0.0","0","0","71667","","null","","","null","37","","","","","","","","","","","","","","","",""
"","ITI","","html-keyboard-response","251","370223","0.0-1.0-342.0","0","0","71667","","null","","","null","37","","","","","","","","","","","","","","","NaN",""
"","S1","","html-keyboard-response","252","370474","0.0-1.0-344.0","0","0","71667","","null","","","null","38","","","","","","","","","","","","","","","",""
"","ISI","","html-keyboard-response","253","371476","0.0-1.0-345.0","0","0","71667","","846","","","68","38","d","","","","","","","","","","","","","","",""
"","S2","","html-keyboard-response","254","371729","0.0-1.0-346.0","0","0","71667","","null","","","null","38","","NaN","","","","","","","","","","","","","",""
"","response","","html-keyboard-response","255","373481","0.0-1.0-347.0-0.0","0","0","71667","","null","","","null","38","","","1","38","training","adjacent","BC","2","3","O.jpg","L.jpg","NaN","1","0","",""
"","too_slow_prompt","","html-keyboard-response","256","374483","0.0-1.0-349.0-0.0","1","0","71667","","null","","","null","","","","","","","","","","","","","","","","",""
"","time_out","","html-keyboard-response","257","376485","0.0-1.0-350.0-0.0","0","0","71667","","null","","","null","38","","","","","","","","","","","","","","","",""
"","ITI","","html-keyboard-response","258","377487","0.0-1.0-351.0","0","0","71667","","null","","","null","38","","","","","","","","","","","","","","","NaN",""
"","S1","","html-keyboard-response","259","377740","0.0-1.0-353.0","0","0","71667","","null","","","null","39","","","","","","","","","","","","","","","",""
"","ISI","","html-keyboard-response","260","378741","0.0-1.0-354.0","0","0","71667","","115","","","68","39","d","","","","","","","","","","","","","","",""
"","S2","","html-keyboard-response","261","378994","0.0-1.0-355.0","0","0","71667","","null","","","null","39","","NaN","","","","","","","","","","","","","",""
"","response","","html-keyboard-response","262","380747","0.0-1.0-356.0-0.0","0","0","71667","","null","","","null","39","","","1","39","training","adjacent","GF","7","6","N.jpg","R.jpg","NaN","0","0","",""
"","too_slow_prompt","","html-keyboard-response","263","381749","0.0-1.0-358.0-0.0","1","0","71667","","null","","","null","","","","","","","","","","","","","","","","",""
"","time_out","","html-keyboard-response","264","383751","0.0-1.0-359.0-0.0","0","0","71667","","null","","","null","39","","","","","","","","","","","","","","","",""
"","ITI","","html-keyboard-response","265","384754","0.0-1.0-360.0","0","0","71667","","null","","","null","39","","","","","","","","","","","","","","","NaN",""
"","S1","","html-keyboard-response","266","385006","0.0-1.0-362.0","0","0","71667","","null","","","null","40","","","","","","","","","","","","","","","",""
"","ISI","","html-keyboard-response","267","386009","0.0-1.0-363.0","0","0","71667","","null","","","null","40","NaN","","","","","","","","","","","","","","",""
"","S2","","html-keyboard-response","268","386261","0.0-1.0-364.0","0","0","71667","","null","","","null","40","","NaN","","","","","","","","","","","","","",""
"","response","","html-keyboard-response","269","386843","0.0-1.0-365.0-0.0","0","0","71667","","580","","","68","40","","","1","40","training","adjacent","AB","1","2","M.jpg","O.jpg","0","1","0","",""
"","feedback","","html-keyboard-response","270","387845","0.0-1.0-366.0-0.0","0","0","71667","","null","","","null","40","","","","","","","","","","","","","","","",""
"","time_out","","html-keyboard-response","271","389847","0.0-1.0-368.0-0.0","0","0","71667","","null","","","null","40","","","","","","","","","","","","","","","",""
"","ITI","","html-keyboard-response","272","390849","0.0-1.0-369.0","0","0","71667","","null","","","null","40","","","","","","","","","","","","","","","NaN",""
"","S1","","html-keyboard-response","273","391102","0.0-1.0-371.0","0","0","71667","","null","","","null","41","","","","","","","","","","","","","","","",""
"","ISI","","html-keyboard-response","274","392104","0.0-1.0-372.0","0","0","71667","","null","","","null","41","NaN","","","","","","","","","","","","","","",""
"","S2","","html-keyboard-response","275","392357","0.0-1.0-373.0","0","0","71667","","null","","","null","41","","NaN","","","","","","","","","","","","","",""
"","response","","html-keyboard-response","276","392634","0.0-1.0-374.0-0.0","0","0","71667","","276","","","75","41","","","1","41","training","adjacent","AB","1","2","M.jpg","O.jpg","1","1","1","",""
"","feedback","","html-keyboard-response","277","393637","0.0-1.0-375.0-0.0","0","0","71667","","null","","","null","41","","","","","","","","","","","","","","","",""
"","ITI","","html-keyboard-response","278","394639","0.0-1.0-378.0","0","0","71667","","null","","","null","41","","","","","","","","","","","","","","","NaN",""
"","S1","","html-keyboard-response","279","394892","0.0-1.0-380.0","0","0","71667","","null","","","null","42","","","","","","","","","","","","","","","",""
"","ISI","","html-keyboard-response","280","395894","0.0-1.0-381.0","0","0","71667","","null","","","null","42","NaN","","","","","","","","","","","","","","",""
"","S2","","html-keyboard-response","281","396146","0.0-1.0-382.0","0","0","71667","","null","","","null","42","","NaN","","","","","","","","","","","","","",""
"","response","","html-keyboard-response","282","396391","0.0-1.0-383.0-0.0","0","0","71667","","243","","","68","42","","","1","42","training","adjacent","DE","4","5","Q.jpg","P.jpg","0","1","0","",""
"","feedback","","html-keyboard-response","283","397394","0.0-1.0-384.0-0.0","0","0","71667","","null","","","null","42","","","","","","","","","","","","","","","",""
"","time_out","","html-keyboard-response","284","399396","0.0-1.0-386.0-0.0","0","0","71667","","null","","","null","42","","","","","","","","","","","","","","","",""
"","ITI","","html-keyboard-response","285","400398","0.0-1.0-387.0","0","0","71667","","null","","","null","42","","","","","","","","","","","","","","","NaN",""
"","S1","","html-keyboard-response","286","400650","0.0-1.0-389.0","0","0","71667","","null","","","null","43","","","","","","","","","","","","","","","",""
"","ISI","","html-keyboard-response","287","401652","0.0-1.0-390.0","0","0","71667","","null","","","null","43","NaN","","","","","","","","","","","","","","",""
"","S2","","html-keyboard-response","288","401904","0.0-1.0-391.0","0","0","71667","","null","","","null","43","","NaN","","","","","","","","","","","","","",""
"","response","","html-keyboard-response","289","402330","0.0-1.0-392.0-0.0","0","0","71667","","424","","","75","43","","","1","43","training","adjacent","FG","6","7","R.jpg","N.jpg","1","1","1","",""
"","feedback","","html-keyboard-response","290","403333","0.0-1.0-393.0-0.0","0","0","71667","","null","","","null","43","","","","","","","","","","","","","","","",""
"","ITI","","html-keyboard-response","291","404336","0.0-1.0-396.0","0","0","71667","","null","","","null","43","","","","","","","","","","","","","","","NaN",""
"","S1","","html-keyboard-response","292","404588","0.0-1.0-398.0","0","0","71667","","null","","","null","44","","","","","","","","","","","","","","","",""
"","ISI","","html-keyboard-response","293","405591","0.0-1.0-399.0","0","0","71667","","null","","","null","44","NaN","","","","","","","","","","","","","","",""
"","S2","","html-keyboard-response","294","405843","0.0-1.0-400.0","0","0","71667","","null","","","null","44","","NaN","","","","","","","","","","","","","",""
"","response","","html-keyboard-response","295","406471","0.0-1.0-401.0-0.0","0","0","71667","","626","","","68","44","","","1","44","training","adjacent","CB","3","2","L.jpg","O.jpg","0","0","1","",""
"","feedback","","html-keyboard-response","296","407474","0.0-1.0-402.0-0.0","0","0","71667","","null","","","null","44","","","","","","","","","","","","","","","",""
"","ITI","","html-keyboard-response","297","408476","0.0-1.0-405.0","0","0","71667","","null","","","null","44","","","","","","","","","","","","","","","NaN",""
"","S1","","html-keyboard-response","298","408729","0.0-1.0-407.0","0","0","71667","","null","","","null","45","","","","","","","","","","","","","","","",""
"","ISI","","html-keyboard-response","299","409732","0.0-1.0-408.0","0","0","71667","","null","","","null","45","NaN","","","","","","","","","","","","","","",""
"","S2","","html-keyboard-response","300","409985","0.0-1.0-409.0","0","0","71667","","null","","","null","45","","NaN","","","","","","","","","","","","","",""
"","response","","html-keyboard-response","301","410500","0.0-1.0-410.0-0.0","0","0","71667","","513","","","68","45","","","1","45","training","adjacent","EF","5","6","P.jpg","R.jpg","0","1","0","",""
"","feedback","","html-keyboard-response","302","411503","0.0-1.0-411.0-0.0","0","0","71667","","null","","","null","45","","","","","","","","","","","","","","","",""
"","time_out","","html-keyboard-response","303","413505","0.0-1.0-413.0-0.0","0","0","71667","","null","","","null","45","","","","","","","","","","","","","","","",""
"","ITI","","html-keyboard-response","304","414508","0.0-1.0-414.0","0","0","71667","","606","","","75","45","","","","","","","","","","","","","","","k",""
"","S1","","html-keyboard-response","305","414760","0.0-1.0-416.0","0","0","71667","","null","","","null","46","","","","","","","","","","","","","","","",""
"","ISI","","html-keyboard-response","306","415763","0.0-1.0-417.0","0","0","71667","","362","","","75","46","k","","","","","","","","","","","","","","",""
"","S2","","html-keyboard-response","307","416015","0.0-1.0-418.0","0","0","71667","","null","","","null","46","","NaN","","","","","","","","","","","","","",""
"","response","","html-keyboard-response","308","416497","0.0-1.0-419.0-0.0","0","0","71667","","480","","","68","46","","","1","46","training","adjacent","FE","6","5","R.jpg","P.jpg","0","0","1","",""
"","feedback","","html-keyboard-response","309","417500","0.0-1.0-420.0-0.0","0","0","71667","","null","","","null","46","","","","","","","","","","","","","","","",""
"","ITI","","html-keyboard-response","310","418503","0.0-1.0-423.0","0","0","71667","","null","","","null","46","","","","","","","","","","","","","","","NaN",""
"","S1","","html-keyboard-response","311","418755","0.0-1.0-425.0","0","0","71667","","null","","","null","47","","","","","","","","","","","","","","","",""
"","ISI","","html-keyboard-response","312","419758","0.0-1.0-426.0","0","0","71667","","null","","","null","47","NaN","","","","","","","","","","","","","","",""
"","S2","","html-keyboard-response","313","420010","0.0-1.0-427.0","0","0","71667","","null","","","null","47","","NaN","","","","","","","","","","","","","",""
"","response","","html-keyboard-response","314","420409","0.0-1.0-428.0-0.0","0","0","71667","","398","","","68","47","","","1","47","training","adjacent","DE","4","5","Q.jpg","P.jpg","0","1","0","",""
"","feedback","","html-keyboard-response","315","421411","0.0-1.0-429.0-0.0","0","0","71667","","null","","","null","47","","","","","","","","","","","","","","","",""
"","time_out","","html-keyboard-response","316","423413","0.0-1.0-431.0-0.0","0","0","71667","","null","","","null","47","","","","","","","","","","","","","","","",""
"","ITI","","html-keyboard-response","317","424416","0.0-1.0-432.0","0","0","71667","","282","","","75","47","","","","","","","","","","","","","","","k",""
"","block_over","","html-keyboard-response","318","460108","0.0-1.0-433.0-0.0","0","0","71667","","35690","","","32","47","","","","","","","","","","","","","","","",""
"","S1","","html-keyboard-response","319","460360","0.0-1.0-434.0","0","0","71667","","null","","","null","48","","","","","","","","","","","","","","","",""
"","ISI","","html-keyboard-response","320","461362","0.0-1.0-435.0","0","0","71667","","null","","","null","48","NaN","","","","","","","","","","","","","","",""
"","S2","","html-keyboard-response","321","461615","0.0-1.0-436.0","0","0","71667","","null","","","null","48","","NaN","","","","","","","","","","","","","",""
"","response","","html-keyboard-response","322","462122","0.0-1.0-437.0-0.0","0","0","71667","","506","","","75","48","","","2","48","training","adjacent","CB","3","2","L.jpg","O.jpg","1","0","0","",""
"","feedback","","html-keyboard-response","323","463124","0.0-1.0-438.0-0.0","0","0","71667","","null","","","null","48","","","","","","","","","","","","","","","",""
"","time_out","","html-keyboard-response","324","465126","0.0-1.0-440.0-0.0","0","0","71667","","null","","","null","48","","","","","","","","","","","","","","","",""
"","ITI","","html-keyboard-response","325","466128","0.0-1.0-441.0","0","0","71667","","null","","","null","48","","","","","","","","","","","","","","","NaN",""
"","S1","","html-keyboard-response","326","466381","0.0-1.0-443.0","0","0","71667","","null","","","null","49","","","","","","","","","","","","","","","",""
"","ISI","","html-keyboard-response","327","467383","0.0-1.0-444.0","0","0","71667","","null","","","null","49","NaN","","","","","","","","","","","","","","",""
"","S2","","html-keyboard-response","328","467636","0.0-1.0-445.0","0","0","71667","","null","","","null","49","","NaN","","","","","","","","","","","","","",""
"","response","","html-keyboard-response","329","467848","0.0-1.0-446.0-0.0","0","0","71667","","209","","","68","49","","","2","49","training","adjacent","AB","1","2","M.jpg","O.jpg","0","1","0","",""
"","feedback","","html-keyboard-response","330","468850","0.0-1.0-447.0-0.0","0","0","71667","","null","","","null","49","","","","","","","","","","","","","","","",""
"","time_out","","html-keyboard-response","331","470852","0.0-1.0-449.0-0.0","0","0","71667","","null","","","null","49","","","","","","","","","","","","","","","",""
"","ITI","","html-keyboard-response","332","471854","0.0-1.0-450.0","0","0","71667","","null","","","null","49","","","","","","","","","","","","","","","NaN",""
"","S1","","html-keyboard-response","333","472106","0.0-1.0-452.0","0","0","71667","","null","","","null","50","","","","","","","","","","","","","","","",""
"","ISI","","html-keyboard-response","334","473108","0.0-1.0-453.0","0","0","71667","","null","","","null","50","NaN","","","","","","","","","","","","","","",""
"","S2","","html-keyboard-response","335","473361","0.0-1.0-454.0","0","0","71667","","null","","","null","50","","NaN","","","","","","","","","","","","","",""
"","response","","html-keyboard-response","336","473930","0.0-1.0-455.0-0.0","0","0","71667","","568","","","68","50","","","2","50","training","adjacent","ED","5","4","P.jpg","Q.jpg","0","0","1","",""
"","feedback","","html-keyboard-response","337","474932","0.0-1.0-456.0-0.0","0","0","71667","","null","","","null","50","","","","","","","","","","","","","","","",""
"","ITI","","html-keyboard-response","338","475934","0.0-1.0-459.0","0","0","71667","","null","","","null","50","","","","","","","","","","","","","","","NaN",""
"","S1","","html-keyboard-response","339","476187","0.0-1.0-461.0","0","0","71667","","null","","","null","51","","","","","","","","","","","","","","","",""
"","ISI","","html-keyboard-response","340","477188","0.0-1.0-462.0","0","0","71667","","null","","","null","51","NaN","","","","","","","","","","","","","","",""
"","S2","","html-keyboard-response","341","477441","0.0-1.0-463.0","0","0","71667","","null","","","null","51","","NaN","","","","","","","","","","","","","",""
"","response","","html-keyboard-response","342","477943","0.0-1.0-464.0-0.0","0","0","71667","","502","","","68","51","","","2","51","training","adjacent","FE","6","5","R.jpg","P.jpg","0","0","1","",""
"","feedback","","html-keyboard-response","343","478946","0.0-1.0-465.0-0.0","0","0","71667","","null","","","null","51","","","","","","","","","","","","","","","",""
"","ITI","","html-keyboard-response","344","479948","0.0-1.0-468.0","0","0","71667","","null","","","null","51","","","","","","","","","","","","","","","NaN",""
"","S1","","html-keyboard-response","345","480201","0.0-1.0-470.0","0","0","71667","","null","","","null","52","","","","","","","","","","","","","","","",""
"","ISI","","html-keyboard-response","346","481203","0.0-1.0-471.0","0","0","71667","","null","","","null","52","NaN","","","","","","","","","","","","","","",""
"","S2","","html-keyboard-response","347","481361","0.0-1.0-472.0","0","0","71667","","157","","","75","52","","k","2","52","training","adjacent","DE","4","5","Q.jpg","P.jpg","1","1","1","",""
"","feedback","","html-keyboard-response","348","482363","0.0-1.0-474.0-0.0","0","0","71667","","null","","","null","52","","","","","","","","","","","","","","","",""
"","ITI","","html-keyboard-response","349","483365","0.0-1.0-477.0","0","0","71667","","null","","","null","52","","","","","","","","","","","","","","","NaN",""
"","S1","","html-keyboard-response","350","483618","0.0-1.0-479.0","0","0","71667","","null","","","null","53","","","","","","","","","","","","","","","",""
"","ISI","","html-keyboard-response","351","484620","0.0-1.0-480.0","0","0","71667","","null","","","null","53","NaN","","","","","","","","","","","","","","",""
"","S2","","html-keyboard-response","352","484879","0.0-1.0-481.0","0","0","71667","","null","","","null","53","","NaN","","","","","","","","","","","","","",""
"","response","","html-keyboard-response","353","485547","0.0-1.0-482.0-0.0","0","0","71667","","667","","","68","53","","","2","53","training","adjacent","DC","4","3","Q.jpg","L.jpg","0","0","1","",""
"","feedback","","html-keyboard-response","354","486550","0.0-1.0-483.0-0.0","0","0","71667","","null","","","null","53","","","","","","","","","","","","","","","",""
"","ITI","","html-keyboard-response","355","487552","0.0-1.0-486.0","0","0","71667","","null","","","null","53","","","","","","","","","","","","","","","NaN",""
"","S1","","html-keyboard-response","356","487805","0.0-1.0-488.0","0","0","71667","","null","","","null","54","","","","","","","","","","","","","","","",""
"","ISI","","html-keyboard-response","357","488808","0.0-1.0-489.0","0","0","71667","","null","","","null","54","NaN","","","","","","","","","","","","","","",""
"","S2","","html-keyboard-response","358","489059","0.0-1.0-490.0","0","0","71667","","null","","","null","54","","NaN","","","","","","","","","","","","","",""
"","response","","html-keyboard-response","359","489762","0.0-1.0-491.0-0.0","0","0","71667","","701","","","68","54","","","2","54","training","adjacent","FE","6","5","R.jpg","P.jpg","0","0","1","",""
"","feedback","","html-keyboard-response","360","490765","0.0-1.0-492.0-0.0","0","0","71667","","null","","","null","54","","","","","","","","","","","","","","","",""
"","ITI","","html-keyboard-response","361","491767","0.0-1.0-495.0","0","0","71667","","null","","","null","54","","","","","","","","","","","","","","","NaN",""
"","S1","","html-keyboard-response","362","492019","0.0-1.0-497.0","0","0","71667","","null","","","null","55","","","","","","","","","","","","","","","",""
"","ISI","","html-keyboard-response","363","493021","0.0-1.0-498.0","0","0","71667","","null","","","null","55","NaN","","","","","","","","","","","","","","",""
"","S2","","html-keyboard-response","364","493273","0.0-1.0-499.0","0","0","71667","","null","","","null","55","","NaN","","","","","","","","","","","","","",""
"","response","","html-keyboard-response","365","493613","0.0-1.0-500.0-0.0","0","0","71667","","338","","","75","55","","","2","55","training","adjacent","GF","7","6","N.jpg","R.jpg","1","0","0","",""
"","feedback","","html-keyboard-response","366","494615","0.0-1.0-501.0-0.0","0","0","71667","","null","","","null","55","","","","","","","","","","","","","","","",""
"","time_out","","html-keyboard-response","367","496617","0.0-1.0-503.0-0.0","0","0","71667","","null","","","null","55","","","","","","","","","","","","","","","",""
"","ITI","","html-keyboard-response","368","497620","0.0-1.0-504.0","0","0","71667","","null","","","null","55","","","","","","","","","","","","","","","NaN",""
"","S1","","html-keyboard-response","369","497874","0.0-1.0-506.0","0","0","71667","","null","","","null","56","","","","","","","","","","","","","","","",""
"","ISI","","html-keyboard-response","370","498876","0.0-1.0-507.0","0","0","71667","","null","","","null","56","NaN","","","","","","","","","","","","","","",""
"","S2","","html-keyboard-response","371","499128","0.0-1.0-508.0","0","0","71667","","null","","","null","56","","NaN","","","","","","","","","","","","","",""
"","response","","html-keyboard-response","372","499142","0.0-1.0-509.0-0.0","0","0","71667","","12","","","75","56","","","2","56","training","adjacent","CB","3","2","L.jpg","O.jpg","1","0","0","",""
"","feedback","","html-keyboard-response","373","500144","0.0-1.0-510.0-0.0","0","0","71667","","null","","","null","56","","","","","","","","","","","","","","","",""
"","time_out","","html-keyboard-response","374","502147","0.0-1.0-512.0-0.0","0","0","71667","","null","","","null","56","","","","","","","","","","","","","","","",""
"","ITI","","html-keyboard-response","375","503150","0.0-1.0-513.0","0","0","71667","","null","","","null","56","","","","","","","","","","","","","","","NaN",""
"","S1","","html-keyboard-response","376","503402","0.0-1.0-515.0","0","0","71667","","null","","","null","57","","","","","","","","","","","","","","","",""
"","ISI","","html-keyboard-response","377","504405","0.0-1.0-516.0","0","0","71667","","null","","","null","57","NaN","","","","","","","","","","","","","","",""
"","S2","","html-keyboard-response","378","504596","0.0-1.0-517.0","0","0","71667","","189","","","68","57","","d","2","57","training","adjacent","FG","6","7","R.jpg","N.jpg","0","1","0","",""
"","feedback","","html-keyboard-response","379","505598","0.0-1.0-519.0-0.0","0","0","71667","","null","","","null","57","","","","","","","","","","","","","","","",""
"","time_out","","html-keyboard-response","380","507601","0.0-1.0-521.0-0.0","0","0","71667","","null","","","null","57","","","","","","","","","","","","","","","",""
"","ITI","","html-keyboard-response","381","508602","0.0-1.0-522.0","0","0","71667","","null","","","null","57","","","","","","","","","","","","","","","NaN",""
"","S1","","html-keyboard-response","382","508854","0.0-1.0-524.0","0","0","71667","","null","","","null","58","","","","","","","","","","","","","","","",""
"","ISI","","html-keyboard-response","383","509856","0.0-1.0-525.0","0","0","71667","","null","","","null","58","NaN","","","","","","","","","","","","","","",""
"","S2","","html-keyboard-response","384","510108","0.0-1.0-526.0","0","0","71667","","null","","","null","58","","NaN","","","","","","","","","","","","","",""
"","response","","html-keyboard-response","385","510295","0.0-1.0-527.0-0.0","0","0","71667","","185","","","75","58","","","2","58","training","adjacent","FE","6","5","R.jpg","P.jpg","1","0","0","",""
"","feedback","","html-keyboard-response","386","511297","0.0-1.0-528.0-0.0","0","0","71667","","null","","","null","58","","","","","","","","","","","","","","","",""
"","time_out","","html-keyboard-response","387","513300","0.0-1.0-530.0-0.0","0","0","71667","","null","","","null","58","","","","","","","","","","","","","","","",""
"","ITI","","html-keyboard-response","388","514302","0.0-1.0-531.0","0","0","71667","","40","","","68","58","","","","","","","","","","","","","","","d",""
"","S1","","html-keyboard-response","389","514555","0.0-1.0-533.0","0","0","71667","","null","","","null","59","","","","","","","","","","","","","","","",""
"","ISI","","html-keyboard-response","390","515558","0.0-1.0-534.0","0","0","71667","","null","","","null","59","NaN","","","","","","","","","","","","","","",""
"","S2","","html-keyboard-response","391","515810","0.0-1.0-535.0","0","0","71667","","null","","","null","59","","NaN","","","","","","","","","","","","","",""
"","response","","html-keyboard-response","392","516264","0.0-1.0-536.0-0.0","0","0","71667","","452","","","75","59","","","2","59","training","adjacent","DE","4","5","Q.jpg","P.jpg","1","1","1","",""
"","feedback","","html-keyboard-response","393","517267","0.0-1.0-537.0-0.0","0","0","71667","","null","","","null","59","","","","","","","","","","","","","","","",""
"","ITI","","html-keyboard-response","394","518268","0.0-1.0-540.0","0","0","71667","","null","","","null","59","","","","","","","","","","","","","","","NaN",""
"","S1","","html-keyboard-response","395","518521","0.0-1.0-542.0","0","0","71667","","null","","","null","60","","","","","","","","","","","","","","","",""
"","ISI","","html-keyboard-response","396","519524","0.0-1.0-543.0","0","0","71667","","null","","","null","60","NaN","","","","","","","","","","","","","","",""
"","S2","","html-keyboard-response","397","519746","0.0-1.0-544.0","0","0","71667","","220","","","68","60","","d","2","60","training","adjacent","DE","4","5","Q.jpg","P.jpg","0","1","0","",""
"","feedback","","html-keyboard-response","398","520749","0.0-1.0-546.0-0.0","0","0","71667","","null","","","null","60","","","","","","","","","","","","","","","",""
"","time_out","","html-keyboard-response","399","522752","0.0-1.0-548.0-0.0","0","0","71667","","null","","","null","60","","","","","","","","","","","","","","","",""
"","ITI","","html-keyboard-response","400","523754","0.0-1.0-549.0","0","0","71667","","null","","","null","60","","","","","","","","","","","","","","","NaN",""
"","S1","","html-keyboard-response","401","524007","0.0-1.0-551.0","0","0","71667","","null","","","null","61","","","","","","","","","","","","","","","",""
"","ISI","","html-keyboard-response","402","525008","0.0-1.0-552.0","0","0","71667","","null","","","null","61","NaN","","","","","","","","","","","","","","",""
"","S2","","html-keyboard-response","403","525261","0.0-1.0-553.0","0","0","71667","","null","","","null","61","","NaN","","","","","","","","","","","","","",""
"","response","","html-keyboard-response","404","525321","0.0-1.0-554.0-0.0","0","0","71667","","59","","","75","61","","","2","61","training","adjacent","DE","4","5","Q.jpg","P.jpg","1","1","1","",""
"","feedback","","html-keyboard-response","405","526324","0.0-1.0-555.0-0.0","0","0","71667","","null","","","null","61","","","","","","","","","","","","","","","",""
"","ITI","","html-keyboard-response","406","527326","0.0-1.0-558.0","0","0","71667","","null","","","null","61","","","","","","","","","","","","","","","NaN",""
"","S1","","html-keyboard-response","407","527578","0.0-1.0-560.0","0","0","71667","","null","","","null","62","","","","","","","","","","","","","","","",""
"","ISI","","html-keyboard-response","408","528580","0.0-1.0-561.0","0","0","71667","","null","","","null","62","NaN","","","","","","","","","","","","","","",""
"","S2","","html-keyboard-response","409","528832","0.0-1.0-562.0","0","0","71667","","null","","","null","62","","NaN","","","","","","","","","","","","","",""
"","response","","html-keyboard-response","410","528859","0.0-1.0-563.0-0.0","0","0","71667","","25","","","68","62","","","2","62","training","adjacent","AB","1","2","M.jpg","O.jpg","0","1","0","",""
"","feedback","","html-keyboard-response","411","529863","0.0-1.0-564.0-0.0","0","0","71667","","null","","","null","62","","","","","","","","","","","","","","","",""
"","time_out","","html-keyboard-response","412","531865","0.0-1.0-566.0-0.0","0","0","71667","","null","","","null","62","","","","","","","","","","","","","","","",""
"","ITI","","html-keyboard-response","413","532868","0.0-1.0-567.0","0","0","71667","","null","","","null","62","","","","","","","","","","","","","","","NaN",""
"","S1","","html-keyboard-response","414","533121","0.0-1.0-569.0","0","0","71667","","null","","","null","63","","","","","","","","","","","","","","","",""
"","ISI","","html-keyboard-response","415","534122","0.0-1.0-570.0","0","0","71667","","null","","","null","63","NaN","","","","","","","","","","","","","","",""
"","S2","","html-keyboard-response","416","534375","0.0-1.0-571.0","0","0","71667","","null","","","null","63","","NaN","","","","","","","","","","","","","",""
"","response","","html-keyboard-response","417","534480","0.0-1.0-572.0-0.0","0","0","71667","","104","","","68","63","","","2","63","training","adjacent","FE","6","5","R.jpg","P.jpg","0","0","1","",""
"","feedback","","html-keyboard-response","418","535483","0.0-1.0-573.0-0.0","0","0","71667","","null","","","null","63","","","","","","","","","","","","","","","",""
"","ITI","","html-keyboard-response","419","536486","0.0-1.0-576.0","0","0","71667","","null","","","null","63","","","","","","","","","","","","","","","NaN",""
"","S1","","html-keyboard-response","420","536738","0.0-1.0-578.0","0","0","71667","","null","","","null","64","","","","","","","","","","","","","","","",""
"","ISI","","html-keyboard-response","421","537740","0.0-1.0-579.0","0","0","71667","","null","","","null","64","NaN","","","","","","","","","","","","","","",""
"","S2","","html-keyboard-response","422","537992","0.0-1.0-580.0","0","0","71667","","null","","","null","64","","NaN","","","","","","","","","","","","","",""
"","response","","html-keyboard-response","423","538255","0.0-1.0-581.0-0.0","0","0","71667","","261","","","75","64","","","2","64","training","adjacent","BC","2","3","O.jpg","L.jpg","1","1","1","",""
"","feedback","","html-keyboard-response","424","539270","0.0-1.0-582.0-0.0","0","0","71667","","null","","","null","64","","","","","","","","","","","","","","","",""
"","ITI","","html-keyboard-response","425","540273","0.0-1.0-585.0","0","0","71667","","null","","","null","64","","","","","","","","","","","","","","","NaN",""
"","S1","","html-keyboard-response","426","540525","0.0-1.0-587.0","0","0","71667","","null","","","null","65","","","","","","","","","","","","","","","",""
"","ISI","","html-keyboard-response","427","541527","0.0-1.0-588.0","0","0","71667","","null","","","null","65","NaN","","","","","","","","","","","","","","",""
"","S2","","html-keyboard-response","428","541689","0.0-1.0-589.0","0","0","71667","","160","","","75","65","","k","2","65","training","adjacent","GF","7","6","N.jpg","R.jpg","1","0","0","",""
"","feedback","","html-keyboard-response","429","542692","0.0-1.0-591.0-0.0","0","0","71667","","null","","","null","65","","","","","","","","","","","","","","","",""
"","time_out","","html-keyboard-response","430","544694","0.0-1.0-593.0-0.0","0","0","71667","","null","","","null","65","","","","","","","","","","","","","","","",""
"","ITI","","html-keyboard-response","431","545697","0.0-1.0-594.0","0","0","71667","","null","","","null","65","","","","","","","","","","","","","","","NaN",""
"","S1","","html-keyboard-response","432","545949","0.0-1.0-596.0","0","0","71667","","null","","","null","66","","","","","","","","","","","","","","","",""
"","ISI","","html-keyboard-response","433","546951","0.0-1.0-597.0","0","0","71667","","null","","","null","66","NaN","","","","","","","","","","","","","","",""
"","S2","","html-keyboard-response","434","547203","0.0-1.0-598.0","0","0","71667","","null","","","null","66","","NaN","","","","","","","","","","","","","",""
"","response","","html-keyboard-response","435","547414","0.0-1.0-599.0-0.0","0","0","71667","","210","","","68","66","","","2","66","training","adjacent","ED","5","4","P.jpg","Q.jpg","0","0","1","",""
"","feedback","","html-keyboard-response","436","548417","0.0-1.0-600.0-0.0","0","0","71667","","null","","","null","66","","","","","","","","","","","","","","","",""
"","ITI","","html-keyboard-response","437","549419","0.0-1.0-603.0","0","0","71667","","null","","","null","66","","","","","","","","","","","","","","","NaN",""
"","S1","","html-keyboard-response","438","549673","0.0-1.0-605.0","0","0","71667","","null","","","null","67","","","","","","","","","","","","","","","",""
"","ISI","","html-keyboard-response","439","550675","0.0-1.0-606.0","0","0","71667","","null","","","null","67","NaN","","","","","","","","","","","","","","",""
"","S2","","html-keyboard-response","440","550928","0.0-1.0-607.0","0","0","71667","","null","","","null","67","","NaN","","","","","","","","","","","","","",""
"","response","","html-keyboard-response","441","551182","0.0-1.0-608.0-0.0","0","0","71667","","252","","","68","67","","","2","67","training","adjacent","EF","5","6","P.jpg","R.jpg","0","1","0","",""
"","feedback","","html-keyboard-response","442","552185","0.0-1.0-609.0-0.0","0","0","71667","","null","","","null","67","","","","","","","","","","","","","","","",""
"","time_out","","html-keyboard-response","443","554188","0.0-1.0-611.0-0.0","0","0","71667","","null","","","null","67","","","","","","","","","","","","","","","",""
"","ITI","","html-keyboard-response","444","555190","0.0-1.0-612.0","0","0","71667","","null","","","null","67","","","","","","","","","","","","","","","NaN",""
"","S1","","html-keyboard-response","445","555442","0.0-1.0-614.0","0","0","71667","","null","","","null","68","","","","","","","","","","","","","","","",""
"","ISI","","html-keyboard-response","446","556444","0.0-1.0-615.0","0","0","71667","","null","","","null","68","NaN","","","","","","","","","","","","","","",""
"","S2","","html-keyboard-response","447","556641","0.0-1.0-616.0","0","0","71667","","195","","","75","68","","k","2","68","training","adjacent","CD","3","4","L.jpg","Q.jpg","1","1","1","",""
"","feedback","","html-keyboard-response","448","557644","0.0-1.0-618.0-0.0","0","0","71667","","null","","","null","68","","","","","","","","","","","","","","","",""
"","ITI","","html-keyboard-response","449","558646","0.0-1.0-621.0","0","0","71667","","null","","","null","68","","","","","","","","","","","","","","","NaN",""
"","S1","","html-keyboard-response","450","558898","0.0-1.0-623.0","0","0","71667","","null","","","null","69","","","","","","","","","","","","","","","",""
"","ISI","","html-keyboard-response","451","559900","0.0-1.0-624.0","0","0","71667","","null","","","null","69","NaN","","","","","","","","","","","","","","",""
"","S2","","html-keyboard-response","452","560154","0.0-1.0-625.0","0","0","71667","","null","","","null","69","","NaN","","","","","","","","","","","","","",""
"","response","","html-keyboard-response","453","560963","0.0-1.0-626.0-0.0","0","0","71667","","808","","","75","69","","","2","69","training","adjacent","BA","2","1","O.jpg","M.jpg","1","0","0","",""
"","feedback","","html-keyboard-response","454","561965","0.0-1.0-627.0-0.0","0","0","71667","","null","","","null","69","","","","","","","","","","","","","","","",""
"","time_out","","html-keyboard-response","455","563967","0.0-1.0-629.0-0.0","0","0","71667","","null","","","null","69","","","","","","","","","","","","","","","",""
"","ITI","","html-keyboard-response","456","564970","0.0-1.0-630.0","0","0","71667","","null","","","null","69","","","","","","","","","","","","","","","NaN",""
"","S1","","html-keyboard-response","457","565223","0.0-1.0-632.0","0","0","71667","","null","","","null","70","","","","","","","","","","","","","","","",""
"","ISI","","html-keyboard-response","458","566234","0.0-1.0-633.0","0","0","71667","","null","","","null","70","NaN","","","","","","","","","","","","","","",""
"","S2","","html-keyboard-response","459","566486","0.0-1.0-634.0","0","0","71667","","null","","","null","70","","NaN","","","","","","","","","","","","","",""
"","response","","html-keyboard-response","460","568244","0.0-1.0-635.0-0.0","0","0","71667","","null","","","null","70","","","2","70","training","adjacent","ED","5","4","P.jpg","Q.jpg","NaN","0","0","",""
"","too_slow_prompt","","html-keyboard-response","461","569246","0.0-1.0-637.0-0.0","1","0","71667","","null","","","null","","","","","","","","","","","","","","","","",""
"","time_out","","html-keyboard-response","462","571250","0.0-1.0-638.0-0.0","0","0","71667","","null","","","null","70","","","","","","","","","","","","","","","",""
"","ITI","","html-keyboard-response","463","572252","0.0-1.0-639.0","0","0","71667","","null","","","null","70","","","","","","","","","","","","","","","NaN",""
"","S1","","html-keyboard-response","464","572504","0.0-1.0-641.0","0","0","71667","","null","","","null","71","","","","","","","","","","","","","","","",""
"","ISI","","html-keyboard-response","465","573505","0.0-1.0-642.0","0","0","71667","","null","","","null","71","NaN","","","","","","","","","","","","","","",""
"","S2","","html-keyboard-response","466","573758","0.0-1.0-643.0","0","0","71667","","null","","","null","71","","NaN","","","","","","","","","","","","","",""
"","response","","html-keyboard-response","467","574135","0.0-1.0-644.0-0.0","0","0","71667","","375","","","68","71","","","2","71","training","adjacent","ED","5","4","P.jpg","Q.jpg","0","0","1","",""
"","feedback","","html-keyboard-response","468","575137","0.0-1.0-645.0-0.0","0","0","71667","","null","","","null","71","","","","","","","","","","","","","","","",""
"","ITI","","html-keyboard-response","469","576139","0.0-1.0-648.0","0","0","71667","","null","","","null","71","","","","","","","","","","","","","","","NaN",""
"","S1","","html-keyboard-response","470","576391","0.0-1.0-650.0","0","0","71667","","null","","","null","72","","","","","","","","","","","","","","","",""
"","ISI","","html-keyboard-response","471","577394","0.0-1.0-651.0","0","0","71667","","null","","","null","72","NaN","","","","","","","","","","","","","","",""
"","S2","","html-keyboard-response","472","577647","0.0-1.0-652.0","0","0","71667","","null","","","null","72","","NaN","","","","","","","","","","","","","",""
"","response","","html-keyboard-response","473","577916","0.0-1.0-653.0-0.0","0","0","71667","","268","","","75","72","","","2","72","training","adjacent","CD","3","4","L.jpg","Q.jpg","1","1","1","",""
"","feedback","","html-keyboard-response","474","578918","0.0-1.0-654.0-0.0","0","0","71667","","null","","","null","72","","","","","","","","","","","","","","","",""
"","ITI","","html-keyboard-response","475","579921","0.0-1.0-657.0","0","0","71667","","null","","","null","72","","","","","","","","","","","","","","","NaN",""
"","S1","","html-keyboard-response","476","580174","0.0-1.0-659.0","0","0","71667","","null","","","null","73","","","","","","","","","","","","","","","",""
"","ISI","","html-keyboard-response","477","581175","0.0-1.0-660.0","0","0","71667","","null","","","null","73","NaN","","","","","","","","","","","","","","",""
"","S2","","html-keyboard-response","478","581428","0.0-1.0-661.0","0","0","71667","","null","","","null","73","","NaN","","","","","","","","","","","","","",""
"","response","","html-keyboard-response","479","581692","0.0-1.0-662.0-0.0","0","0","71667","","262","","","75","73","","","2","73","training","adjacent","DC","4","3","Q.jpg","L.jpg","1","0","0","",""
"","feedback","","html-keyboard-response","480","582695","0.0-1.0-663.0-0.0","0","0","71667","","null","","","null","73","","","","","","","","","","","","","","","",""
"","time_out","","html-keyboard-response","481","584697","0.0-1.0-665.0-0.0","0","0","71667","","null","","","null","73","","","","","","","","","","","","","","","",""
"","ITI","","html-keyboard-response","482","585701","0.0-1.0-666.0","0","0","71667","","null","","","null","73","","","","","","","","","","","","","","","NaN",""
"","S1","","html-keyboard-response","483","585953","0.0-1.0-668.0","0","0","71667","","null","","","null","74","","","","","","","","","","","","","","","",""
"","ISI","","html-keyboard-response","484","586956","0.0-1.0-669.0","0","0","71667","","null","","","null","74","NaN","","","","","","","","","","","","","","",""
"","S2","","html-keyboard-response","485","587209","0.0-1.0-670.0","0","0","71667","","null","","","null","74","","NaN","","","","","","","","","","","","","",""
"","response","","html-keyboard-response","486","588132","0.0-1.0-671.0-0.0","0","0","71667","","920","","","75","74","","","2","74","training","adjacent","BA","2","1","O.jpg","M.jpg","1","0","0","",""
"","feedback","","html-keyboard-response","487","589136","0.0-1.0-672.0-0.0","0","0","71667","","null","","","null","74","","","","","","","","","","","","","","","",""
"","time_out","","html-keyboard-response","488","591138","0.0-1.0-674.0-0.0","0","0","71667","","null","","","null","74","","","","","","","","","","","","","","","",""
"","ITI","","html-keyboard-response","489","592140","0.0-1.0-675.0","0","0","71667","","null","","","null","74","","","","","","","","","","","","","","","NaN",""
"","S1","","html-keyboard-response","490","592393","0.0-1.0-677.0","0","0","71667","","null","","","null","75","","","","","","","","","","","","","","","",""
"","ISI","","html-keyboard-response","491","593395","0.0-1.0-678.0","0","0","71667","","null","","","null","75","NaN","","","","","","","","","","","","","","",""
"","S2","","html-keyboard-response","492","593647","0.0-1.0-679.0","0","0","71667","","null","","","null","75","","NaN","","","","","","","","","","","","","",""
"","response","","html-keyboard-response","493","593850","0.0-1.0-680.0-0.0","0","0","71667","","202","","","68","75","","","2","75","training","adjacent","FG","6","7","R.jpg","N.jpg","0","1","0","",""
"","feedback","","html-keyboard-response","494","594853","0.0-1.0-681.0-0.0","0","0","71667","","null","","","null","75","","","","","","","","","","","","","","","",""
"","time_out","","html-keyboard-response","495","596855","0.0-1.0-683.0-0.0","0","0","71667","","null","","","null","75","","","","","","","","","","","","","","","",""
"","ITI","","html-keyboard-response","496","597858","0.0-1.0-684.0","0","0","71667","","856","","","68","75","","","","","","","","","","","","","","","d",""
"","S1","","html-keyboard-response","497","598110","0.0-1.0-686.0","0","0","71667","","null","","","null","76","","","","","","","","","","","","","","","",""
"","ISI","","html-keyboard-response","498","599112","0.0-1.0-687.0","0","0","71667","","null","","","null","76","NaN","","","","","","","","","","","","","","",""
"","S2","","html-keyboard-response","499","599365","0.0-1.0-688.0","0","0","71667","","null","","","null","76","","NaN","","","","","","","","","","","","","",""
"","response","","html-keyboard-response","500","600416","0.0-1.0-689.0-0.0","0","0","71667","","1049","","","68","76","","","2","76","training","adjacent","FG","6","7","R.jpg","N.jpg","0","1","0","",""
"","feedback","","html-keyboard-response","501","601419","0.0-1.0-690.0-0.0","0","0","71667","","null","","","null","76","","","","","","","","","","","","","","","",""
"","time_out","","html-keyboard-response","502","603421","0.0-1.0-692.0-0.0","0","0","71667","","null","","","null","76","","","","","","","","","","","","","","","",""
"","ITI","","html-keyboard-response","503","604423","0.0-1.0-693.0","0","0","71667","","null","","","null","76","","","","","","","","","","","","","","","NaN",""
"","S1","","html-keyboard-response","504","604676","0.0-1.0-695.0","0","0","71667","","null","","","null","77","","","","","","","","","","","","","","","",""
"","ISI","","html-keyboard-response","505","605678","0.0-1.0-696.0","0","0","71667","","null","","","null","77","NaN","","","","","","","","","","","","","","",""
"","S2","","html-keyboard-response","506","605930","0.0-1.0-697.0","0","0","71667","","null","","","null","77","","NaN","","","","","","","","","","","","","",""
"","response","","html-keyboard-response","507","606497","0.0-1.0-698.0-0.0","0","0","71667","","565","","","75","77","","","2","77","training","adjacent","EF","5","6","P.jpg","R.jpg","1","1","1","",""
"","feedback","","html-keyboard-response","508","607500","0.0-1.0-699.0-0.0","0","0","71667","","null","","","null","77","","","","","","","","","","","","","","","",""
"","ITI","","html-keyboard-response","509","608502","0.0-1.0-702.0","0","0","71667","","null","","","null","77","","","","","","","","","","","","","","","NaN",""
"","S1","","html-keyboard-response","510","608754","0.0-1.0-704.0","0","0","71667","","null","","","null","78","","","","","","","","","","","","","","","",""
"","ISI","","html-keyboard-response","511","609756","0.0-1.0-705.0","0","0","71667","","null","","","null","78","NaN","","","","","","","","","","","","","","",""
"","S2","","html-keyboard-response","512","610009","0.0-1.0-706.0","0","0","71667","","null","","","null","78","","NaN","","","","","","","","","","","","","",""
"","response","","html-keyboard-response","513","611208","0.0-1.0-707.0-0.0","0","0","71667","","1197","","","68","78","","","2","78","training","adjacent","DC","4","3","Q.jpg","L.jpg","0","0","1","",""
"","feedback","","html-keyboard-response","514","612211","0.0-1.0-708.0-0.0","0","0","71667","","null","","","null","78","","","","","","","","","","","","","","","",""
"","ITI","","html-keyboard-response","515","613213","0.0-1.0-711.0","0","0","71667","","null","","","null","78","","","","","","","","","","","","","","","NaN",""
"","S1","","html-keyboard-response","516","613466","0.0-1.0-713.0","0","0","71667","","null","","","null","79","","","","","","","","","","","","","","","",""
"","ISI","","html-keyboard-response","517","614467","0.0-1.0-714.0","0","0","71667","","null","","","null","79","NaN","","","","","","","","","","","","","","",""
"","S2","","html-keyboard-response","518","614720","0.0-1.0-715.0","0","0","71667","","null","","","null","79","","NaN","","","","","","","","","","","","","",""
"","response","","html-keyboard-response","519","616472","0.0-1.0-716.0-0.0","0","0","71667","","null","","","null","79","","","2","79","training","adjacent","DC","4","3","Q.jpg","L.jpg","NaN","0","0","",""
"","too_slow_prompt","","html-keyboard-response","520","617475","0.0-1.0-718.0-0.0","1","0","71667","","null","","","null","","","","","","","","","","","","","","","","",""
"","time_out","","html-keyboard-response","521","619477","0.0-1.0-719.0-0.0","0","0","71667","","null","","","null","79","","","","","","","","","","","","","","","",""
"","ITI","","html-keyboard-response","522","620479","0.0-1.0-720.0","0","0","71667","","null","","","null","79","","","","","","","","","","","","","","","NaN",""
"","S1","","html-keyboard-response","523","620731","0.0-1.0-722.0","0","0","71667","","null","","","null","80","","","","","","","","","","","","","","","",""
"","ISI","","html-keyboard-response","524","621733","0.0-1.0-723.0","0","0","71667","","null","","","null","80","NaN","","","","","","","","","","","","","","",""
"","S2","","html-keyboard-response","525","621986","0.0-1.0-724.0","0","0","71667","","null","","","null","80","","NaN","","","","","","","","","","","","","",""
"","response","","html-keyboard-response","526","622266","0.0-1.0-725.0-0.0","0","0","71667","","278","","","75","80","","","2","80","training","adjacent","EF","5","6","P.jpg","R.jpg","1","1","1","",""
"","feedback","","html-keyboard-response","527","623268","0.0-1.0-726.0-0.0","0","0","71667","","null","","","null","80","","","","","","","","","","","","","","","",""
"","ITI","","html-keyboard-response","528","624270","0.0-1.0-729.0","0","0","71667","","null","","","null","80","","","","","","","","","","","","","","","NaN",""
"","S1","","html-keyboard-response","529","624522","0.0-1.0-731.0","0","0","71667","","null","","","null","81","","","","","","","","","","","","","","","",""
"","ISI","","html-keyboard-response","530","625524","0.0-1.0-732.0","0","0","71667","","null","","","null","81","NaN","","","","","","","","","","","","","","",""
"","S2","","html-keyboard-response","531","625777","0.0-1.0-733.0","0","0","71667","","null","","","null","81","","NaN","","","","","","","","","","","","","",""
"","response","","html-keyboard-response","532","627529","0.0-1.0-734.0-0.0","0","0","71667","","null","","","null","81","","","2","81","training","adjacent","AB","1","2","M.jpg","O.jpg","NaN","1","0","",""
"","too_slow_prompt","","html-keyboard-response","533","628531","0.0-1.0-736.0-0.0","1","0","71667","","null","","","null","","","","","","","","","","","","","","","","",""
"","time_out","","html-keyboard-response","534","630535","0.0-1.0-737.0-0.0","0","0","71667","","null","","","null","81","","","","","","","","","","","","","","","",""
"","ITI","","html-keyboard-response","535","631537","0.0-1.0-738.0","0","0","71667","","null","","","null","81","","","","","","","","","","","","","","","NaN",""
"","S1","","html-keyboard-response","536","631790","0.0-1.0-740.0","0","0","71667","","null","","","null","82","","","","","","","","","","","","","","","",""
"","ISI","","html-keyboard-response","537","632793","0.0-1.0-741.0","0","0","71667","","null","","","null","82","NaN","","","","","","","","","","","","","","",""
"","S2","","html-keyboard-response","538","633045","0.0-1.0-742.0","0","0","71667","","null","","","null","82","","NaN","","","","","","","","","","","","","",""
"","response","","html-keyboard-response","539","633776","0.0-1.0-743.0-0.0","0","0","71667","","729","","","68","82","","","2","82","training","adjacent","CD","3","4","L.jpg","Q.jpg","0","1","0","",""
"","feedback","","html-keyboard-response","540","634780","0.0-1.0-744.0-0.0","0","0","71667","","null","","","null","82","","","","","","","","","","","","","","","",""
"","time_out","","html-keyboard-response","541","636782","0.0-1.0-746.0-0.0","0","0","71667","","null","","","null","82","","","","","","","","","","","","","","","",""
"","ITI","","html-keyboard-response","542","637786","0.0-1.0-747.0","0","0","71667","","null","","","null","82","","","","","","","","","","","","","","","NaN",""
"","S1","","html-keyboard-response","543","638038","0.0-1.0-749.0","0","0","71667","","null","","","null","83","","","","","","","","","","","","","","","",""
"","ISI","","html-keyboard-response","544","639040","0.0-1.0-750.0","0","0","71667","","null","","","null","83","NaN","","","","","","","","","","","","","","",""
"","S2","","html-keyboard-response","545","639292","0.0-1.0-751.0","0","0","71667","","null","","","null","83","","NaN","","","","","","","","","","","","","",""
"","response","","html-keyboard-response","546","639807","0.0-1.0-752.0-0.0","0","0","71667","","513","","","75","83","","","2","83","training","adjacent","GF","7","6","N.jpg","R.jpg","1","0","0","",""
"","feedback","","html-keyboard-response","547","640809","0.0-1.0-753.0-0.0","0","0","71667","","null","","","null","83","","","","","","","","","","","","","","","",""
"","time_out","","html-keyboard-response","548","642811","0.0-1.0-755.0-0.0","0","0","71667","","null","","","null","83","","","","","","","","","","","","","","","",""
"","ITI","","html-keyboard-response","549","643814","0.0-1.0-756.0","0","0","71667","","642","","","68","83","","","","","","","","","","","","","","","d",""
"","S1","","html-keyboard-response","550","644066","0.0-1.0-758.0","0","0","71667","","null","","","null","84","","","","","","","","","","","","","","","",""
"","ISI","","html-keyboard-response","551","645069","0.0-1.0-759.0","0","0","71667","","null","","","null","84","NaN","","","","","","","","","","","","","","",""
"","S2","","html-keyboard-response","552","645228","0.0-1.0-760.0","0","0","71667","","157","","","75","84","","k","2","84","training","adjacent","BA","2","1","O.jpg","M.jpg","1","0","0","",""
"","feedback","","html-keyboard-response","553","646231","0.0-1.0-762.0-0.0","0","0","71667","","null","","","null","84","","","","","","","","","","","","","","","",""
"","time_out","","html-keyboard-response","554","648232","0.0-1.0-764.0-0.0","0","0","71667","","null","","","null","84","","","","","","","","","","","","","","","",""
"","ITI","","html-keyboard-response","555","649234","0.0-1.0-765.0","0","0","71667","","null","","","null","84","","","","","","","","","","","","","","","NaN",""
"","S1","","html-keyboard-response","556","649486","0.0-1.0-767.0","0","0","71667","","null","","","null","85","","","","","","","","","","","","","","","",""
"","ISI","","html-keyboard-response","557","650488","0.0-1.0-768.0","0","0","71667","","null","","","null","85","NaN","","","","","","","","","","","","","","",""
"","S2","","html-keyboard-response","558","650741","0.0-1.0-769.0","0","0","71667","","null","","","null","85","","NaN","","","","","","","","","","","","","",""
"","response","","html-keyboard-response","559","651275","0.0-1.0-770.0-0.0","0","0","71667","","532","","","75","85","","","2","85","training","adjacent","CB","3","2","L.jpg","O.jpg","1","0","0","",""
"","feedback","","html-keyboard-response","560","652277","0.0-1.0-771.0-0.0","0","0","71667","","null","","","null","85","","","","","","","","","","","","","","","",""
"","time_out","","html-keyboard-response","561","654279","0.0-1.0-773.0-0.0","0","0","71667","","null","","","null","85","","","","","","","","","","","","","","","",""
"","ITI","","html-keyboard-response","562","655281","0.0-1.0-774.0","0","0","71667","","null","","","null","85","","","","","","","","","","","","","","","NaN",""
"","S1","","html-keyboard-response","563","655534","0.0-1.0-776.0","0","0","71667","","null","","","null","86","","","","","","","","","","","","","","","",""
"","ISI","","html-keyboard-response","564","656535","0.0-1.0-777.0","0","0","71667","","null","","","null","86","NaN","","","","","","","","","","","","","","",""
"","S2","","html-keyboard-response","565","656612","0.0-1.0-778.0","0","0","71667","","75","","","68","86","","d","2","86","training","adjacent","AB","1","2","M.jpg","O.jpg","0","1","0","",""
"","feedback","","html-keyboard-response","566","657615","0.0-1.0-780.0-0.0","0","0","71667","","null","","","null","86","","","","","","","","","","","","","","","",""
"","time_out","","html-keyboard-response","567","659617","0.0-1.0-782.0-0.0","0","0","71667","","null","","","null","86","","","","","","","","","","","","","","","",""
"","ITI","","html-keyboard-response","568","660619","0.0-1.0-783.0","0","0","71667","","355","","","75","86","","","","","","","","","","","","","","","k",""
"","S1","","html-keyboard-response","569","660872","0.0-1.0-785.0","0","0","71667","","null","","","null","87","","","","","","","","","","","","","","","",""
"","ISI","","html-keyboard-response","570","661876","0.0-1.0-786.0","0","0","71667","","154","","","75","87","k","","","","","","","","","","","","","","",""
"","S2","","html-keyboard-response","571","662129","0.0-1.0-787.0","0","0","71667","","null","","","null","87","","NaN","","","","","","","","","","","","","",""
"","response","","html-keyboard-response","572","662299","0.0-1.0-788.0-0.0","0","0","71667","","169","","","68","87","","","2","87","training","adjacent","CB","3","2","L.jpg","O.jpg","0","0","1","",""
"","feedback","","html-keyboard-response","573","663303","0.0-1.0-789.0-0.0","0","0","71667","","null","","","null","87","","","","","","","","","","","","","","","",""
"","ITI","","html-keyboard-response","574","664305","0.0-1.0-792.0","0","0","71667","","null","","","null","87","","","","","","","","","","","","","","","NaN",""
"","S1","","html-keyboard-response","575","664558","0.0-1.0-794.0","0","0","71667","","null","","","null","88","","","","","","","","","","","","","","","",""
"","ISI","","html-keyboard-response","576","665560","0.0-1.0-795.0","0","0","71667","","null","","","null","88","NaN","","","","","","","","","","","","","","",""
"","S2","","html-keyboard-response","577","665814","0.0-1.0-796.0","0","0","71667","","null","","","null","88","","NaN","","","","","","","","","","","","","",""
"","response","","html-keyboard-response","578","666549","0.0-1.0-797.0-0.0","0","0","71667","","734","","","75","88","","","2","88","training","adjacent","BA","2","1","O.jpg","M.jpg","1","0","0","",""
"","feedback","","html-keyboard-response","579","667552","0.0-1.0-798.0-0.0","0","0","71667","","null","","","null","88","","","","","","","","","","","","","","","",""
"","time_out","","html-keyboard-response","580","669554","0.0-1.0-800.0-0.0","0","0","71667","","null","","","null","88","","","","","","","","","","","","","","","",""
