"success","ttype","start_time","trial_type","trial_index","time_elapsed","internal_node_id","warning","missed_checkup","PID","view_history","rt","responses","repeat_instructions","key_press","index","keypress_isi","keypress_S2","block","trial_num","phase","group_type","pair_type","S1_stim","S2_stim","S1_img","S2_img","S1_chosen","S1_higher","accuracy","keypress_iti","total_bonus_tally"
"true","full_screen","d04062023hr1740","fullscreen","0","4653","0.0-0.0","0","0","96855","","","","","","","","","","","","","","","","","","","","","",""
"","instructions","","instructions","1","835724","0.0-1.0-0.0-0.0","0","0","96855","[{""page_index"":0,""viewing_time"":2276},{""page_index"":1,""viewing_time"":826443},{""page_index"":2,""viewing_time"":1296},{""page_index"":3,""viewing_time"":1054}]","831069","","","","","","","","","","","","","","","","","","","",""
"","comprehension_check","","survey-multi-choice","2","853318","0.0-1.0-0.0-1.0","0","0","96855","","17591","{""Q0"":""True"",""Q1"":""D"",""Q2"":""Only when the screen 'MAKE A CHOICE' is shown"",""Q3"":""Green mark"",""Q4"":""either D or K""}","1","","","","","","","","","","","","","","","","","",""
"","missed_instruction_checkup","","html-keyboard-response","3","855247","0.0-1.0-0.0-2.0-0.0","0","1","96855","","1928","","","32","","","","","","","","","","","","","","","","",""
"","instructions","","instructions","4","864741","0.0-1.0-0.1-0.1","0","0","96855","[{""page_index"":0,""viewing_time"":2472},{""page_index"":1,""viewing_time"":2284},{""page_index"":2,""viewing_time"":3531},{""page_index"":3,""viewing_time"":1205}]","9493","","","","","","","","","","","","","","","","","","","",""
"","comprehension_check","","survey-multi-choice","5","872502","0.0-1.0-0.1-1.1","0","0","96855","","7758","{""Q0"":""True"",""Q1"":""K"",""Q2"":""Only when the screen 'MAKE A CHOICE' is shown"",""Q3"":""Green mark"",""Q4"":""either D or K""}","1","","","","","","","","","","","","","","","","","",""
"","missed_instruction_checkup","","html-keyboard-response","6","873547","0.0-1.0-0.1-2.1-0.1","0","1","96855","","1044","","","32","","","","","","","","","","","","","","","","",""
"","instructions","","instructions","7","882984","0.0-1.0-0.2-0.2","0","0","96855","[{""page_index"":0,""viewing_time"":1499},{""page_index"":1,""viewing_time"":6674},{""page_index"":2,""viewing_time"":496},{""page_index"":3,""viewing_time"":766}]","9435","","","","","","","","","","","","","","","","","","","",""
"","comprehension_check","","survey-multi-choice","8","891556","0.0-1.0-0.2-1.2","0","0","96855","","8570","{""Q0"":""True"",""Q1"":""K"",""Q2"":""Once the second image appears and while the screen 'MAKE A CHOICE' is shown"",""Q3"":""Green mark"",""Q4"":""either D or K""}","0","","","","","","","","","","","","","","","","","",""
"","start_exp","","html-keyboard-response","9","892174","0.0-1.0-1.0","0","0","96855","","616","","","32","","","","","","","","","","","","","","","","",""
"","S1","","html-keyboard-response","10","892328","0.0-1.0-2.0","0","0","96855","","null","","","null","0","","","","","","","","","","","","","","","",""
"","ISI","","html-keyboard-response","11","894331","0.0-1.0-3.0","0","0","96855","","null","","","null","0","NaN","","","","","","","","","","","","","","",""
"","S2","","html-keyboard-response","12","894483","0.0-1.0-4.0","0","0","96855","","null","","","null","0","","NaN","","","","","","","","","","","","","",""
"","response","","html-keyboard-response","13","895104","0.0-1.0-5.0-0.0","0","0","96855","","619","","","68","0","","","1","0","training","adjacent","CD","3","4","L.jpg","Q.jpg","0","1","0","",""
"","feedback","","html-keyboard-response","14","896107","0.0-1.0-6.0-0.0","0","0","96855","","null","","","null","0","","","","","","","","","","","","","","","",""
"","time_out","","html-keyboard-response","15","898108","0.0-1.0-8.0-0.0","0","0","96855","","null","","","null","0","","","","","","","","","","","","","","","",""
"","ITI","","html-keyboard-response","16","899110","0.0-1.0-9.0","0","0","96855","","null","","","null","0","","","","","","","","","","","","","","","NaN",""
"","S1","","html-keyboard-response","17","899262","0.0-1.0-11.0","0","0","96855","","null","","","null","1","","","","","","","","","","","","","","","",""
"","ISI","","html-keyboard-response","18","901264","0.0-1.0-12.0","0","0","96855","","null","","","null","1","NaN","","","","","","","","","","","","","","",""
"","S2","","html-keyboard-response","19","901416","0.0-1.0-13.0","0","0","96855","","null","","","null","1","","NaN","","","","","","","","","","","","","",""
"","response","","html-keyboard-response","20","901659","0.0-1.0-14.0-0.0","0","0","96855","","241","","","68","1","","","1","1","training","adjacent","ED","5","4","N.jpg","Q.jpg","0","0","1","",""
"","feedback","","html-keyboard-response","21","902661","0.0-1.0-15.0-0.0","0","0","96855","","null","","","null","1","","","","","","","","","","","","","","","",""
"","ITI","","html-keyboard-response","22","903663","0.0-1.0-18.0","0","0","96855","","null","","","null","1","","","","","","","","","","","","","","","NaN",""
"","S1","","html-keyboard-response","23","903814","0.0-1.0-20.0","0","0","96855","","null","","","null","2","","","","","","","","","","","","","","","",""
"","ISI","","html-keyboard-response","24","905817","0.0-1.0-21.0","0","0","96855","","null","","","null","2","NaN","","","","","","","","","","","","","","",""
"","S2","","html-keyboard-response","25","905969","0.0-1.0-22.0","0","0","96855","","null","","","null","2","","NaN","","","","","","","","","","","","","",""
"","response","","html-keyboard-response","26","906235","0.0-1.0-23.0-0.0","0","0","96855","","265","","","68","2","","","1","2","training","adjacent","ED","5","4","N.jpg","Q.jpg","0","0","1","",""
"","feedback","","html-keyboard-response","27","907244","0.0-1.0-24.0-0.0","0","0","96855","","null","","","null","2","","","","","","","","","","","","","","","",""
"","ITI","","html-keyboard-response","28","908246","0.0-1.0-27.0","0","0","96855","","null","","","null","2","","","","","","","","","","","","","","","NaN",""
"","S1","","html-keyboard-response","29","908398","0.0-1.0-29.0","0","0","96855","","null","","","null","3","","","","","","","","","","","","","","","",""
"","ISI","","html-keyboard-response","30","910400","0.0-1.0-30.0","0","0","96855","","null","","","null","3","NaN","","","","","","","","","","","","","","",""
"","S2","","html-keyboard-response","31","910552","0.0-1.0-31.0","0","0","96855","","null","","","null","3","","NaN","","","","","","","","","","","","","",""
"","response","","html-keyboard-response","32","910907","0.0-1.0-32.0-0.0","0","0","96855","","355","","","75","3","","","1","3","training","adjacent","BA","2","1","R.jpg","O.jpg","1","0","0","",""
"","feedback","","html-keyboard-response","33","911910","0.0-1.0-33.0-0.0","0","0","96855","","null","","","null","3","","","","","","","","","","","","","","","",""
"","time_out","","html-keyboard-response","34","913912","0.0-1.0-35.0-0.0","0","0","96855","","null","","","null","3","","","","","","","","","","","","","","","",""
"","ITI","","html-keyboard-response","35","914914","0.0-1.0-36.0","0","0","96855","","null","","","null","3","","","","","","","","","","","","","","","NaN",""
"","S1","","html-keyboard-response","36","915067","0.0-1.0-38.0","0","0","96855","","null","","","null","4","","","","","","","","","","","","","","","",""
"","ISI","","html-keyboard-response","37","917068","0.0-1.0-39.0","0","0","96855","","null","","","null","4","NaN","","","","","","","","","","","","","","",""
"","S2","","html-keyboard-response","38","917220","0.0-1.0-40.0","0","0","96855","","null","","","null","4","","NaN","","","","","","","","","","","","","",""
"","response","","html-keyboard-response","39","917450","0.0-1.0-41.0-0.0","0","0","96855","","229","","","68","4","","","1","4","training","adjacent","AB","1","2","O.jpg","R.jpg","0","1","0","",""
"","feedback","","html-keyboard-response","40","918452","0.0-1.0-42.0-0.0","0","0","96855","","null","","","null","4","","","","","","","","","","","","","","","",""
"","time_out","","html-keyboard-response","41","920454","0.0-1.0-44.0-0.0","0","0","96855","","null","","","null","4","","","","","","","","","","","","","","","",""
"","ITI","","html-keyboard-response","42","921456","0.0-1.0-45.0","0","0","96855","","null","","","null","4","","","","","","","","","","","","","","","NaN",""
"","S1","","html-keyboard-response","43","921608","0.0-1.0-47.0","0","0","96855","","null","","","null","5","","","","","","","","","","","","","","","",""
"","ISI","","html-keyboard-response","44","923610","0.0-1.0-48.0","0","0","96855","","null","","","null","5","NaN","","","","","","","","","","","","","","",""
"","S2","","html-keyboard-response","45","923762","0.0-1.0-49.0","0","0","96855","","null","","","null","5","","NaN","","","","","","","","","","","","","",""
"","response","","html-keyboard-response","46","924331","0.0-1.0-50.0-0.0","0","0","96855","","569","","","68","5","","","1","5","training","adjacent","FE","6","5","P.jpg","N.jpg","0","0","1","",""
"","feedback","","html-keyboard-response","47","925334","0.0-1.0-51.0-0.0","0","0","96855","","null","","","null","5","","","","","","","","","","","","","","","",""
"","ITI","","html-keyboard-response","48","926336","0.0-1.0-54.0","0","0","96855","","null","","","null","5","","","","","","","","","","","","","","","NaN",""
"","S1","","html-keyboard-response","49","926488","0.0-1.0-56.0","0","0","96855","","null","","","null","6","","","","","","","","","","","","","","","",""
"","ISI","","html-keyboard-response","50","928490","0.0-1.0-57.0","0","0","96855","","null","","","null","6","NaN","","","","","","","","","","","","","","",""
"","S2","","html-keyboard-response","51","928642","0.0-1.0-58.0","0","0","96855","","null","","","null","6","","NaN","","","","","","","","","","","","","",""
"","response","","html-keyboard-response","52","929162","0.0-1.0-59.0-0.0","0","0","96855","","520","","","75","6","","","1","6","training","adjacent","DC","4","3","Q.jpg","L.jpg","1","0","0","",""
"","feedback","","html-keyboard-response","53","930165","0.0-1.0-60.0-0.0","0","0","96855","","null","","","null","6","","","","","","","","","","","","","","","",""
"","time_out","","html-keyboard-response","54","932167","0.0-1.0-62.0-0.0","0","0","96855","","null","","","null","6","","","","","","","","","","","","","","","",""
"","ITI","","html-keyboard-response","55","933178","0.0-1.0-63.0","0","0","96855","","null","","","null","6","","","","","","","","","","","","","","","NaN",""
"","S1","","html-keyboard-response","56","933330","0.0-1.0-65.0","0","0","96855","","null","","","null","7","","","","","","","","","","","","","","","",""
"","ISI","","html-keyboard-response","57","935335","0.0-1.0-66.0","0","0","96855","","null","","","null","7","NaN","","","","","","","","","","","","","","",""
"","S2","","html-keyboard-response","58","935488","0.0-1.0-67.0","0","0","96855","","null","","","null","7","","NaN","","","","","","","","","","","","","",""
"","response","","html-keyboard-response","59","935791","0.0-1.0-68.0-0.0","0","0","96855","","302","","","68","7","","","1","7","training","adjacent","FE","6","5","P.jpg","N.jpg","0","0","1","",""
"","feedback","","html-keyboard-response","60","936794","0.0-1.0-69.0-0.0","0","0","96855","","null","","","null","7","","","","","","","","","","","","","","","",""
"","ITI","","html-keyboard-response","61","937804","0.0-1.0-72.0","0","0","96855","","null","","","null","7","","","","","","","","","","","","","","","NaN",""
"","S1","","html-keyboard-response","62","937956","0.0-1.0-74.0","0","0","96855","","null","","","null","8","","","","","","","","","","","","","","","",""
"","ISI","","html-keyboard-response","63","939957","0.0-1.0-75.0","0","0","96855","","null","","","null","8","NaN","","","","","","","","","","","","","","",""
"","S2","","html-keyboard-response","64","940110","0.0-1.0-76.0","0","0","96855","","null","","","null","8","","NaN","","","","","","","","","","","","","",""
"","response","","html-keyboard-response","65","940403","0.0-1.0-77.0-0.0","0","0","96855","","292","","","68","8","","","1","8","training","adjacent","FG","6","7","P.jpg","M.jpg","0","1","0","",""
"","feedback","","html-keyboard-response","66","941406","0.0-1.0-78.0-0.0","0","0","96855","","null","","","null","8","","","","","","","","","","","","","","","",""
"","time_out","","html-keyboard-response","67","943408","0.0-1.0-80.0-0.0","0","0","96855","","null","","","null","8","","","","","","","","","","","","","","","",""
"","ITI","","html-keyboard-response","68","944410","0.0-1.0-81.0","0","0","96855","","null","","","null","8","","","","","","","","","","","","","","","NaN",""
"","S1","","html-keyboard-response","69","944561","0.0-1.0-83.0","0","0","96855","","null","","","null","9","","","","","","","","","","","","","","","",""
"","ISI","","html-keyboard-response","70","946563","0.0-1.0-84.0","0","0","96855","","null","","","null","9","NaN","","","","","","","","","","","","","","",""
"","S2","","html-keyboard-response","71","946715","0.0-1.0-85.0","0","0","96855","","null","","","null","9","","NaN","","","","","","","","","","","","","",""
"","response","","html-keyboard-response","72","946879","0.0-1.0-86.0-0.0","0","0","96855","","163","","","68","9","","","1","9","training","adjacent","BA","2","1","R.jpg","O.jpg","0","0","1","",""
"","feedback","","html-keyboard-response","73","947881","0.0-1.0-87.0-0.0","0","0","96855","","null","","","null","9","","","","","","","","","","","","","","","",""
"","ITI","","html-keyboard-response","74","948882","0.0-1.0-90.0","0","0","96855","","null","","","null","9","","","","","","","","","","","","","","","NaN",""
"","S1","","html-keyboard-response","75","949034","0.0-1.0-92.0","0","0","96855","","null","","","null","10","","","","","","","","","","","","","","","",""
"","ISI","","html-keyboard-response","76","951036","0.0-1.0-93.0","0","0","96855","","null","","","null","10","NaN","","","","","","","","","","","","","","",""
"","S2","","html-keyboard-response","77","951188","0.0-1.0-94.0","0","0","96855","","null","","","null","10","","NaN","","","","","","","","","","","","","",""
"","response","","html-keyboard-response","78","951564","0.0-1.0-95.0-0.0","0","0","96855","","374","","","68","10","","","1","10","training","adjacent","EF","5","6","N.jpg","P.jpg","0","1","0","",""
"","feedback","","html-keyboard-response","79","952567","0.0-1.0-96.0-0.0","0","0","96855","","null","","","null","10","","","","","","","","","","","","","","","",""
"","time_out","","html-keyboard-response","80","954568","0.0-1.0-98.0-0.0","0","0","96855","","null","","","null","10","","","","","","","","","","","","","","","",""
"","ITI","","html-keyboard-response","81","955577","0.0-1.0-99.0","0","0","96855","","null","","","null","10","","","","","","","","","","","","","","","NaN",""
"","S1","","html-keyboard-response","82","955729","0.0-1.0-101.0","0","0","96855","","null","","","null","11","","","","","","","","","","","","","","","",""
"","ISI","","html-keyboard-response","83","957731","0.0-1.0-102.0","0","0","96855","","653","","","68","11","d","","","","","","","","","","","","","","",""
"","S2","","html-keyboard-response","84","957883","0.0-1.0-103.0","0","0","96855","","null","","","null","11","","NaN","","","","","","","","","","","","","",""
"","response","","html-keyboard-response","85","958005","0.0-1.0-104.0-0.0","0","0","96855","","121","","","75","11","","","1","11","training","adjacent","DE","4","5","Q.jpg","N.jpg","1","1","1","",""
"","feedback","","html-keyboard-response","86","959007","0.0-1.0-105.0-0.0","0","0","96855","","null","","","null","11","","","","","","","","","","","","","","","",""
"","ITI","","html-keyboard-response","87","960009","0.0-1.0-108.0","0","0","96855","","null","","","null","11","","","","","","","","","","","","","","","NaN",""
"","S1","","html-keyboard-response","88","960162","0.0-1.0-110.0","0","0","96855","","null","","","null","12","","","","","","","","","","","","","","","",""
"","ISI","","html-keyboard-response","89","962164","0.0-1.0-111.0","0","0","96855","","null","","","null","12","NaN","","","","","","","","","","","","","","",""
"","S2","","html-keyboard-response","90","962316","0.0-1.0-112.0","0","0","96855","","null","","","null","12","","NaN","","","","","","","","","","","","","",""
"","response","","html-keyboard-response","91","962420","0.0-1.0-113.0-0.0","0","0","96855","","103","","","68","12","","","1","12","training","adjacent","AB","1","2","O.jpg","R.jpg","0","1","0","",""
"","feedback","","html-keyboard-response","92","963422","0.0-1.0-114.0-0.0","0","0","96855","","null","","","null","12","","","","","","","","","","","","","","","",""
"","time_out","","html-keyboard-response","93","965424","0.0-1.0-116.0-0.0","0","0","96855","","null","","","null","12","","","","","","","","","","","","","","","",""
"","ITI","","html-keyboard-response","94","966426","0.0-1.0-117.0","0","0","96855","","null","","","null","12","","","","","","","","","","","","","","","NaN",""
"","S1","","html-keyboard-response","95","966578","0.0-1.0-119.0","0","0","96855","","null","","","null","13","","","","","","","","","","","","","","","",""
"","ISI","","html-keyboard-response","96","968580","0.0-1.0-120.0","0","0","96855","","null","","","null","13","NaN","","","","","","","","","","","","","","",""
"","S2","","html-keyboard-response","97","968731","0.0-1.0-121.0","0","0","96855","","null","","","null","13","","NaN","","","","","","","","","","","","","",""
"","response","","html-keyboard-response","98","968900","0.0-1.0-122.0-0.0","0","0","96855","","168","","","68","13","","","1","13","training","adjacent","BA","2","1","R.jpg","O.jpg","0","0","1","",""
"","feedback","","html-keyboard-response","99","969902","0.0-1.0-123.0-0.0","0","0","96855","","null","","","null","13","","","","","","","","","","","","","","","",""
"","ITI","","html-keyboard-response","100","970905","0.0-1.0-126.0","0","0","96855","","null","","","null","13","","","","","","","","","","","","","","","NaN",""
"","S1","","html-keyboard-response","101","971058","0.0-1.0-128.0","0","0","96855","","null","","","null","14","","","","","","","","","","","","","","","",""
"","ISI","","html-keyboard-response","102","973060","0.0-1.0-129.0","0","0","96855","","null","","","null","14","NaN","","","","","","","","","","","","","","",""
"","S2","","html-keyboard-response","103","973213","0.0-1.0-130.0","0","0","96855","","null","","","null","14","","NaN","","","","","","","","","","","","","",""
"","response","","html-keyboard-response","104","973415","0.0-1.0-131.0-0.0","0","0","96855","","201","","","68","14","","","1","14","training","adjacent","BA","2","1","R.jpg","O.jpg","0","0","1","",""
"","feedback","","html-keyboard-response","105","974417","0.0-1.0-132.0-0.0","0","0","96855","","null","","","null","14","","","","","","","","","","","","","","","",""
"","ITI","","html-keyboard-response","106","975419","0.0-1.0-135.0","0","0","96855","","null","","","null","14","","","","","","","","","","","","","","","NaN",""
"","S1","","html-keyboard-response","107","975572","0.0-1.0-137.0","0","0","96855","","null","","","null","15","","","","","","","","","","","","","","","",""
"","ISI","","html-keyboard-response","108","977576","0.0-1.0-138.0","0","0","96855","","null","","","null","15","NaN","","","","","","","","","","","","","","",""
"","S2","","html-keyboard-response","109","977730","0.0-1.0-139.0","0","0","96855","","null","","","null","15","","NaN","","","","","","","","","","","","","",""
"","response","","html-keyboard-response","110","978185","0.0-1.0-140.0-0.0","0","0","96855","","454","","","68","15","","","1","15","training","adjacent","AB","1","2","O.jpg","R.jpg","0","1","0","",""
"","feedback","","html-keyboard-response","111","979186","0.0-1.0-141.0-0.0","0","0","96855","","null","","","null","15","","","","","","","","","","","","","","","",""
"","time_out","","html-keyboard-response","112","981190","0.0-1.0-143.0-0.0","0","0","96855","","null","","","null","15","","","","","","","","","","","","","","","",""
"","ITI","","html-keyboard-response","113","982192","0.0-1.0-144.0","0","0","96855","","null","","","null","15","","","","","","","","","","","","","","","NaN",""
"","S1","","html-keyboard-response","114","982344","0.0-1.0-146.0","0","0","96855","","null","","","null","16","","","","","","","","","","","","","","","",""
"","ISI","","html-keyboard-response","115","984346","0.0-1.0-147.0","0","0","96855","","null","","","null","16","NaN","","","","","","","","","","","","","","",""
"","S2","","html-keyboard-response","116","984498","0.0-1.0-148.0","0","0","96855","","null","","","null","16","","NaN","","","","","","","","","","","","","",""
"","response","","html-keyboard-response","117","984894","0.0-1.0-149.0-0.0","0","0","96855","","395","","","75","16","","","1","16","training","adjacent","BC","2","3","R.jpg","L.jpg","1","1","1","",""
"","feedback","","html-keyboard-response","118","985909","0.0-1.0-150.0-0.0","0","0","96855","","null","","","null","16","","","","","","","","","","","","","","","",""
"","ITI","","html-keyboard-response","119","986912","0.0-1.0-153.0","0","0","96855","","null","","","null","16","","","","","","","","","","","","","","","NaN",""
"","S1","","html-keyboard-response","120","987064","0.0-1.0-155.0","0","0","96855","","null","","","null","17","","","","","","","","","","","","","","","",""
"","ISI","","html-keyboard-response","121","989065","0.0-1.0-156.0","0","0","96855","","null","","","null","17","NaN","","","","","","","","","","","","","","",""
"","S2","","html-keyboard-response","122","989217","0.0-1.0-157.0","0","0","96855","","null","","","null","17","","NaN","","","","","","","","","","","","","",""
"","response","","html-keyboard-response","123","989306","0.0-1.0-158.0-0.0","0","0","96855","","88","","","68","17","","","1","17","training","adjacent","BC","2","3","R.jpg","L.jpg","0","1","0","",""
"","feedback","","html-keyboard-response","124","990308","0.0-1.0-159.0-0.0","0","0","96855","","null","","","null","17","","","","","","","","","","","","","","","",""
"","time_out","","html-keyboard-response","125","992310","0.0-1.0-161.0-0.0","0","0","96855","","null","","","null","17","","","","","","","","","","","","","","","",""
"","ITI","","html-keyboard-response","126","993312","0.0-1.0-162.0","0","0","96855","","null","","","null","17","","","","","","","","","","","","","","","NaN",""
"","S1","","html-keyboard-response","127","993465","0.0-1.0-164.0","0","0","96855","","null","","","null","18","","","","","","","","","","","","","","","",""
"","ISI","","html-keyboard-response","128","995467","0.0-1.0-165.0","0","0","96855","","null","","","null","18","NaN","","","","","","","","","","","","","","",""
"","S2","","html-keyboard-response","129","995619","0.0-1.0-166.0","0","0","96855","","null","","","null","18","","NaN","","","","","","","","","","","","","",""
"","response","","html-keyboard-response","130","995783","0.0-1.0-167.0-0.0","0","0","96855","","163","","","68","18","","","1","18","training","adjacent","EF","5","6","N.jpg","P.jpg","0","1","0","",""
"","feedback","","html-keyboard-response","131","996786","0.0-1.0-168.0-0.0","0","0","96855","","null","","","null","18","","","","","","","","","","","","","","","",""
"","time_out","","html-keyboard-response","132","998789","0.0-1.0-170.0-0.0","0","0","96855","","null","","","null","18","","","","","","","","","","","","","","","",""
"","ITI","","html-keyboard-response","133","999791","0.0-1.0-171.0","0","0","96855","","null","","","null","18","","","","","","","","","","","","","","","NaN",""
"","S1","","html-keyboard-response","134","999943","0.0-1.0-173.0","0","0","96855","","null","","","null","19","","","","","","","","","","","","","","","",""
"","ISI","","html-keyboard-response","135","1001944","0.0-1.0-174.0","0","0","96855","","null","","","null","19","NaN","","","","","","","","","","","","","","",""
"","S2","","html-keyboard-response","136","1002097","0.0-1.0-175.0","0","0","96855","","null","","","null","19","","NaN","","","","","","","","","","","","","",""
"","response","","html-keyboard-response","137","1002694","0.0-1.0-176.0-0.0","0","0","96855","","596","","","75","19","","","1","19","training","adjacent","BC","2","3","R.jpg","L.jpg","1","1","1","",""
"","feedback","","html-keyboard-response","138","1003696","0.0-1.0-177.0-0.0","0","0","96855","","null","","","null","19","","","","","","","","","","","","","","","",""
"","ITI","","html-keyboard-response","139","1004698","0.0-1.0-180.0","0","0","96855","","null","","","null","19","","","","","","","","","","","","","","","NaN",""
"","S1","","html-keyboard-response","140","1004850","0.0-1.0-182.0","0","0","96855","","null","","","null","20","","","","","","","","","","","","","","","",""
"","ISI","","html-keyboard-response","141","1006852","0.0-1.0-183.0","0","0","96855","","null","","","null","20","NaN","","","","","","","","","","","","","","",""
"","S2","","html-keyboard-response","142","1007004","0.0-1.0-184.0","0","0","96855","","null","","","null","20","","NaN","","","","","","","","","","","","","",""
"","response","","html-keyboard-response","143","1007104","0.0-1.0-185.0-0.0","0","0","96855","","100","","","68","20","","","1","20","training","adjacent","CD","3","4","L.jpg","Q.jpg","0","1","0","",""
"","feedback","","html-keyboard-response","144","1008113","0.0-1.0-186.0-0.0","0","0","96855","","null","","","null","20","","","","","","","","","","","","","","","",""
"","time_out","","html-keyboard-response","145","1010115","0.0-1.0-188.0-0.0","0","0","96855","","null","","","null","20","","","","","","","","","","","","","","","",""
"","ITI","","html-keyboard-response","146","1011118","0.0-1.0-189.0","0","0","96855","","null","","","null","20","","","","","","","","","","","","","","","NaN",""
"","S1","","html-keyboard-response","147","1011269","0.0-1.0-191.0","0","0","96855","","null","","","null","21","","","","","","","","","","","","","","","",""
"","ISI","","html-keyboard-response","148","1013271","0.0-1.0-192.0","0","0","96855","","null","","","null","21","NaN","","","","","","","","","","","","","","",""
"","S2","","html-keyboard-response","149","1013423","0.0-1.0-193.0","0","0","96855","","null","","","null","21","","NaN","","","","","","","","","","","","","",""
"","response","","html-keyboard-response","150","1013490","0.0-1.0-194.0-0.0","0","0","96855","","66","","","75","21","","","1","21","training","adjacent","DE","4","5","Q.jpg","N.jpg","1","1","1","",""
"","feedback","","html-keyboard-response","151","1014492","0.0-1.0-195.0-0.0","0","0","96855","","null","","","null","21","","","","","","","","","","","","","","","",""
"","ITI","","html-keyboard-response","152","1015494","0.0-1.0-198.0","0","0","96855","","null","","","null","21","","","","","","","","","","","","","","","NaN",""
"","S1","","html-keyboard-response","153","1015646","0.0-1.0-200.0","0","0","96855","","null","","","null","22","","","","","","","","","","","","","","","",""
"","ISI","","html-keyboard-response","154","1017648","0.0-1.0-201.0","0","0","96855","","null","","","null","22","NaN","","","","","","","","","","","","","","",""
"","S2","","html-keyboard-response","155","1017801","0.0-1.0-202.0","0","0","96855","","null","","","null","22","","NaN","","","","","","","","","","","","","",""
"","response","","html-keyboard-response","156","1017883","0.0-1.0-203.0-0.0","0","0","96855","","81","","","75","22","","","1","22","training","adjacent","DC","4","3","Q.jpg","L.jpg","1","0","0","",""
"","feedback","","html-keyboard-response","157","1018885","0.0-1.0-204.0-0.0","0","0","96855","","null","","","null","22","","","","","","","","","","","","","","","",""
"","time_out","","html-keyboard-response","158","1020887","0.0-1.0-206.0-0.0","0","0","96855","","null","","","null","22","","","","","","","","","","","","","","","",""
"","ITI","","html-keyboard-response","159","1021888","0.0-1.0-207.0","0","0","96855","","null","","","null","22","","","","","","","","","","","","","","","NaN",""
"","S1","","html-keyboard-response","160","1022041","0.0-1.0-209.0","0","0","96855","","null","","","null","23","","","","","","","","","","","","","","","",""
"","ISI","","html-keyboard-response","161","1024042","0.0-1.0-210.0","0","0","96855","","null","","","null","23","NaN","","","","","","","","","","","","","","",""
"","S2","","html-keyboard-response","162","1024194","0.0-1.0-211.0","0","0","96855","","null","","","null","23","","NaN","","","","","","","","","","","","","",""
"","response","","html-keyboard-response","163","1024439","0.0-1.0-212.0-0.0","0","0","96855","","244","","","68","23","","","1","23","training","adjacent","FE","6","5","P.jpg","N.jpg","0","0","1","",""
"","feedback","","html-keyboard-response","164","1025441","0.0-1.0-213.0-0.0","0","0","96855","","null","","","null","23","","","","","","","","","","","","","","","",""
"","ITI","","html-keyboard-response","165","1026443","0.0-1.0-216.0","0","0","96855","","null","","","null","23","","","","","","","","","","","","","","","NaN",""
"","S1","","html-keyboard-response","166","1026595","0.0-1.0-218.0","0","0","96855","","null","","","null","24","","","","","","","","","","","","","","","",""
"","ISI","","html-keyboard-response","167","1028596","0.0-1.0-219.0","0","0","96855","","null","","","null","24","NaN","","","","","","","","","","","","","","",""
"","S2","","html-keyboard-response","168","1028748","0.0-1.0-220.0","0","0","96855","","null","","","null","24","","NaN","","","","","","","","","","","","","",""
"","response","","html-keyboard-response","169","1028841","0.0-1.0-221.0-0.0","0","0","96855","","92","","","68","24","","","1","24","training","adjacent","CB","3","2","L.jpg","R.jpg","0","0","1","",""
"","feedback","","html-keyboard-response","170","1029843","0.0-1.0-222.0-0.0","0","0","96855","","null","","","null","24","","","","","","","","","","","","","","","",""
"","ITI","","html-keyboard-response","171","1030845","0.0-1.0-225.0","0","0","96855","","null","","","null","24","","","","","","","","","","","","","","","NaN",""
"","S1","","html-keyboard-response","172","1030997","0.0-1.0-227.0","0","0","96855","","null","","","null","25","","","","","","","","","","","","","","","",""
"","ISI","","html-keyboard-response","173","1032998","0.0-1.0-228.0","0","0","96855","","null","","","null","25","NaN","","","","","","","","","","","","","","",""
"","S2","","html-keyboard-response","174","1033150","0.0-1.0-229.0","0","0","96855","","null","","","null","25","","NaN","","","","","","","","","","","","","",""
"","response","","html-keyboard-response","175","1033263","0.0-1.0-230.0-0.0","0","0","96855","","112","","","68","25","","","1","25","training","adjacent","CB","3","2","L.jpg","R.jpg","0","0","1","",""
"","feedback","","html-keyboard-response","176","1034265","0.0-1.0-231.0-0.0","0","0","96855","","null","","","null","25","","","","","","","","","","","","","","","",""
"","ITI","","html-keyboard-response","177","1035267","0.0-1.0-234.0","0","0","96855","","null","","","null","25","","","","","","","","","","","","","","","NaN",""
"","S1","","html-keyboard-response","178","1035418","0.0-1.0-236.0","0","0","96855","","null","","","null","26","","","","","","","","","","","","","","","",""
"","ISI","","html-keyboard-response","179","1037420","0.0-1.0-237.0","0","0","96855","","null","","","null","26","NaN","","","","","","","","","","","","","","",""
"","S2","","html-keyboard-response","180","1037573","0.0-1.0-238.0","0","0","96855","","null","","","null","26","","NaN","","","","","","","","","","","","","",""
"","response","","html-keyboard-response","181","1037654","0.0-1.0-239.0-0.0","0","0","96855","","80","","","75","26","","","1","26","training","adjacent","GF","7","6","M.jpg","P.jpg","1","0","0","",""
"","feedback","","html-keyboard-response","182","1038655","0.0-1.0-240.0-0.0","0","0","96855","","null","","","null","26","","","","","","","","","","","","","","","",""
"","time_out","","html-keyboard-response","183","1040657","0.0-1.0-242.0-0.0","0","0","96855","","null","","","null","26","","","","","","","","","","","","","","","",""
"","ITI","","html-keyboard-response","184","1041659","0.0-1.0-243.0","0","0","96855","","null","","","null","26","","","","","","","","","","","","","","","NaN",""
"","S1","","html-keyboard-response","185","1041812","0.0-1.0-245.0","0","0","96855","","null","","","null","27","","","","","","","","","","","","","","","",""
"","ISI","","html-keyboard-response","186","1043813","0.0-1.0-246.0","0","0","96855","","null","","","null","27","NaN","","","","","","","","","","","","","","",""
"","S2","","html-keyboard-response","187","1043965","0.0-1.0-247.0","0","0","96855","","null","","","null","27","","NaN","","","","","","","","","","","","","",""
"","response","","html-keyboard-response","188","1044349","0.0-1.0-248.0-0.0","0","0","96855","","383","","","68","27","","","1","27","training","adjacent","FG","6","7","P.jpg","M.jpg","0","1","0","",""
"","feedback","","html-keyboard-response","189","1045351","0.0-1.0-249.0-0.0","0","0","96855","","null","","","null","27","","","","","","","","","","","","","","","",""
"","time_out","","html-keyboard-response","190","1047353","0.0-1.0-251.0-0.0","0","0","96855","","null","","","null","27","","","","","","","","","","","","","","","",""
"","ITI","","html-keyboard-response","191","1048355","0.0-1.0-252.0","0","0","96855","","null","","","null","27","","","","","","","","","","","","","","","NaN",""
"","S1","","html-keyboard-response","192","1048507","0.0-1.0-254.0","0","0","96855","","null","","","null","28","","","","","","","","","","","","","","","",""
"","ISI","","html-keyboard-response","193","1050508","0.0-1.0-255.0","0","0","96855","","423","","","75","28","k","","","","","","","","","","","","","","",""
"","S2","","html-keyboard-response","194","1050660","0.0-1.0-256.0","0","0","96855","","null","","","null","28","","NaN","","","","","","","","","","","","","",""
"","response","","html-keyboard-response","195","1051174","0.0-1.0-257.0-0.0","0","0","96855","","512","","","75","28","","","1","28","training","adjacent","ED","5","4","N.jpg","Q.jpg","1","0","0","",""
"","feedback","","html-keyboard-response","196","1052176","0.0-1.0-258.0-0.0","0","0","96855","","null","","","null","28","","","","","","","","","","","","","","","",""
"","time_out","","html-keyboard-response","197","1054179","0.0-1.0-260.0-0.0","0","0","96855","","null","","","null","28","","","","","","","","","","","","","","","",""
"","ITI","","html-keyboard-response","198","1055181","0.0-1.0-261.0","0","0","96855","","null","","","null","28","","","","","","","","","","","","","","","NaN",""
"","S1","","html-keyboard-response","199","1055333","0.0-1.0-263.0","0","0","96855","","null","","","null","29","","","","","","","","","","","","","","","",""
"","ISI","","html-keyboard-response","200","1057335","0.0-1.0-264.0","0","0","96855","","226","","","68","29","d","","","","","","","","","","","","","","",""
"","S2","","html-keyboard-response","201","1057488","0.0-1.0-265.0","0","0","96855","","null","","","null","29","","NaN","","","","","","","","","","","","","",""
"","response","","html-keyboard-response","202","1057772","0.0-1.0-266.0-0.0","0","0","96855","","284","","","68","29","","","1","29","training","adjacent","EF","5","6","N.jpg","P.jpg","0","1","0","",""
"","feedback","","html-keyboard-response","203","1058775","0.0-1.0-267.0-0.0","0","0","96855","","null","","","null","29","","","","","","","","","","","","","","","",""
"","time_out","","html-keyboard-response","204","1060777","0.0-1.0-269.0-0.0","0","0","96855","","null","","","null","29","","","","","","","","","","","","","","","",""
"","ITI","","html-keyboard-response","205","1061779","0.0-1.0-270.0","0","0","96855","","null","","","null","29","","","","","","","","","","","","","","","NaN",""
"","S1","","html-keyboard-response","206","1061930","0.0-1.0-272.0","0","0","96855","","null","","","null","30","","","","","","","","","","","","","","","",""
"","ISI","","html-keyboard-response","207","1063935","0.0-1.0-273.0","0","0","96855","","null","","","null","30","NaN","","","","","","","","","","","","","","",""
"","S2","","html-keyboard-response","208","1064088","0.0-1.0-274.0","0","0","96855","","null","","","null","30","","NaN","","","","","","","","","","","","","",""
"","response","","html-keyboard-response","209","1064331","0.0-1.0-275.0-0.0","0","0","96855","","243","","","68","30","","","1","30","training","adjacent","FG","6","7","P.jpg","M.jpg","0","1","0","",""
"","feedback","","html-keyboard-response","210","1065334","0.0-1.0-276.0-0.0","0","0","96855","","null","","","null","30","","","","","","","","","","","","","","","",""
"","time_out","","html-keyboard-response","211","1067335","0.0-1.0-278.0-0.0","0","0","96855","","null","","","null","30","","","","","","","","","","","","","","","",""
"","ITI","","html-keyboard-response","212","1068337","0.0-1.0-279.0","0","0","96855","","null","","","null","30","","","","","","","","","","","","","","","NaN",""
"","S1","","html-keyboard-response","213","1068490","0.0-1.0-281.0","0","0","96855","","null","","","null","31","","","","","","","","","","","","","","","",""
"","ISI","","html-keyboard-response","214","1070493","0.0-1.0-282.0","0","0","96855","","null","","","null","31","NaN","","","","","","","","","","","","","","",""
"","S2","","html-keyboard-response","215","1070644","0.0-1.0-283.0","0","0","96855","","null","","","null","31","","NaN","","","","","","","","","","","","","",""
"","response","","html-keyboard-response","216","1071358","0.0-1.0-284.0-0.0","0","0","96855","","713","","","68","31","","","1","31","training","adjacent","GF","7","6","M.jpg","P.jpg","0","0","1","",""
"","feedback","","html-keyboard-response","217","1072360","0.0-1.0-285.0-0.0","0","0","96855","","null","","","null","31","","","","","","","","","","","","","","","",""
"","ITI","","html-keyboard-response","218","1073362","0.0-1.0-288.0","0","0","96855","","null","","","null","31","","","","","","","","","","","","","","","NaN",""
"","S1","","html-keyboard-response","219","1073514","0.0-1.0-290.0","0","0","96855","","null","","","null","32","","","","","","","","","","","","","","","",""
"","ISI","","html-keyboard-response","220","1075516","0.0-1.0-291.0","0","0","96855","","null","","","null","32","NaN","","","","","","","","","","","","","","",""
"","S2","","html-keyboard-response","221","1075668","0.0-1.0-292.0","0","0","96855","","null","","","null","32","","NaN","","","","","","","","","","","","","",""
"","response","","html-keyboard-response","222","1076039","0.0-1.0-293.0-0.0","0","0","96855","","367","","","68","32","","","1","32","training","adjacent","DC","4","3","Q.jpg","L.jpg","0","0","1","",""
"","feedback","","html-keyboard-response","223","1077043","0.0-1.0-294.0-0.0","0","0","96855","","null","","","null","32","","","","","","","","","","","","","","","",""
"","ITI","","html-keyboard-response","224","1078045","0.0-1.0-297.0","0","0","96855","","null","","","null","32","","","","","","","","","","","","","","","NaN",""
"","S1","","html-keyboard-response","225","1078198","0.0-1.0-299.0","0","0","96855","","null","","","null","33","","","","","","","","","","","","","","","",""
"","ISI","","html-keyboard-response","226","1080199","0.0-1.0-300.0","0","0","96855","","null","","","null","33","NaN","","","","","","","","","","","","","","",""
"","S2","","html-keyboard-response","227","1080351","0.0-1.0-301.0","0","0","96855","","null","","","null","33","","NaN","","","","","","","","","","","","","",""
"","response","","html-keyboard-response","228","1080767","0.0-1.0-302.0-0.0","0","0","96855","","414","","","75","33","","","1","33","training","adjacent","AB","1","2","O.jpg","R.jpg","1","1","1","",""
"","feedback","","html-keyboard-response","229","1081770","0.0-1.0-303.0-0.0","0","0","96855","","null","","","null","33","","","","","","","","","","","","","","","",""
"","ITI","","html-keyboard-response","230","1082772","0.0-1.0-306.0","0","0","96855","","null","","","null","33","","","","","","","","","","","","","","","NaN",""
"","S1","","html-keyboard-response","231","1082924","0.0-1.0-308.0","0","0","96855","","null","","","null","34","","","","","","","","","","","","","","","",""
"","ISI","","html-keyboard-response","232","1084927","0.0-1.0-309.0","0","0","96855","","null","","","null","34","NaN","","","","","","","","","","","","","","",""
"","S2","","html-keyboard-response","233","1085082","0.0-1.0-310.0","0","0","96855","","null","","","null","34","","NaN","","","","","","","","","","","","","",""
"","response","","html-keyboard-response","234","1085932","0.0-1.0-311.0-0.0","0","0","96855","","849","","","68","34","","","1","34","training","adjacent","CD","3","4","L.jpg","Q.jpg","0","1","0","",""
"","feedback","","html-keyboard-response","235","1086935","0.0-1.0-312.0-0.0","0","0","96855","","null","","","null","34","","","","","","","","","","","","","","","",""
"","time_out","","html-keyboard-response","236","1088939","0.0-1.0-314.0-0.0","0","0","96855","","null","","","null","34","","","","","","","","","","","","","","","",""
"","ITI","","html-keyboard-response","237","1089942","0.0-1.0-315.0","0","0","96855","","null","","","null","34","","","","","","","","","","","","","","","NaN",""
"","S1","","html-keyboard-response","238","1090093","0.0-1.0-317.0","0","0","96855","","null","","","null","35","","","","","","","","","","","","","","","",""
"","ISI","","html-keyboard-response","239","1092095","0.0-1.0-318.0","0","0","96855","","null","","","null","35","NaN","","","","","","","","","","","","","","",""
"","S2","","html-keyboard-response","240","1092246","0.0-1.0-319.0","0","0","96855","","null","","","null","35","","NaN","","","","","","","","","","","","","",""
"","response","","html-keyboard-response","241","1092970","0.0-1.0-320.0-0.0","0","0","96855","","723","","","75","35","","","1","35","training","adjacent","CD","3","4","L.jpg","Q.jpg","1","1","1","",""
"","feedback","","html-keyboard-response","242","1093971","0.0-1.0-321.0-0.0","0","0","96855","","null","","","null","35","","","","","","","","","","","","","","","",""
"","ITI","","html-keyboard-response","243","1094972","0.0-1.0-324.0","0","0","96855","","null","","","null","35","","","","","","","","","","","","","","","NaN",""
"","S1","","html-keyboard-response","244","1095124","0.0-1.0-326.0","0","0","96855","","null","","","null","36","","","","","","","","","","","","","","","",""
"","ISI","","html-keyboard-response","245","1097126","0.0-1.0-327.0","0","0","96855","","null","","","null","36","NaN","","","","","","","","","","","","","","",""
"","S2","","html-keyboard-response","246","1097278","0.0-1.0-328.0","0","0","96855","","null","","","null","36","","NaN","","","","","","","","","","","","","",""
"","response","","html-keyboard-response","247","1098625","0.0-1.0-329.0-0.0","0","0","96855","","1346","","","75","36","","","1","36","training","adjacent","CB","3","2","L.jpg","R.jpg","1","0","0","",""
"","feedback","","html-keyboard-response","248","1099628","0.0-1.0-330.0-0.0","0","0","96855","","null","","","null","36","","","","","","","","","","","","","","","",""
"","time_out","","html-keyboard-response","249","1101629","0.0-1.0-332.0-0.0","0","0","96855","","null","","","null","36","","","","","","","","","","","","","","","",""
"","ITI","","html-keyboard-response","250","1102634","0.0-1.0-333.0","0","0","96855","","null","","","null","36","","","","","","","","","","","","","","","NaN",""
"","S1","","html-keyboard-response","251","1102789","0.0-1.0-335.0","0","0","96855","","null","","","null","37","","","","","","","","","","","","","","","",""
"","ISI","","html-keyboard-response","252","1104791","0.0-1.0-336.0","0","0","96855","","null","","","null","37","NaN","","","","","","","","","","","","","","",""
"","S2","","html-keyboard-response","253","1104943","0.0-1.0-337.0","0","0","96855","","null","","","null","37","","NaN","","","","","","","","","","","","","",""
"","response","","html-keyboard-response","254","1105031","0.0-1.0-338.0-0.0","0","0","96855","","87","","","68","37","","","1","37","training","adjacent","FE","6","5","P.jpg","N.jpg","0","0","1","",""
"","feedback","","html-keyboard-response","255","1106033","0.0-1.0-339.0-0.0","0","0","96855","","null","","","null","37","","","","","","","","","","","","","","","",""
"","ITI","","html-keyboard-response","256","1107047","0.0-1.0-342.0","0","0","96855","","null","","","null","37","","","","","","","","","","","","","","","NaN",""
"","S1","","html-keyboard-response","257","1107199","0.0-1.0-344.0","0","0","96855","","null","","","null","38","","","","","","","","","","","","","","","",""
"","ISI","","html-keyboard-response","258","1109200","0.0-1.0-345.0","0","0","96855","","null","","","null","38","NaN","","","","","","","","","","","","","","",""
"","S2","","html-keyboard-response","259","1109354","0.0-1.0-346.0","0","0","96855","","null","","","null","38","","NaN","","","","","","","","","","","","","",""
"","response","","html-keyboard-response","260","1109641","0.0-1.0-347.0-0.0","0","0","96855","","285","","","75","38","","","1","38","training","adjacent","FG","6","7","P.jpg","M.jpg","1","1","1","",""
"","feedback","","html-keyboard-response","261","1110645","0.0-1.0-348.0-0.0","0","0","96855","","null","","","null","38","","","","","","","","","","","","","","","",""
"","ITI","","html-keyboard-response","262","1111648","0.0-1.0-351.0","0","0","96855","","null","","","null","38","","","","","","","","","","","","","","","NaN",""
"","S1","","html-keyboard-response","263","1111800","0.0-1.0-353.0","0","0","96855","","null","","","null","39","","","","","","","","","","","","","","","",""
"","ISI","","html-keyboard-response","264","1113803","0.0-1.0-354.0","0","0","96855","","null","","","null","39","NaN","","","","","","","","","","","","","","",""
"","S2","","html-keyboard-response","265","1113955","0.0-1.0-355.0","0","0","96855","","null","","","null","39","","NaN","","","","","","","","","","","","","",""
"","response","","html-keyboard-response","266","1114164","0.0-1.0-356.0-0.0","0","0","96855","","206","","","75","39","","","1","39","training","adjacent","GF","7","6","M.jpg","P.jpg","1","0","0","",""
"","feedback","","html-keyboard-response","267","1115167","0.0-1.0-357.0-0.0","0","0","96855","","null","","","null","39","","","","","","","","","","","","","","","",""
"","time_out","","html-keyboard-response","268","1117169","0.0-1.0-359.0-0.0","0","0","96855","","null","","","null","39","","","","","","","","","","","","","","","",""
"","ITI","","html-keyboard-response","269","1118170","0.0-1.0-360.0","0","0","96855","","null","","","null","39","","","","","","","","","","","","","","","NaN",""
"","S1","","html-keyboard-response","270","1118322","0.0-1.0-362.0","0","0","96855","","null","","","null","40","","","","","","","","","","","","","","","",""
"","ISI","","html-keyboard-response","271","1120323","0.0-1.0-363.0","0","0","96855","","null","","","null","40","NaN","","","","","","","","","","","","","","",""
"","S2","","html-keyboard-response","272","1120475","0.0-1.0-364.0","0","0","96855","","null","","","null","40","","NaN","","","","","","","","","","","","","",""
"","response","","html-keyboard-response","273","1120749","0.0-1.0-365.0-0.0","0","0","96855","","273","","","68","40","","","1","40","training","adjacent","ED","5","4","N.jpg","Q.jpg","0","0","1","",""
"","feedback","","html-keyboard-response","274","1121751","0.0-1.0-366.0-0.0","0","0","96855","","null","","","null","40","","","","","","","","","","","","","","","",""
"","ITI","","html-keyboard-response","275","1122754","0.0-1.0-369.0","0","0","96855","","null","","","null","40","","","","","","","","","","","","","","","NaN",""
"","S1","","html-keyboard-response","276","1122906","0.0-1.0-371.0","0","0","96855","","null","","","null","41","","","","","","","","","","","","","","","",""
"","ISI","","html-keyboard-response","277","1124909","0.0-1.0-372.0","0","0","96855","","null","","","null","41","NaN","","","","","","","","","","","","","","",""
"","S2","","html-keyboard-response","278","1125075","0.0-1.0-373.0","0","0","96855","","null","","","null","41","","NaN","","","","","","","","","","","","","",""
"","response","","html-keyboard-response","279","1126775","0.0-1.0-374.0-0.0","0","0","96855","","1698","","","75","41","","","1","41","training","adjacent","CB","3","2","L.jpg","R.jpg","1","0","0","",""
"","feedback","","html-keyboard-response","280","1127779","0.0-1.0-375.0-0.0","0","0","96855","","null","","","null","41","","","","","","","","","","","","","","","",""
"","time_out","","html-keyboard-response","281","1129781","0.0-1.0-377.0-0.0","0","0","96855","","null","","","null","41","","","","","","","","","","","","","","","",""
"","ITI","","html-keyboard-response","282","1130783","0.0-1.0-378.0","0","0","96855","","null","","","null","41","","","","","","","","","","","","","","","NaN",""
"","S1","","html-keyboard-response","283","1130936","0.0-1.0-380.0","0","0","96855","","null","","","null","42","","","","","","","","","","","","","","","",""
"","ISI","","html-keyboard-response","284","1132939","0.0-1.0-381.0","0","0","96855","","null","","","null","42","NaN","","","","","","","","","","","","","","",""
"","S2","","html-keyboard-response","285","1133093","0.0-1.0-382.0","0","0","96855","","null","","","null","42","","NaN","","","","","","","","","","","","","",""
"","response","","html-keyboard-response","286","1134394","0.0-1.0-383.0-0.0","0","0","96855","","1300","","","68","42","","","1","42","training","adjacent","DC","4","3","Q.jpg","L.jpg","0","0","1","",""
"","feedback","","html-keyboard-response","287","1135396","0.0-1.0-384.0-0.0","0","0","96855","","null","","","null","42","","","","","","","","","","","","","","","",""
"","ITI","","html-keyboard-response","288","1136398","0.0-1.0-387.0","0","0","96855","","null","","","null","42","","","","","","","","","","","","","","","NaN",""
"","S1","","html-keyboard-response","289","1136550","0.0-1.0-389.0","0","0","96855","","null","","","null","43","","","","","","","","","","","","","","","",""
"","ISI","","html-keyboard-response","290","1138552","0.0-1.0-390.0","0","0","96855","","null","","","null","43","NaN","","","","","","","","","","","","","","",""
"","S2","","html-keyboard-response","291","1138704","0.0-1.0-391.0","0","0","96855","","null","","","null","43","","NaN","","","","","","","","","","","","","",""
"","response","","html-keyboard-response","292","1139271","0.0-1.0-392.0-0.0","0","0","96855","","566","","","75","43","","","1","43","training","adjacent","DE","4","5","Q.jpg","N.jpg","1","1","1","",""
"","feedback","","html-keyboard-response","293","1140274","0.0-1.0-393.0-0.0","0","0","96855","","null","","","null","43","","","","","","","","","","","","","","","",""
"","ITI","","html-keyboard-response","294","1141276","0.0-1.0-396.0","0","0","96855","","null","","","null","43","","","","","","","","","","","","","","","NaN",""
"","S1","","html-keyboard-response","295","1141428","0.0-1.0-398.0","0","0","96855","","null","","","null","44","","","","","","","","","","","","","","","",""
"","ISI","","html-keyboard-response","296","1143431","0.0-1.0-399.0","0","0","96855","","null","","","null","44","NaN","","","","","","","","","","","","","","",""
"","S2","","html-keyboard-response","297","1143583","0.0-1.0-400.0","0","0","96855","","null","","","null","44","","NaN","","","","","","","","","","","","","",""
"","response","","html-keyboard-response","298","1143854","0.0-1.0-401.0-0.0","0","0","96855","","271","","","68","44","","","1","44","training","adjacent","GF","7","6","M.jpg","P.jpg","0","0","1","",""
"","feedback","","html-keyboard-response","299","1144856","0.0-1.0-402.0-0.0","0","0","96855","","null","","","null","44","","","","","","","","","","","","","","","",""
"","ITI","","html-keyboard-response","300","1145872","0.0-1.0-405.0","0","0","96855","","null","","","null","44","","","","","","","","","","","","","","","NaN",""
"","S1","","html-keyboard-response","301","1146023","0.0-1.0-407.0","0","0","96855","","null","","","null","45","","","","","","","","","","","","","","","",""
"","ISI","","html-keyboard-response","302","1148025","0.0-1.0-408.0","0","0","96855","","null","","","null","45","NaN","","","","","","","","","","","","","","",""
"","S2","","html-keyboard-response","303","1148178","0.0-1.0-409.0","0","0","96855","","null","","","null","45","","NaN","","","","","","","","","","","","","",""
"","response","","html-keyboard-response","304","1148671","0.0-1.0-410.0-0.0","0","0","96855","","492","","","75","45","","","1","45","training","adjacent","DE","4","5","Q.jpg","N.jpg","1","1","1","",""
"","feedback","","html-keyboard-response","305","1149673","0.0-1.0-411.0-0.0","0","0","96855","","null","","","null","45","","","","","","","","","","","","","","","",""
"","ITI","","html-keyboard-response","306","1150675","0.0-1.0-414.0","0","0","96855","","null","","","null","45","","","","","","","","","","","","","","","NaN",""
"","S1","","html-keyboard-response","307","1150827","0.0-1.0-416.0","0","0","96855","","null","","","null","46","","","","","","","","","","","","","","","",""
"","ISI","","html-keyboard-response","308","1152829","0.0-1.0-417.0","0","0","96855","","null","","","null","46","NaN","","","","","","","","","","","","","","",""
"","S2","","html-keyboard-response","309","1152981","0.0-1.0-418.0","0","0","96855","","null","","","null","46","","NaN","","","","","","","","","","","","","",""
"","response","","html-keyboard-response","310","1153555","0.0-1.0-419.0-0.0","0","0","96855","","573","","","68","46","","","1","46","training","adjacent","BC","2","3","R.jpg","L.jpg","0","1","0","",""
"","feedback","","html-keyboard-response","311","1154558","0.0-1.0-420.0-0.0","0","0","96855","","null","","","null","46","","","","","","","","","","","","","","","",""
"","time_out","","html-keyboard-response","312","1156560","0.0-1.0-422.0-0.0","0","0","96855","","null","","","null","46","","","","","","","","","","","","","","","",""
"","ITI","","html-keyboard-response","313","1157562","0.0-1.0-423.0","0","0","96855","","null","","","null","46","","","","","","","","","","","","","","","NaN",""
"","S1","","html-keyboard-response","314","1157724","0.0-1.0-425.0","0","0","96855","","null","","","null","47","","","","","","","","","","","","","","","",""
"","ISI","","html-keyboard-response","315","1159726","0.0-1.0-426.0","0","0","96855","","null","","","null","47","NaN","","","","","","","","","","","","","","",""
"","S2","","html-keyboard-response","316","1159879","0.0-1.0-427.0","0","0","96855","","null","","","null","47","","NaN","","","","","","","","","","","","","",""
"","response","","html-keyboard-response","317","1160291","0.0-1.0-428.0-0.0","0","0","96855","","411","","","75","47","","","1","47","training","adjacent","EF","5","6","N.jpg","P.jpg","1","1","1","",""
"","feedback","","html-keyboard-response","318","1161295","0.0-1.0-429.0-0.0","0","0","96855","","null","","","null","47","","","","","","","","","","","","","","","",""
"","ITI","","html-keyboard-response","319","1162297","0.0-1.0-432.0","0","0","96855","","null","","","null","47","","","","","","","","","","","","","","","NaN",""
"","block_over","","html-keyboard-response","320","1165517","0.0-1.0-433.0-0.0","0","0","96855","","3218","","","32","47","","","","","","","","","","","","","","","",""
"","S1","","html-keyboard-response","321","1165669","0.0-1.0-434.0","0","0","96855","","null","","","null","48","","","","","","","","","","","","","","","",""
"","ISI","","html-keyboard-response","322","1167671","0.0-1.0-435.0","0","0","96855","","null","","","null","48","NaN","","","","","","","","","","","","","","",""
"","S2","","html-keyboard-response","323","1167823","0.0-1.0-436.0","0","0","96855","","null","","","null","48","","NaN","","","","","","","","","","","","","",""
"","response","","html-keyboard-response","324","1168853","0.0-1.0-437.0-0.0","0","0","96855","","1026","","","75","48","","","2","48","training","adjacent","EF","5","6","N.jpg","P.jpg","1","1","1","",""
"","feedback","","html-keyboard-response","325","1169856","0.0-1.0-438.0-0.0","0","0","96855","","null","","","null","48","","","","","","","","","","","","","","","",""
"","ITI","","html-keyboard-response","326","1170858","0.0-1.0-441.0","0","0","96855","","null","","","null","48","","","","","","","","","","","","","","","NaN",""
"","S1","","html-keyboard-response","327","1171010","0.0-1.0-443.0","0","0","96855","","null","","","null","49","","","","","","","","","","","","","","","",""
"","ISI","","html-keyboard-response","328","1173014","0.0-1.0-444.0","0","0","96855","","null","","","null","49","NaN","","","","","","","","","","","","","","",""
"","S2","","html-keyboard-response","329","1173168","0.0-1.0-445.0","0","0","96855","","null","","","null","49","","NaN","","","","","","","","","","","","","",""
"","response","","html-keyboard-response","330","1173616","0.0-1.0-446.0-0.0","0","0","96855","","447","","","75","49","","","2","49","training","adjacent","FG","6","7","P.jpg","M.jpg","1","1","1","",""
"","feedback","","html-keyboard-response","331","1174618","0.0-1.0-447.0-0.0","0","0","96855","","null","","","null","49","","","","","","","","","","","","","","","",""
"","ITI","","html-keyboard-response","332","1175620","0.0-1.0-450.0","0","0","96855","","null","","","null","49","","","","","","","","","","","","","","","NaN",""
"","S1","","html-keyboard-response","333","1175772","0.0-1.0-452.0","0","0","96855","","null","","","null","50","","","","","","","","","","","","","","","",""
"","ISI","","html-keyboard-response","334","1177774","0.0-1.0-453.0","0","0","96855","","null","","","null","50","NaN","","","","","","","","","","","","","","",""
"","S2","","html-keyboard-response","335","1177926","0.0-1.0-454.0","0","0","96855","","null","","","null","50","","NaN","","","","","","","","","","","","","",""
"","response","","html-keyboard-response","336","1178533","0.0-1.0-455.0-0.0","0","0","96855","","607","","","75","50","","","2","50","training","adjacent","DC","4","3","Q.jpg","L.jpg","1","0","0","",""
"","feedback","","html-keyboard-response","337","1179536","0.0-1.0-456.0-0.0","0","0","96855","","null","","","null","50","","","","","","","","","","","","","","","",""
"","time_out","","html-keyboard-response","338","1181539","0.0-1.0-458.0-0.0","0","0","96855","","null","","","null","50","","","","","","","","","","","","","","","",""
"","ITI","","html-keyboard-response","339","1182540","0.0-1.0-459.0","0","0","96855","","null","","","null","50","","","","","","","","","","","","","","","NaN",""
"","S1","","html-keyboard-response","340","1182692","0.0-1.0-461.0","0","0","96855","","null","","","null","51","","","","","","","","","","","","","","","",""
"","ISI","","html-keyboard-response","341","1184693","0.0-1.0-462.0","0","0","96855","","null","","","null","51","NaN","","","","","","","","","","","","","","",""
"","S2","","html-keyboard-response","342","1184845","0.0-1.0-463.0","0","0","96855","","null","","","null","51","","NaN","","","","","","","","","","","","","",""
"","response","","html-keyboard-response","343","1185378","0.0-1.0-464.0-0.0","0","0","96855","","533","","","75","51","","","2","51","training","adjacent","DE","4","5","Q.jpg","N.jpg","1","1","1","",""
"","feedback","","html-keyboard-response","344","1186381","0.0-1.0-465.0-0.0","0","0","96855","","null","","","null","51","","","","","","","","","","","","","","","",""
"","ITI","","html-keyboard-response","345","1187383","0.0-1.0-468.0","0","0","96855","","null","","","null","51","","","","","","","","","","","","","","","NaN",""
"","S1","","html-keyboard-response","346","1187546","0.0-1.0-470.0","0","0","96855","","null","","","null","52","","","","","","","","","","","","","","","",""
"","ISI","","html-keyboard-response","347","1189549","0.0-1.0-471.0","0","0","96855","","null","","","null","52","NaN","","","","","","","","","","","","","","",""
"","S2","","html-keyboard-response","348","1189702","0.0-1.0-472.0","0","0","96855","","null","","","null","52","","NaN","","","","","","","","","","","","","",""
"","response","","html-keyboard-response","349","1189918","0.0-1.0-473.0-0.0","0","0","96855","","216","","","75","52","","","2","52","training","adjacent","GF","7","6","M.jpg","P.jpg","1","0","0","",""
"","feedback","","html-keyboard-response","350","1190921","0.0-1.0-474.0-0.0","0","0","96855","","null","","","null","52","","","","","","","","","","","","","","","",""
"","time_out","","html-keyboard-response","351","1192924","0.0-1.0-476.0-0.0","0","0","96855","","null","","","null","52","","","","","","","","","","","","","","","",""
"","ITI","","html-keyboard-response","352","1193926","0.0-1.0-477.0","0","0","96855","","null","","","null","52","","","","","","","","","","","","","","","NaN",""
"","S1","","html-keyboard-response","353","1194078","0.0-1.0-479.0","0","0","96855","","null","","","null","53","","","","","","","","","","","","","","","",""
"","ISI","","html-keyboard-response","354","1196080","0.0-1.0-480.0","0","0","96855","","null","","","null","53","NaN","","","","","","","","","","","","","","",""
"","S2","","html-keyboard-response","355","1196231","0.0-1.0-481.0","0","0","96855","","null","","","null","53","","NaN","","","","","","","","","","","","","",""
"","response","","html-keyboard-response","356","1196660","0.0-1.0-482.0-0.0","0","0","96855","","428","","","68","53","","","2","53","training","adjacent","CD","3","4","L.jpg","Q.jpg","0","1","0","",""
"","feedback","","html-keyboard-response","357","1197662","0.0-1.0-483.0-0.0","0","0","96855","","null","","","null","53","","","","","","","","","","","","","","","",""
"","time_out","","html-keyboard-response","358","1199666","0.0-1.0-485.0-0.0","0","0","96855","","null","","","null","53","","","","","","","","","","","","","","","",""
"","ITI","","html-keyboard-response","359","1200669","0.0-1.0-486.0","0","0","96855","","null","","","null","53","","","","","","","","","","","","","","","NaN",""
"","S1","","html-keyboard-response","360","1200820","0.0-1.0-488.0","0","0","96855","","null","","","null","54","","","","","","","","","","","","","","","",""
"","ISI","","html-keyboard-response","361","1202823","0.0-1.0-489.0","0","0","96855","","null","","","null","54","NaN","","","","","","","","","","","","","","",""
"","S2","","html-keyboard-response","362","1202975","0.0-1.0-490.0","0","0","96855","","null","","","null","54","","NaN","","","","","","","","","","","","","",""
"","response","","html-keyboard-response","363","1203389","0.0-1.0-491.0-0.0","0","0","96855","","414","","","75","54","","","2","54","training","adjacent","FE","6","5","P.jpg","N.jpg","1","0","0","",""
"","feedback","","html-keyboard-response","364","1204391","0.0-1.0-492.0-0.0","0","0","96855","","null","","","null","54","","","","","","","","","","","","","","","",""
"","time_out","","html-keyboard-response","365","1206393","0.0-1.0-494.0-0.0","0","0","96855","","null","","","null","54","","","","","","","","","","","","","","","",""
"","ITI","","html-keyboard-response","366","1207395","0.0-1.0-495.0","0","0","96855","","null","","","null","54","","","","","","","","","","","","","","","NaN",""
"","S1","","html-keyboard-response","367","1207547","0.0-1.0-497.0","0","0","96855","","null","","","null","55","","","","","","","","","","","","","","","",""
"","ISI","","html-keyboard-response","368","1209550","0.0-1.0-498.0","0","0","96855","","null","","","null","55","NaN","","","","","","","","","","","","","","",""
"","S2","","html-keyboard-response","369","1209701","0.0-1.0-499.0","0","0","96855","","null","","","null","55","","NaN","","","","","","","","","","","","","",""
"","response","","html-keyboard-response","370","1210052","0.0-1.0-500.0-0.0","0","0","96855","","349","","","68","55","","","2","55","training","adjacent","BC","2","3","R.jpg","L.jpg","0","1","0","",""
"","feedback","","html-keyboard-response","371","1211054","0.0-1.0-501.0-0.0","0","0","96855","","null","","","null","55","","","","","","","","","","","","","","","",""
"","time_out","","html-keyboard-response","372","1213055","0.0-1.0-503.0-0.0","0","0","96855","","null","","","null","55","","","","","","","","","","","","","","","",""
"","ITI","","html-keyboard-response","373","1214058","0.0-1.0-504.0","0","0","96855","","null","","","null","55","","","","","","","","","","","","","","","NaN",""
"","S1","","html-keyboard-response","374","1214210","0.0-1.0-506.0","0","0","96855","","null","","","null","56","","","","","","","","","","","","","","","",""
"","ISI","","html-keyboard-response","375","1216213","0.0-1.0-507.0","0","0","96855","","null","","","null","56","NaN","","","","","","","","","","","","","","",""
"","S2","","html-keyboard-response","376","1216366","0.0-1.0-508.0","0","0","96855","","null","","","null","56","","NaN","","","","","","","","","","","","","",""
"","response","","html-keyboard-response","377","1216754","0.0-1.0-509.0-0.0","0","0","96855","","387","","","75","56","","","2","56","training","adjacent","AB","1","2","O.jpg","R.jpg","1","1","1","",""
"","feedback","","html-keyboard-response","378","1217756","0.0-1.0-510.0-0.0","0","0","96855","","null","","","null","56","","","","","","","","","","","","","","","",""
"","ITI","","html-keyboard-response","379","1218761","0.0-1.0-513.0","0","0","96855","","null","","","null","56","","","","","","","","","","","","","","","NaN",""
"","S1","","html-keyboard-response","380","1218926","0.0-1.0-515.0","0","0","96855","","null","","","null","57","","","","","","","","","","","","","","","",""
"","ISI","","html-keyboard-response","381","1220927","0.0-1.0-516.0","0","0","96855","","null","","","null","57","NaN","","","","","","","","","","","","","","",""
"","S2","","html-keyboard-response","382","1221080","0.0-1.0-517.0","0","0","96855","","null","","","null","57","","NaN","","","","","","","","","","","","","",""
"","response","","html-keyboard-response","383","1221372","0.0-1.0-518.0-0.0","0","0","96855","","291","","","68","57","","","2","57","training","adjacent","GF","7","6","M.jpg","P.jpg","0","0","1","",""
"","feedback","","html-keyboard-response","384","1222375","0.0-1.0-519.0-0.0","0","0","96855","","null","","","null","57","","","","","","","","","","","","","","","",""
"","ITI","","html-keyboard-response","385","1223378","0.0-1.0-522.0","0","0","96855","","null","","","null","57","","","","","","","","","","","","","","","NaN",""
"","S1","","html-keyboard-response","386","1223530","0.0-1.0-524.0","0","0","96855","","null","","","null","58","","","","","","","","","","","","","","","",""
"","ISI","","html-keyboard-response","387","1225533","0.0-1.0-525.0","0","0","96855","","null","","","null","58","NaN","","","","","","","","","","","","","","",""
"","S2","","html-keyboard-response","388","1225685","0.0-1.0-526.0","0","0","96855","","null","","","null","58","","NaN","","","","","","","","","","","","","",""
"","response","","html-keyboard-response","389","1225932","0.0-1.0-527.0-0.0","0","0","96855","","246","","","68","58","","","2","58","training","adjacent","DC","4","3","Q.jpg","L.jpg","0","0","1","",""
"","feedback","","html-keyboard-response","390","1226934","0.0-1.0-528.0-0.0","0","0","96855","","null","","","null","58","","","","","","","","","","","","","","","",""
"","ITI","","html-keyboard-response","391","1227936","0.0-1.0-531.0","0","0","96855","","null","","","null","58","","","","","","","","","","","","","","","NaN",""
"","S1","","html-keyboard-response","392","1228089","0.0-1.0-533.0","0","0","96855","","null","","","null","59","","","","","","","","","","","","","","","",""
"","ISI","","html-keyboard-response","393","1230091","0.0-1.0-534.0","0","0","96855","","null","","","null","59","NaN","","","","","","","","","","","","","","",""
"","S2","","html-keyboard-response","394","1230243","0.0-1.0-535.0","0","0","96855","","null","","","null","59","","NaN","","","","","","","","","","","","","",""
"","response","","html-keyboard-response","395","1230671","0.0-1.0-536.0-0.0","0","0","96855","","427","","","75","59","","","2","59","training","adjacent","CD","3","4","L.jpg","Q.jpg","1","1","1","",""
"","feedback","","html-keyboard-response","396","1231674","0.0-1.0-537.0-0.0","0","0","96855","","null","","","null","59","","","","","","","","","","","","","","","",""
"","ITI","","html-keyboard-response","397","1232678","0.0-1.0-540.0","0","0","96855","","null","","","null","59","","","","","","","","","","","","","","","NaN",""
"","S1","","html-keyboard-response","398","1232829","0.0-1.0-542.0","0","0","96855","","null","","","null","60","","","","","","","","","","","","","","","",""
"","ISI","","html-keyboard-response","399","1234831","0.0-1.0-543.0","0","0","96855","","null","","","null","60","NaN","","","","","","","","","","","","","","",""
"","S2","","html-keyboard-response","400","1234983","0.0-1.0-544.0","0","0","96855","","null","","","null","60","","NaN","","","","","","","","","","","","","",""
"","response","","html-keyboard-response","401","1235080","0.0-1.0-545.0-0.0","0","0","96855","","97","","","68","60","","","2","60","training","adjacent","GF","7","6","M.jpg","P.jpg","0","0","1","",""
"","feedback","","html-keyboard-response","402","1236092","0.0-1.0-546.0-0.0","0","0","96855","","null","","","null","60","","","","","","","","","","","","","","","",""
"","ITI","","html-keyboard-response","403","1237094","0.0-1.0-549.0","0","0","96855","","null","","","null","60","","","","","","","","","","","","","","","NaN",""
"","S1","","html-keyboard-response","404","1237246","0.0-1.0-551.0","0","0","96855","","null","","","null","61","","","","","","","","","","","","","","","",""
"","ISI","","html-keyboard-response","405","1239249","0.0-1.0-552.0","0","0","96855","","null","","","null","61","NaN","","","","","","","","","","","","","","",""
"","S2","","html-keyboard-response","406","1239400","0.0-1.0-553.0","0","0","96855","","null","","","null","61","","NaN","","","","","","","","","","","","","",""
"","response","","html-keyboard-response","407","1239610","0.0-1.0-554.0-0.0","0","0","96855","","210","","","68","61","","","2","61","training","adjacent","FG","6","7","P.jpg","M.jpg","0","1","0","",""
"","feedback","","html-keyboard-response","408","1240612","0.0-1.0-555.0-0.0","0","0","96855","","null","","","null","61","","","","","","","","","","","","","","","",""
"","time_out","","html-keyboard-response","409","1242614","0.0-1.0-557.0-0.0","0","0","96855","","null","","","null","61","","","","","","","","","","","","","","","",""
"","ITI","","html-keyboard-response","410","1243617","0.0-1.0-558.0","0","0","96855","","null","","","null","61","","","","","","","","","","","","","","","NaN",""
"","S1","","html-keyboard-response","411","1243771","0.0-1.0-560.0","0","0","96855","","null","","","null","62","","","","","","","","","","","","","","","",""
"","ISI","","html-keyboard-response","412","1245774","0.0-1.0-561.0","0","0","96855","","null","","","null","62","NaN","","","","","","","","","","","","","","",""
"","S2","","html-keyboard-response","413","1245926","0.0-1.0-562.0","0","0","96855","","null","","","null","62","","NaN","","","","","","","","","","","","","",""
"","response","","html-keyboard-response","414","1246298","0.0-1.0-563.0-0.0","0","0","96855","","370","","","68","62","","","2","62","training","adjacent","CB","3","2","L.jpg","R.jpg","0","0","1","",""
"","feedback","","html-keyboard-response","415","1247301","0.0-1.0-564.0-0.0","0","0","96855","","null","","","null","62","","","","","","","","","","","","","","","",""
"","ITI","","html-keyboard-response","416","1248304","0.0-1.0-567.0","0","0","96855","","null","","","null","62","","","","","","","","","","","","","","","NaN",""
"","S1","","html-keyboard-response","417","1248455","0.0-1.0-569.0","0","0","96855","","null","","","null","63","","","","","","","","","","","","","","","",""
"","ISI","","html-keyboard-response","418","1250458","0.0-1.0-570.0","0","0","96855","","null","","","null","63","NaN","","","","","","","","","","","","","","",""
"","S2","","html-keyboard-response","419","1250610","0.0-1.0-571.0","0","0","96855","","null","","","null","63","","NaN","","","","","","","","","","","","","",""
"","response","","html-keyboard-response","420","1250915","0.0-1.0-572.0-0.0","0","0","96855","","303","","","68","63","","","2","63","training","adjacent","FG","6","7","P.jpg","M.jpg","0","1","0","",""
"","feedback","","html-keyboard-response","421","1251918","0.0-1.0-573.0-0.0","0","0","96855","","null","","","null","63","","","","","","","","","","","","","","","",""
"","time_out","","html-keyboard-response","422","1253920","0.0-1.0-575.0-0.0","0","0","96855","","null","","","null","63","","","","","","","","","","","","","","","",""
"","ITI","","html-keyboard-response","423","1254923","0.0-1.0-576.0","0","0","96855","","null","","","null","63","","","","","","","","","","","","","","","NaN",""
"","S1","","html-keyboard-response","424","1255076","0.0-1.0-578.0","0","0","96855","","null","","","null","64","","","","","","","","","","","","","","","",""
"","ISI","","html-keyboard-response","425","1257078","0.0-1.0-579.0","0","0","96855","","null","","","null","64","NaN","","","","","","","","","","","","","","",""
"","S2","","html-keyboard-response","426","1257231","0.0-1.0-580.0","0","0","96855","","null","","","null","64","","NaN","","","","","","","","","","","","","",""
"","response","","html-keyboard-response","427","1257316","0.0-1.0-581.0-0.0","0","0","96855","","84","","","75","64","","","2","64","training","adjacent","ED","5","4","N.jpg","Q.jpg","1","0","0","",""
"","feedback","","html-keyboard-response","428","1258318","0.0-1.0-582.0-0.0","0","0","96855","","null","","","null","64","","","","","","","","","","","","","","","",""
"","time_out","","html-keyboard-response","429","1260322","0.0-1.0-584.0-0.0","0","0","96855","","null","","","null","64","","","","","","","","","","","","","","","",""
"","ITI","","html-keyboard-response","430","1261324","0.0-1.0-585.0","0","0","96855","","null","","","null","64","","","","","","","","","","","","","","","NaN",""
"","S1","","html-keyboard-response","431","1261476","0.0-1.0-587.0","0","0","96855","","null","","","null","65","","","","","","","","","","","","","","","",""
"","ISI","","html-keyboard-response","432","1263479","0.0-1.0-588.0","0","0","96855","","382","","","68","65","d","","","","","","","","","","","","","","",""
"","S2","","html-keyboard-response","433","1263632","0.0-1.0-589.0","0","0","96855","","null","","","null","65","","NaN","","","","","","","","","","","","","",""
"","response","","html-keyboard-response","434","1263838","0.0-1.0-590.0-0.0","0","0","96855","","205","","","68","65","","","2","65","training","adjacent","CD","3","4","L.jpg","Q.jpg","0","1","0","",""
"","feedback","","html-keyboard-response","435","1264840","0.0-1.0-591.0-0.0","0","0","96855","","null","","","null","65","","","","","","","","","","","","","","","",""
"","time_out","","html-keyboard-response","436","1266842","0.0-1.0-593.0-0.0","0","0","96855","","null","","","null","65","","","","","","","","","","","","","","","",""
"","ITI","","html-keyboard-response","437","1267844","0.0-1.0-594.0","0","0","96855","","null","","","null","65","","","","","","","","","","","","","","","NaN",""
"","S1","","html-keyboard-response","438","1267995","0.0-1.0-596.0","0","0","96855","","null","","","null","66","","","","","","","","","","","","","","","",""
"","ISI","","html-keyboard-response","439","1269998","0.0-1.0-597.0","0","0","96855","","null","","","null","66","NaN","","","","","","","","","","","","","","",""
"","S2","","html-keyboard-response","440","1270150","0.0-1.0-598.0","0","0","96855","","null","","","null","66","","NaN","","","","","","","","","","","","","",""
"","response","","html-keyboard-response","441","1270512","0.0-1.0-599.0-0.0","0","0","96855","","361","","","75","66","","","2","66","training","adjacent","DC","4","3","Q.jpg","L.jpg","1","0","0","",""
"","feedback","","html-keyboard-response","442","1271514","0.0-1.0-600.0-0.0","0","0","96855","","null","","","null","66","","","","","","","","","","","","","","","",""
"","time_out","","html-keyboard-response","443","1273517","0.0-1.0-602.0-0.0","0","0","96855","","null","","","null","66","","","","","","","","","","","","","","","",""
"","ITI","","html-keyboard-response","444","1274519","0.0-1.0-603.0","0","0","96855","","null","","","null","66","","","","","","","","","","","","","","","NaN",""
"","S1","","html-keyboard-response","445","1274671","0.0-1.0-605.0","0","0","96855","","null","","","null","67","","","","","","","","","","","","","","","",""
"","ISI","","html-keyboard-response","446","1276674","0.0-1.0-606.0","0","0","96855","","null","","","null","67","NaN","","","","","","","","","","","","","","",""
"","S2","","html-keyboard-response","447","1276826","0.0-1.0-607.0","0","0","96855","","null","","","null","67","","NaN","","","","","","","","","","","","","",""
"","response","","html-keyboard-response","448","1276948","0.0-1.0-608.0-0.0","0","0","96855","","120","","","75","67","","","2","67","training","adjacent","EF","5","6","N.jpg","P.jpg","1","1","1","",""
"","feedback","","html-keyboard-response","449","1277951","0.0-1.0-609.0-0.0","0","0","96855","","null","","","null","67","","","","","","","","","","","","","","","",""
"","ITI","","html-keyboard-response","450","1278953","0.0-1.0-612.0","0","0","96855","","null","","","null","67","","","","","","","","","","","","","","","NaN",""
"","S1","","html-keyboard-response","451","1279105","0.0-1.0-614.0","0","0","96855","","null","","","null","68","","","","","","","","","","","","","","","",""
"","ISI","","html-keyboard-response","452","1281107","0.0-1.0-615.0","0","0","96855","","null","","","null","68","NaN","","","","","","","","","","","","","","",""
"","S2","","html-keyboard-response","453","1281259","0.0-1.0-616.0","0","0","96855","","null","","","null","68","","NaN","","","","","","","","","","","","","",""
"","response","","html-keyboard-response","454","1281632","0.0-1.0-617.0-0.0","0","0","96855","","372","","","68","68","","","2","68","training","adjacent","BA","2","1","R.jpg","O.jpg","0","0","1","",""
"","feedback","","html-keyboard-response","455","1282635","0.0-1.0-618.0-0.0","0","0","96855","","null","","","null","68","","","","","","","","","","","","","","","",""
"","ITI","","html-keyboard-response","456","1283637","0.0-1.0-621.0","0","0","96855","","null","","","null","68","","","","","","","","","","","","","","","NaN",""
"","S1","","html-keyboard-response","457","1283789","0.0-1.0-623.0","0","0","96855","","null","","","null","69","","","","","","","","","","","","","","","",""
"","ISI","","html-keyboard-response","458","1285791","0.0-1.0-624.0","0","0","96855","","null","","","null","69","NaN","","","","","","","","","","","","","","",""
"","S2","","html-keyboard-response","459","1285943","0.0-1.0-625.0","0","0","96855","","null","","","null","69","","NaN","","","","","","","","","","","","","",""
"","response","","html-keyboard-response","460","1286369","0.0-1.0-626.0-0.0","0","0","96855","","424","","","75","69","","","2","69","training","adjacent","DE","4","5","Q.jpg","N.jpg","1","1","1","",""
"","feedback","","html-keyboard-response","461","1287371","0.0-1.0-627.0-0.0","0","0","96855","","null","","","null","69","","","","","","","","","","","","","","","",""
"","ITI","","html-keyboard-response","462","1288382","0.0-1.0-630.0","0","0","96855","","null","","","null","69","","","","","","","","","","","","","","","NaN",""
"","S1","","html-keyboard-response","463","1288535","0.0-1.0-632.0","0","0","96855","","null","","","null","70","","","","","","","","","","","","","","","",""
"","ISI","","html-keyboard-response","464","1290537","0.0-1.0-633.0","0","0","96855","","null","","","null","70","NaN","","","","","","","","","","","","","","",""
"","S2","","html-keyboard-response","465","1290691","0.0-1.0-634.0","0","0","96855","","null","","","null","70","","NaN","","","","","","","","","","","","","",""
"","response","","html-keyboard-response","466","1291374","0.0-1.0-635.0-0.0","0","0","96855","","682","","","68","70","","","2","70","training","adjacent","EF","5","6","N.jpg","P.jpg","0","1","0","",""
"","feedback","","html-keyboard-response","467","1292376","0.0-1.0-636.0-0.0","0","0","96855","","null","","","null","70","","","","","","","","","","","","","","","",""
"","time_out","","html-keyboard-response","468","1294378","0.0-1.0-638.0-0.0","0","0","96855","","null","","","null","70","","","","","","","","","","","","","","","",""
"","ITI","","html-keyboard-response","469","1295380","0.0-1.0-639.0","0","0","96855","","null","","","null","70","","","","","","","","","","","","","","","NaN",""
"","S1","","html-keyboard-response","470","1295533","0.0-1.0-641.0","0","0","96855","","null","","","null","71","","","","","","","","","","","","","","","",""
"","ISI","","html-keyboard-response","471","1297535","0.0-1.0-642.0","0","0","96855","","null","","","null","71","NaN","","","","","","","","","","","","","","",""
"","S2","","html-keyboard-response","472","1297687","0.0-1.0-643.0","0","0","96855","","null","","","null","71","","NaN","","","","","","","","","","","","","",""
"","response","","html-keyboard-response","473","1298122","0.0-1.0-644.0-0.0","0","0","96855","","433","","","68","71","","","2","71","training","adjacent","CB","3","2","L.jpg","R.jpg","0","0","1","",""
"","feedback","","html-keyboard-response","474","1299125","0.0-1.0-645.0-0.0","0","0","96855","","null","","","null","71","","","","","","","","","","","","","","","",""
"","ITI","","html-keyboard-response","475","1300127","0.0-1.0-648.0","0","0","96855","","null","","","null","71","","","","","","","","","","","","","","","NaN",""
"","S1","","html-keyboard-response","476","1300279","0.0-1.0-650.0","0","0","96855","","null","","","null","72","","","","","","","","","","","","","","","",""
"","ISI","","html-keyboard-response","477","1302282","0.0-1.0-651.0","0","0","96855","","null","","","null","72","NaN","","","","","","","","","","","","","","",""
"","S2","","html-keyboard-response","478","1302435","0.0-1.0-652.0","0","0","96855","","null","","","null","72","","NaN","","","","","","","","","","","","","",""
"","response","","html-keyboard-response","479","1302846","0.0-1.0-653.0-0.0","0","0","96855","","410","","","68","72","","","2","72","training","adjacent","FG","6","7","P.jpg","M.jpg","0","1","0","",""
"","feedback","","html-keyboard-response","480","1303847","0.0-1.0-654.0-0.0","0","0","96855","","null","","","null","72","","","","","","","","","","","","","","","",""
"","time_out","","html-keyboard-response","481","1305849","0.0-1.0-656.0-0.0","0","0","96855","","null","","","null","72","","","","","","","","","","","","","","","",""
"","ITI","","html-keyboard-response","482","1306852","0.0-1.0-657.0","0","0","96855","","null","","","null","72","","","","","","","","","","","","","","","NaN",""
"","S1","","html-keyboard-response","483","1307004","0.0-1.0-659.0","0","0","96855","","null","","","null","73","","","","","","","","","","","","","","","",""
"","ISI","","html-keyboard-response","484","1309007","0.0-1.0-660.0","0","0","96855","","null","","","null","73","NaN","","","","","","","","","","","","","","",""
"","S2","","html-keyboard-response","485","1309159","0.0-1.0-661.0","0","0","96855","","null","","","null","73","","NaN","","","","","","","","","","","","","",""
"","response","","html-keyboard-response","486","1309524","0.0-1.0-662.0-0.0","0","0","96855","","364","","","75","73","","","2","73","training","adjacent","DE","4","5","Q.jpg","N.jpg","1","1","1","",""
"","feedback","","html-keyboard-response","487","1310526","0.0-1.0-663.0-0.0","0","0","96855","","null","","","null","73","","","","","","","","","","","","","","","",""
"","ITI","","html-keyboard-response","488","1311529","0.0-1.0-666.0","0","0","96855","","null","","","null","73","","","","","","","","","","","","","","","NaN",""
"","S1","","html-keyboard-response","489","1311682","0.0-1.0-668.0","0","0","96855","","null","","","null","74","","","","","","","","","","","","","","","",""
"","ISI","","html-keyboard-response","490","1313684","0.0-1.0-669.0","0","0","96855","","null","","","null","74","NaN","","","","","","","","","","","","","","",""
"","S2","","html-keyboard-response","491","1313837","0.0-1.0-670.0","0","0","96855","","null","","","null","74","","NaN","","","","","","","","","","","","","",""
"","response","","html-keyboard-response","492","1314536","0.0-1.0-671.0-0.0","0","0","96855","","698","","","68","74","","","2","74","training","adjacent","DC","4","3","Q.jpg","L.jpg","0","0","1","",""
"","feedback","","html-keyboard-response","493","1315538","0.0-1.0-672.0-0.0","0","0","96855","","null","","","null","74","","","","","","","","","","","","","","","",""
"","ITI","","html-keyboard-response","494","1316541","0.0-1.0-675.0","0","0","96855","","null","","","null","74","","","","","","","","","","","","","","","NaN",""
"","S1","","html-keyboard-response","495","1316693","0.0-1.0-677.0","0","0","96855","","null","","","null","75","","","","","","","","","","","","","","","",""
"","ISI","","html-keyboard-response","496","1318695","0.0-1.0-678.0","0","0","96855","","null","","","null","75","NaN","","","","","","","","","","","","","","",""
"","S2","","html-keyboard-response","497","1318847","0.0-1.0-679.0","0","0","96855","","null","","","null","75","","NaN","","","","","","","","","","","","","",""
"","response","","html-keyboard-response","498","1319625","0.0-1.0-680.0-0.0","0","0","96855","","776","","","68","75","","","2","75","training","adjacent","CD","3","4","L.jpg","Q.jpg","0","1","0","",""
"","feedback","","html-keyboard-response","499","1320627","0.0-1.0-681.0-0.0","0","0","96855","","null","","","null","75","","","","","","","","","","","","","","","",""
"","time_out","","html-keyboard-response","500","1322629","0.0-1.0-683.0-0.0","0","0","96855","","null","","","null","75","","","","","","","","","","","","","","","",""
"","ITI","","html-keyboard-response","501","1323631","0.0-1.0-684.0","0","0","96855","","null","","","null","75","","","","","","","","","","","","","","","NaN",""
"","S1","","html-keyboard-response","502","1323784","0.0-1.0-686.0","0","0","96855","","null","","","null","76","","","","","","","","","","","","","","","",""
"","ISI","","html-keyboard-response","503","1325785","0.0-1.0-687.0","0","0","96855","","null","","","null","76","NaN","","","","","","","","","","","","","","",""
"","S2","","html-keyboard-response","504","1325938","0.0-1.0-688.0","0","0","96855","","null","","","null","76","","NaN","","","","","","","","","","","","","",""
"","response","","html-keyboard-response","505","1326347","0.0-1.0-689.0-0.0","0","0","96855","","408","","","68","76","","","2","76","training","adjacent","ED","5","4","N.jpg","Q.jpg","0","0","1","",""
"","feedback","","html-keyboard-response","506","1327348","0.0-1.0-690.0-0.0","0","0","96855","","null","","","null","76","","","","","","","","","","","","","","","",""
"","ITI","","html-keyboard-response","507","1328350","0.0-1.0-693.0","0","0","96855","","null","","","null","76","","","","","","","","","","","","","","","NaN",""
"","S1","","html-keyboard-response","508","1328503","0.0-1.0-695.0","0","0","96855","","null","","","null","77","","","","","","","","","","","","","","","",""
"","ISI","","html-keyboard-response","509","1330504","0.0-1.0-696.0","0","0","96855","","null","","","null","77","NaN","","","","","","","","","","","","","","",""
"","S2","","html-keyboard-response","510","1330657","0.0-1.0-697.0","0","0","96855","","null","","","null","77","","NaN","","","","","","","","","","","","","",""
"","response","","html-keyboard-response","511","1331457","0.0-1.0-698.0-0.0","0","0","96855","","799","","","75","77","","","2","77","training","adjacent","BC","2","3","R.jpg","L.jpg","1","1","1","",""
"","feedback","","html-keyboard-response","512","1332459","0.0-1.0-699.0-0.0","0","0","96855","","null","","","null","77","","","","","","","","","","","","","","","",""
"","ITI","","html-keyboard-response","513","1333462","0.0-1.0-702.0","0","0","96855","","null","","","null","77","","","","","","","","","","","","","","","NaN",""
"","S1","","html-keyboard-response","514","1333615","0.0-1.0-704.0","0","0","96855","","null","","","null","78","","","","","","","","","","","","","","","",""
"","ISI","","html-keyboard-response","515","1335617","0.0-1.0-705.0","0","0","96855","","null","","","null","78","NaN","","","","","","","","","","","","","","",""
"","S2","","html-keyboard-response","516","1335770","0.0-1.0-706.0","0","0","96855","","null","","","null","78","","NaN","","","","","","","","","","","","","",""
"","response","","html-keyboard-response","517","1336462","0.0-1.0-707.0-0.0","0","0","96855","","691","","","75","78","","","2","78","training","adjacent","CB","3","2","L.jpg","R.jpg","1","0","0","",""
"","feedback","","html-keyboard-response","518","1337464","0.0-1.0-708.0-0.0","0","0","96855","","null","","","null","78","","","","","","","","","","","","","","","",""
"","time_out","","html-keyboard-response","519","1339467","0.0-1.0-710.0-0.0","0","0","96855","","null","","","null","78","","","","","","","","","","","","","","","",""
"","ITI","","html-keyboard-response","520","1340469","0.0-1.0-711.0","0","0","96855","","null","","","null","78","","","","","","","","","","","","","","","NaN",""
"","S1","","html-keyboard-response","521","1340622","0.0-1.0-713.0","0","0","96855","","null","","","null","79","","","","","","","","","","","","","","","",""
"","ISI","","html-keyboard-response","522","1342623","0.0-1.0-714.0","0","0","96855","","null","","","null","79","NaN","","","","","","","","","","","","","","",""
"","S2","","html-keyboard-response","523","1342788","0.0-1.0-715.0","0","0","96855","","null","","","null","79","","NaN","","","","","","","","","","","","","",""
"","response","","html-keyboard-response","524","1343088","0.0-1.0-716.0-0.0","0","0","96855","","299","","","68","79","","","2","79","training","adjacent","BC","2","3","R.jpg","L.jpg","0","1","0","",""
"","feedback","","html-keyboard-response","525","1344090","0.0-1.0-717.0-0.0","0","0","96855","","null","","","null","79","","","","","","","","","","","","","","","",""
"","time_out","","html-keyboard-response","526","1346092","0.0-1.0-719.0-0.0","0","0","96855","","null","","","null","79","","","","","","","","","","","","","","","",""
"","ITI","","html-keyboard-response","527","1347095","0.0-1.0-720.0","0","0","96855","","null","","","null","79","","","","","","","","","","","","","","","NaN",""
"","S1","","html-keyboard-response","528","1347247","0.0-1.0-722.0","0","0","96855","","null","","","null","80","","","","","","","","","","","","","","","",""
"","ISI","","html-keyboard-response","529","1349250","0.0-1.0-723.0","0","0","96855","","null","","","null","80","NaN","","","","","","","","","","","","","","",""
"","S2","","html-keyboard-response","530","1349403","0.0-1.0-724.0","0","0","96855","","null","","","null","80","","NaN","","","","","","","","","","","","","",""
"","response","","html-keyboard-response","531","1349779","0.0-1.0-725.0-0.0","0","0","96855","","375","","","75","80","","","2","80","training","adjacent","ED","5","4","N.jpg","Q.jpg","1","0","0","",""
"","feedback","","html-keyboard-response","532","1350780","0.0-1.0-726.0-0.0","0","0","96855","","null","","","null","80","","","","","","","","","","","","","","","",""
"","time_out","","html-keyboard-response","533","1352783","0.0-1.0-728.0-0.0","0","0","96855","","null","","","null","80","","","","","","","","","","","","","","","",""
"","ITI","","html-keyboard-response","534","1353785","0.0-1.0-729.0","0","0","96855","","null","","","null","80","","","","","","","","","","","","","","","NaN",""
"","S1","","html-keyboard-response","535","1353937","0.0-1.0-731.0","0","0","96855","","null","","","null","81","","","","","","","","","","","","","","","",""
"","ISI","","html-keyboard-response","536","1355939","0.0-1.0-732.0","0","0","96855","","null","","","null","81","NaN","","","","","","","","","","","","","","",""
"","S2","","html-keyboard-response","537","1356093","0.0-1.0-733.0","0","0","96855","","null","","","null","81","","NaN","","","","","","","","","","","","","",""
"","response","","html-keyboard-response","538","1356172","0.0-1.0-734.0-0.0","0","0","96855","","78","","","68","81","","","2","81","training","adjacent","FE","6","5","P.jpg","N.jpg","0","0","1","",""
"","feedback","","html-keyboard-response","539","1357175","0.0-1.0-735.0-0.0","0","0","96855","","null","","","null","81","","","","","","","","","","","","","","","",""
"","ITI","","html-keyboard-response","540","1358181","0.0-1.0-738.0","0","0","96855","","null","","","null","81","","","","","","","","","","","","","","","NaN",""
"","S1","","html-keyboard-response","541","1358337","0.0-1.0-740.0","0","0","96855","","null","","","null","82","","","","","","","","","","","","","","","",""
"","ISI","","html-keyboard-response","542","1360340","0.0-1.0-741.0","0","0","96855","","null","","","null","82","NaN","","","","","","","","","","","","","","",""
"","S2","","html-keyboard-response","543","1360493","0.0-1.0-742.0","0","0","96855","","null","","","null","82","","NaN","","","","","","","","","","","","","",""
"","response","","html-keyboard-response","544","1360600","0.0-1.0-743.0-0.0","0","0","96855","","106","","","75","82","","","2","82","training","adjacent","GF","7","6","M.jpg","P.jpg","1","0","0","",""
"","feedback","","html-keyboard-response","545","1361603","0.0-1.0-744.0-0.0","0","0","96855","","null","","","null","82","","","","","","","","","","","","","","","",""
"","time_out","","html-keyboard-response","546","1363604","0.0-1.0-746.0-0.0","0","0","96855","","null","","","null","82","","","","","","","","","","","","","","","",""
"","ITI","","html-keyboard-response","547","1364607","0.0-1.0-747.0","0","0","96855","","null","","","null","82","","","","","","","","","","","","","","","NaN",""
"","S1","","html-keyboard-response","548","1364760","0.0-1.0-749.0","0","0","96855","","null","","","null","83","","","","","","","","","","","","","","","",""
"","ISI","","html-keyboard-response","549","1366760","0.0-1.0-750.0","0","0","96855","","null","","","null","83","NaN","","","","","","","","","","","","","","",""
"","S2","","html-keyboard-response","550","1366912","0.0-1.0-751.0","0","0","96855","","null","","","null","83","","NaN","","","","","","","","","","","","","",""
"","response","","html-keyboard-response","551","1367238","0.0-1.0-752.0-0.0","0","0","96855","","326","","","75","83","","","2","83","training","adjacent","DE","4","5","Q.jpg","N.jpg","1","1","1","",""
"","feedback","","html-keyboard-response","552","1368240","0.0-1.0-753.0-0.0","0","0","96855","","null","","","null","83","","","","","","","","","","","","","","","",""
"","ITI","","html-keyboard-response","553","1369246","0.0-1.0-756.0","0","0","96855","","null","","","null","83","","","","","","","","","","","","","","","NaN",""
"","S1","","html-keyboard-response","554","1369398","0.0-1.0-758.0","0","0","96855","","null","","","null","84","","","","","","","","","","","","","","","",""
"","ISI","","html-keyboard-response","555","1371400","0.0-1.0-759.0","0","0","96855","","null","","","null","84","NaN","","","","","","","","","","","","","","",""
"","S2","","html-keyboard-response","556","1371552","0.0-1.0-760.0","0","0","96855","","null","","","null","84","","NaN","","","","","","","","","","","","","",""
"","response","","html-keyboard-response","557","1371907","0.0-1.0-761.0-0.0","0","0","96855","","352","","","68","84","","","2","84","training","adjacent","BA","2","1","R.jpg","O.jpg","0","0","1","",""
"","feedback","","html-keyboard-response","558","1372912","0.0-1.0-762.0-0.0","0","0","96855","","null","","","null","84","","","","","","","","","","","","","","","",""
"","ITI","","html-keyboard-response","559","1373914","0.0-1.0-765.0","0","0","96855","","null","","","null","84","","","","","","","","","","","","","","","NaN",""
"","S1","","html-keyboard-response","560","1374065","0.0-1.0-767.0","0","0","96855","","null","","","null","85","","","","","","","","","","","","","","","",""
"","ISI","","html-keyboard-response","561","1376067","0.0-1.0-768.0","0","0","96855","","null","","","null","85","NaN","","","","","","","","","","","","","","",""
"","S2","","html-keyboard-response","562","1376218","0.0-1.0-769.0","0","0","96855","","null","","","null","85","","NaN","","","","","","","","","","","","","",""
"","response","","html-keyboard-response","563","1376533","0.0-1.0-770.0-0.0","0","0","96855","","313","","","75","85","","","2","85","training","adjacent","FE","6","5","P.jpg","N.jpg","1","0","0","",""
"","feedback","","html-keyboard-response","564","1377536","0.0-1.0-771.0-0.0","0","0","96855","","null","","","null","85","","","","","","","","","","","","","","","",""
"","time_out","","html-keyboard-response","565","1379538","0.0-1.0-773.0-0.0","0","0","96855","","null","","","null","85","","","","","","","","","","","","","","","",""
"","ITI","","html-keyboard-response","566","1380540","0.0-1.0-774.0","0","0","96855","","null","","","null","85","","","","","","","","","","","","","","","NaN",""
"","S1","","html-keyboard-response","567","1380693","0.0-1.0-776.0","0","0","96855","","null","","","null","86","","","","","","","","","","","","","","","",""
"","ISI","","html-keyboard-response","568","1382695","0.0-1.0-777.0","0","0","96855","","null","","","null","86","NaN","","","","","","","","","","","","","","",""
"","S2","","html-keyboard-response","569","1382847","0.0-1.0-778.0","0","0","96855","","null","","","null","86","","NaN","","","","","","","","","","","","","",""
"","response","","html-keyboard-response","570","1383220","0.0-1.0-779.0-0.0","0","0","96855","","372","","","75","86","","","2","86","training","adjacent","AB","1","2","O.jpg","R.jpg","1","1","1","",""
"","feedback","","html-keyboard-response","571","1384222","0.0-1.0-780.0-0.0","0","0","96855","","null","","","null","86","","","","","","","","","","","","","","","",""
"","ITI","","html-keyboard-response","572","1385224","0.0-1.0-783.0","0","0","96855","","null","","","null","86","","","","","","","","","","","","","","","NaN",""
"","S1","","html-keyboard-response","573","1385376","0.0-1.0-785.0","0","0","96855","","null","","","null","87","","","","","","","","","","","","","","","",""
"","ISI","","html-keyboard-response","574","1387377","0.0-1.0-786.0","0","0","96855","","null","","","null","87","NaN","","","","","","","","","","","","","","",""
"","S2","","html-keyboard-response","575","1387530","0.0-1.0-787.0","0","0","96855","","null","","","null","87","","NaN","","","","","","","","","","","","","",""
"","response","","html-keyboard-response","576","1387984","0.0-1.0-788.0-0.0","0","0","96855","","452","","","75","87","","","2","87","training","adjacent","BA","2","1","R.jpg","O.jpg","1","0","0","",""
