"success","ttype","start_time","trial_type","trial_index","time_elapsed","internal_node_id","warning","missed_checkup","PID","view_history","rt","responses","repeat_instructions","key_press","index","keypress_isi","keypress_S2","block","trial_num","phase","group_type","pair_type","S1_stim","S2_stim","S1_img","S2_img","S1_chosen","S1_higher","accuracy","keypress_iti","total_bonus_tally"
"true","full_screen","d04062023hr2104","fullscreen","0","10226","0.0-0.0","0","0","37765","","","","","","","","","","","","","","","","","","","","","",""
"","instructions","","instructions","1","46573","0.0-1.0-0.0-0.0","0","0","37765","[{""page_index"":0,""viewing_time"":15838},{""page_index"":1,""viewing_time"":14866},{""page_index"":2,""viewing_time"":3951},{""page_index"":3,""viewing_time"":1691}]","36346","","","","","","","","","","","","","","","","","","","",""
"","comprehension_check","","survey-multi-choice","2","72689","0.0-1.0-0.0-1.0","0","0","37765","","26115","{""Q0"":""True"",""Q1"":""D"",""Q2"":""Only when the screen 'MAKE A CHOICE' is shown"",""Q3"":""Green mark"",""Q4"":""either D or K""}","1","","","","","","","","","","","","","","","","","",""
"","missed_instruction_checkup","","html-keyboard-response","3","75843","0.0-1.0-0.0-2.0-0.0","0","1","37765","","3153","","","32","","","","","","","","","","","","","","","","",""
"","instructions","","instructions","4","97145","0.0-1.0-0.1-0.1","0","0","37765","[{""page_index"":0,""viewing_time"":3418},{""page_index"":1,""viewing_time"":14977},{""page_index"":2,""viewing_time"":2020},{""page_index"":3,""viewing_time"":885}]","21300","","","","","","","","","","","","","","","","","","","",""
"","comprehension_check","","survey-multi-choice","5","110449","0.0-1.0-0.1-1.1","0","0","37765","","13302","{""Q0"":""True"",""Q1"":""K"",""Q2"":""Once the second image appears and while the screen 'MAKE A CHOICE' is shown"",""Q3"":""Green mark"",""Q4"":""either D or K""}","0","","","","","","","","","","","","","","","","","",""
"","start_exp","","html-keyboard-response","6","111949","0.0-1.0-1.0","0","0","37765","","1500","","","32","","","","","","","","","","","","","","","","",""
"","S1","","html-keyboard-response","7","112100","0.0-1.0-2.0","0","0","37765","","null","","","null","0","","","","","","","","","","","","","","","",""
"","ISI","","html-keyboard-response","8","114102","0.0-1.0-3.0","0","0","37765","","null","","","null","0","NaN","","","","","","","","","","","","","","",""
"","S2","","html-keyboard-response","9","114253","0.0-1.0-4.0","0","0","37765","","null","","","null","0","","NaN","","","","","","","","","","","","","",""
"","response","","html-keyboard-response","10","114685","0.0-1.0-5.0-0.0","0","0","37765","","432","","","68","0","","","1","0","training","adjacent","AB","1","2","P.jpg","M.jpg","0","1","0","",""
"","feedback","","html-keyboard-response","11","115686","0.0-1.0-6.0-0.0","0","0","37765","","null","","","null","0","","","","","","","","","","","","","","","",""
"","time_out","","html-keyboard-response","12","117688","0.0-1.0-8.0-0.0","0","0","37765","","null","","","null","0","","","","","","","","","","","","","","","",""
"","ITI","","html-keyboard-response","13","118689","0.0-1.0-9.0","0","0","37765","","null","","","null","0","","","","","","","","","","","","","","","NaN",""
"","S1","","html-keyboard-response","14","118840","0.0-1.0-11.0","0","0","37765","","null","","","null","1","","","","","","","","","","","","","","","",""
"","ISI","","html-keyboard-response","15","120842","0.0-1.0-12.0","0","0","37765","","68","","","75","1","k","","","","","","","","","","","","","","",""
"","S2","","html-keyboard-response","16","121007","0.0-1.0-13.0","0","0","37765","","null","","","null","1","","NaN","","","","","","","","","","","","","",""
"","response","","html-keyboard-response","17","121077","0.0-1.0-14.0-0.0","0","0","37765","","70","","","75","1","","","1","1","training","adjacent","AB","1","2","P.jpg","M.jpg","1","1","1","",""
"","feedback","","html-keyboard-response","18","122079","0.0-1.0-15.0-0.0","0","0","37765","","null","","","null","1","","","","","","","","","","","","","","","",""
"","ITI","","html-keyboard-response","19","123081","0.0-1.0-18.0","0","0","37765","","null","","","null","1","","","","","","","","","","","","","","","NaN",""
"","S1","","html-keyboard-response","20","123233","0.0-1.0-20.0","0","0","37765","","null","","","null","2","","","","","","","","","","","","","","","",""
"","ISI","","html-keyboard-response","21","125234","0.0-1.0-21.0","0","0","37765","","null","","","null","2","NaN","","","","","","","","","","","","","","",""
"","S2","","html-keyboard-response","22","125385","0.0-1.0-22.0","0","0","37765","","null","","","null","2","","NaN","","","","","","","","","","","","","",""
"","response","","html-keyboard-response","23","126357","0.0-1.0-23.0-0.0","0","0","37765","","971","","","75","2","","","1","2","training","adjacent","CB","3","2","R.jpg","M.jpg","1","0","0","",""
"","feedback","","html-keyboard-response","24","127359","0.0-1.0-24.0-0.0","0","0","37765","","null","","","null","2","","","","","","","","","","","","","","","",""
"","time_out","","html-keyboard-response","25","129361","0.0-1.0-26.0-0.0","0","0","37765","","null","","","null","2","","","","","","","","","","","","","","","",""
"","ITI","","html-keyboard-response","26","130362","0.0-1.0-27.0","0","0","37765","","null","","","null","2","","","","","","","","","","","","","","","NaN",""
"","S1","","html-keyboard-response","27","130513","0.0-1.0-29.0","0","0","37765","","null","","","null","3","","","","","","","","","","","","","","","",""
"","ISI","","html-keyboard-response","28","132515","0.0-1.0-30.0","0","0","37765","","null","","","null","3","NaN","","","","","","","","","","","","","","",""
"","S2","","html-keyboard-response","29","132667","0.0-1.0-31.0","0","0","37765","","null","","","null","3","","NaN","","","","","","","","","","","","","",""
"","response","","html-keyboard-response","30","133061","0.0-1.0-32.0-0.0","0","0","37765","","394","","","68","3","","","1","3","training","adjacent","GF","7","6","L.jpg","Q.jpg","0","0","1","",""
"","feedback","","html-keyboard-response","31","134063","0.0-1.0-33.0-0.0","0","0","37765","","null","","","null","3","","","","","","","","","","","","","","","",""
"","ITI","","html-keyboard-response","32","135065","0.0-1.0-36.0","0","0","37765","","null","","","null","3","","","","","","","","","","","","","","","NaN",""
"","S1","","html-keyboard-response","33","135217","0.0-1.0-38.0","0","0","37765","","null","","","null","4","","","","","","","","","","","","","","","",""
"","ISI","","html-keyboard-response","34","137219","0.0-1.0-39.0","0","0","37765","","null","","","null","4","NaN","","","","","","","","","","","","","","",""
"","S2","","html-keyboard-response","35","137370","0.0-1.0-40.0","0","0","37765","","null","","","null","4","","NaN","","","","","","","","","","","","","",""
"","response","","html-keyboard-response","36","137894","0.0-1.0-41.0-0.0","0","0","37765","","523","","","68","4","","","1","4","training","adjacent","DC","4","3","N.jpg","R.jpg","0","0","1","",""
"","feedback","","html-keyboard-response","37","138895","0.0-1.0-42.0-0.0","0","0","37765","","null","","","null","4","","","","","","","","","","","","","","","",""
"","ITI","","html-keyboard-response","38","139897","0.0-1.0-45.0","0","0","37765","","null","","","null","4","","","","","","","","","","","","","","","NaN",""
"","S1","","html-keyboard-response","39","140048","0.0-1.0-47.0","0","0","37765","","null","","","null","5","","","","","","","","","","","","","","","",""
"","ISI","","html-keyboard-response","40","142050","0.0-1.0-48.0","0","0","37765","","null","","","null","5","NaN","","","","","","","","","","","","","","",""
"","S2","","html-keyboard-response","41","142201","0.0-1.0-49.0","0","0","37765","","null","","","null","5","","NaN","","","","","","","","","","","","","",""
"","response","","html-keyboard-response","42","142797","0.0-1.0-50.0-0.0","0","0","37765","","595","","","68","5","","","1","5","training","adjacent","CB","3","2","R.jpg","M.jpg","0","0","1","",""
"","feedback","","html-keyboard-response","43","143799","0.0-1.0-51.0-0.0","0","0","37765","","null","","","null","5","","","","","","","","","","","","","","","",""
"","ITI","","html-keyboard-response","44","144801","0.0-1.0-54.0","0","0","37765","","null","","","null","5","","","","","","","","","","","","","","","NaN",""
"","S1","","html-keyboard-response","45","144953","0.0-1.0-56.0","0","0","37765","","null","","","null","6","","","","","","","","","","","","","","","",""
"","ISI","","html-keyboard-response","46","146954","0.0-1.0-57.0","0","0","37765","","null","","","null","6","NaN","","","","","","","","","","","","","","",""
"","S2","","html-keyboard-response","47","147106","0.0-1.0-58.0","0","0","37765","","null","","","null","6","","NaN","","","","","","","","","","","","","",""
"","response","","html-keyboard-response","48","148430","0.0-1.0-59.0-0.0","0","0","37765","","1322","","","75","6","","","1","6","training","adjacent","DE","4","5","N.jpg","O.jpg","1","1","1","",""
"","feedback","","html-keyboard-response","49","149432","0.0-1.0-60.0-0.0","0","0","37765","","null","","","null","6","","","","","","","","","","","","","","","",""
"","ITI","","html-keyboard-response","50","150433","0.0-1.0-63.0","0","0","37765","","null","","","null","6","","","","","","","","","","","","","","","NaN",""
"","S1","","html-keyboard-response","51","150585","0.0-1.0-65.0","0","0","37765","","null","","","null","7","","","","","","","","","","","","","","","",""
"","ISI","","html-keyboard-response","52","152587","0.0-1.0-66.0","0","0","37765","","null","","","null","7","NaN","","","","","","","","","","","","","","",""
"","S2","","html-keyboard-response","53","152738","0.0-1.0-67.0","0","0","37765","","null","","","null","7","","NaN","","","","","","","","","","","","","",""
"","response","","html-keyboard-response","54","154589","0.0-1.0-68.0-0.0","0","0","37765","","null","","","null","7","","","1","7","training","adjacent","FE","6","5","Q.jpg","O.jpg","NaN","0","0","",""
"","too_slow_prompt","","html-keyboard-response","55","155591","0.0-1.0-70.0-0.0","1","0","37765","","null","","","null","","","","","","","","","","","","","","","","",""
"","time_out","","html-keyboard-response","56","157592","0.0-1.0-71.0-0.0","0","0","37765","","null","","","null","7","","","","","","","","","","","","","","","",""
"","ITI","","html-keyboard-response","57","158594","0.0-1.0-72.0","0","0","37765","","null","","","null","7","","","","","","","","","","","","","","","NaN",""
"","S1","","html-keyboard-response","58","158746","0.0-1.0-74.0","0","0","37765","","null","","","null","8","","","","","","","","","","","","","","","",""
"","ISI","","html-keyboard-response","59","160747","0.0-1.0-75.0","0","0","37765","","null","","","null","8","NaN","","","","","","","","","","","","","","",""
"","S2","","html-keyboard-response","60","160898","0.0-1.0-76.0","0","0","37765","","null","","","null","8","","NaN","","","","","","","","","","","","","",""
"","response","","html-keyboard-response","61","161525","0.0-1.0-77.0-0.0","0","0","37765","","626","","","68","8","","","1","8","training","adjacent","FG","6","7","Q.jpg","L.jpg","0","1","0","",""
"","feedback","","html-keyboard-response","62","162528","0.0-1.0-78.0-0.0","0","0","37765","","null","","","null","8","","","","","","","","","","","","","","","",""
"","time_out","","html-keyboard-response","63","164530","0.0-1.0-80.0-0.0","0","0","37765","","null","","","null","8","","","","","","","","","","","","","","","",""
"","ITI","","html-keyboard-response","64","165531","0.0-1.0-81.0","0","0","37765","","null","","","null","8","","","","","","","","","","","","","","","NaN",""
"","S1","","html-keyboard-response","65","165682","0.0-1.0-83.0","0","0","37765","","null","","","null","9","","","","","","","","","","","","","","","",""
"","ISI","","html-keyboard-response","66","167684","0.0-1.0-84.0","0","0","37765","","null","","","null","9","NaN","","","","","","","","","","","","","","",""
"","S2","","html-keyboard-response","67","167841","0.0-1.0-85.0","0","0","37765","","null","","","null","9","","NaN","","","","","","","","","","","","","",""
"","response","","html-keyboard-response","68","168029","0.0-1.0-86.0-0.0","0","0","37765","","188","","","75","9","","","1","9","training","adjacent","BA","2","1","M.jpg","P.jpg","1","0","0","",""
"","feedback","","html-keyboard-response","69","169031","0.0-1.0-87.0-0.0","0","0","37765","","null","","","null","9","","","","","","","","","","","","","","","",""
"","time_out","","html-keyboard-response","70","171032","0.0-1.0-89.0-0.0","0","0","37765","","null","","","null","9","","","","","","","","","","","","","","","",""
"","ITI","","html-keyboard-response","71","172034","0.0-1.0-90.0","0","0","37765","","null","","","null","9","","","","","","","","","","","","","","","NaN",""
"","S1","","html-keyboard-response","72","172185","0.0-1.0-92.0","0","0","37765","","null","","","null","10","","","","","","","","","","","","","","","",""
"","ISI","","html-keyboard-response","73","174187","0.0-1.0-93.0","0","0","37765","","null","","","null","10","NaN","","","","","","","","","","","","","","",""
"","S2","","html-keyboard-response","74","174338","0.0-1.0-94.0","0","0","37765","","null","","","null","10","","NaN","","","","","","","","","","","","","",""
"","response","","html-keyboard-response","75","174702","0.0-1.0-95.0-0.0","0","0","37765","","363","","","68","10","","","1","10","training","adjacent","GF","7","6","L.jpg","Q.jpg","0","0","1","",""
"","feedback","","html-keyboard-response","76","175703","0.0-1.0-96.0-0.0","0","0","37765","","null","","","null","10","","","","","","","","","","","","","","","",""
"","ITI","","html-keyboard-response","77","176704","0.0-1.0-99.0","0","0","37765","","null","","","null","10","","","","","","","","","","","","","","","NaN",""
"","S1","","html-keyboard-response","78","176857","0.0-1.0-101.0","0","0","37765","","null","","","null","11","","","","","","","","","","","","","","","",""
"","ISI","","html-keyboard-response","79","178859","0.0-1.0-102.0","0","0","37765","","null","","","null","11","NaN","","","","","","","","","","","","","","",""
"","S2","","html-keyboard-response","80","179010","0.0-1.0-103.0","0","0","37765","","null","","","null","11","","NaN","","","","","","","","","","","","","",""
"","response","","html-keyboard-response","81","179405","0.0-1.0-104.0-0.0","0","0","37765","","395","","","68","11","","","1","11","training","adjacent","BA","2","1","M.jpg","P.jpg","0","0","1","",""
"","feedback","","html-keyboard-response","82","180406","0.0-1.0-105.0-0.0","0","0","37765","","null","","","null","11","","","","","","","","","","","","","","","",""
"","ITI","","html-keyboard-response","83","181408","0.0-1.0-108.0","0","0","37765","","null","","","null","11","","","","","","","","","","","","","","","NaN",""
"","S1","","html-keyboard-response","84","181559","0.0-1.0-110.0","0","0","37765","","null","","","null","12","","","","","","","","","","","","","","","",""
"","ISI","","html-keyboard-response","85","183561","0.0-1.0-111.0","0","0","37765","","null","","","null","12","NaN","","","","","","","","","","","","","","",""
"","S2","","html-keyboard-response","86","183712","0.0-1.0-112.0","0","0","37765","","null","","","null","12","","NaN","","","","","","","","","","","","","",""
"","response","","html-keyboard-response","87","184093","0.0-1.0-113.0-0.0","0","0","37765","","381","","","68","12","","","1","12","training","adjacent","FG","6","7","Q.jpg","L.jpg","0","1","0","",""
"","feedback","","html-keyboard-response","88","185095","0.0-1.0-114.0-0.0","0","0","37765","","null","","","null","12","","","","","","","","","","","","","","","",""
"","time_out","","html-keyboard-response","89","187097","0.0-1.0-116.0-0.0","0","0","37765","","null","","","null","12","","","","","","","","","","","","","","","",""
"","ITI","","html-keyboard-response","90","188098","0.0-1.0-117.0","0","0","37765","","null","","","null","12","","","","","","","","","","","","","","","NaN",""
"","S1","","html-keyboard-response","91","188249","0.0-1.0-119.0","0","0","37765","","null","","","null","13","","","","","","","","","","","","","","","",""
"","ISI","","html-keyboard-response","92","190250","0.0-1.0-120.0","0","0","37765","","null","","","null","13","NaN","","","","","","","","","","","","","","",""
"","S2","","html-keyboard-response","93","190403","0.0-1.0-121.0","0","0","37765","","null","","","null","13","","NaN","","","","","","","","","","","","","",""
"","response","","html-keyboard-response","94","190581","0.0-1.0-122.0-0.0","0","0","37765","","178","","","75","13","","","1","13","training","adjacent","GF","7","6","L.jpg","Q.jpg","1","0","0","",""
"","feedback","","html-keyboard-response","95","191583","0.0-1.0-123.0-0.0","0","0","37765","","null","","","null","13","","","","","","","","","","","","","","","",""
"","time_out","","html-keyboard-response","96","193585","0.0-1.0-125.0-0.0","0","0","37765","","null","","","null","13","","","","","","","","","","","","","","","",""
"","ITI","","html-keyboard-response","97","194586","0.0-1.0-126.0","0","0","37765","","null","","","null","13","","","","","","","","","","","","","","","NaN",""
"","S1","","html-keyboard-response","98","194738","0.0-1.0-128.0","0","0","37765","","null","","","null","14","","","","","","","","","","","","","","","",""
"","ISI","","html-keyboard-response","99","196739","0.0-1.0-129.0","0","0","37765","","null","","","null","14","NaN","","","","","","","","","","","","","","",""
"","S2","","html-keyboard-response","100","196891","0.0-1.0-130.0","0","0","37765","","null","","","null","14","","NaN","","","","","","","","","","","","","",""
"","response","","html-keyboard-response","101","197349","0.0-1.0-131.0-0.0","0","0","37765","","458","","","68","14","","","1","14","training","adjacent","CD","3","4","R.jpg","N.jpg","0","1","0","",""
"","feedback","","html-keyboard-response","102","198351","0.0-1.0-132.0-0.0","0","0","37765","","null","","","null","14","","","","","","","","","","","","","","","",""
"","time_out","","html-keyboard-response","103","200352","0.0-1.0-134.0-0.0","0","0","37765","","null","","","null","14","","","","","","","","","","","","","","","",""
"","ITI","","html-keyboard-response","104","201353","0.0-1.0-135.0","0","0","37765","","null","","","null","14","","","","","","","","","","","","","","","NaN",""
"","S1","","html-keyboard-response","105","201506","0.0-1.0-137.0","0","0","37765","","null","","","null","15","","","","","","","","","","","","","","","",""
"","ISI","","html-keyboard-response","106","203507","0.0-1.0-138.0","0","0","37765","","null","","","null","15","NaN","","","","","","","","","","","","","","",""
"","S2","","html-keyboard-response","107","203658","0.0-1.0-139.0","0","0","37765","","null","","","null","15","","NaN","","","","","","","","","","","","","",""
"","response","","html-keyboard-response","108","204413","0.0-1.0-140.0-0.0","0","0","37765","","754","","","75","15","","","1","15","training","adjacent","FG","6","7","Q.jpg","L.jpg","1","1","1","",""
"","feedback","","html-keyboard-response","109","205415","0.0-1.0-141.0-0.0","0","0","37765","","null","","","null","15","","","","","","","","","","","","","","","",""
"","ITI","","html-keyboard-response","110","206417","0.0-1.0-144.0","0","0","37765","","null","","","null","15","","","","","","","","","","","","","","","NaN",""
"","S1","","html-keyboard-response","111","206568","0.0-1.0-146.0","0","0","37765","","null","","","null","16","","","","","","","","","","","","","","","",""
"","ISI","","html-keyboard-response","112","208569","0.0-1.0-147.0","0","0","37765","","null","","","null","16","NaN","","","","","","","","","","","","","","",""
"","S2","","html-keyboard-response","113","208720","0.0-1.0-148.0","0","0","37765","","null","","","null","16","","NaN","","","","","","","","","","","","","",""
"","response","","html-keyboard-response","114","210572","0.0-1.0-149.0-0.0","0","0","37765","","null","","","null","16","","","1","16","training","adjacent","EF","5","6","O.jpg","Q.jpg","NaN","1","0","",""
"","too_slow_prompt","","html-keyboard-response","115","211574","0.0-1.0-151.0-0.0","1","0","37765","","null","","","null","","","","","","","","","","","","","","","","",""
"","time_out","","html-keyboard-response","116","213587","0.0-1.0-152.0-0.0","0","0","37765","","null","","","null","16","","","","","","","","","","","","","","","",""
"","ITI","","html-keyboard-response","117","214589","0.0-1.0-153.0","0","0","37765","","null","","","null","16","","","","","","","","","","","","","","","NaN",""
"","S1","","html-keyboard-response","118","214740","0.0-1.0-155.0","0","0","37765","","null","","","null","17","","","","","","","","","","","","","","","",""
"","ISI","","html-keyboard-response","119","216742","0.0-1.0-156.0","0","0","37765","","null","","","null","17","NaN","","","","","","","","","","","","","","",""
"","S2","","html-keyboard-response","120","216893","0.0-1.0-157.0","0","0","37765","","null","","","null","17","","NaN","","","","","","","","","","","","","",""
"","response","","html-keyboard-response","121","217013","0.0-1.0-158.0-0.0","0","0","37765","","120","","","75","17","","","1","17","training","adjacent","ED","5","4","O.jpg","N.jpg","1","0","0","",""
"","feedback","","html-keyboard-response","122","218015","0.0-1.0-159.0-0.0","0","0","37765","","null","","","null","17","","","","","","","","","","","","","","","",""
"","time_out","","html-keyboard-response","123","220016","0.0-1.0-161.0-0.0","0","0","37765","","null","","","null","17","","","","","","","","","","","","","","","",""
"","ITI","","html-keyboard-response","124","221019","0.0-1.0-162.0","0","0","37765","","null","","","null","17","","","","","","","","","","","","","","","NaN",""
"","S1","","html-keyboard-response","125","221170","0.0-1.0-164.0","0","0","37765","","null","","","null","18","","","","","","","","","","","","","","","",""
"","ISI","","html-keyboard-response","126","223172","0.0-1.0-165.0","0","0","37765","","null","","","null","18","NaN","","","","","","","","","","","","","","",""
"","S2","","html-keyboard-response","127","223323","0.0-1.0-166.0","0","0","37765","","null","","","null","18","","NaN","","","","","","","","","","","","","",""
"","response","","html-keyboard-response","128","223461","0.0-1.0-167.0-0.0","0","0","37765","","137","","","68","18","","","1","18","training","adjacent","BC","2","3","M.jpg","R.jpg","0","1","0","",""
"","feedback","","html-keyboard-response","129","224463","0.0-1.0-168.0-0.0","0","0","37765","","null","","","null","18","","","","","","","","","","","","","","","",""
"","time_out","","html-keyboard-response","130","226464","0.0-1.0-170.0-0.0","0","0","37765","","null","","","null","18","","","","","","","","","","","","","","","",""
"","ITI","","html-keyboard-response","131","227466","0.0-1.0-171.0","0","0","37765","","null","","","null","18","","","","","","","","","","","","","","","NaN",""
"","S1","","html-keyboard-response","132","227618","0.0-1.0-173.0","0","0","37765","","null","","","null","19","","","","","","","","","","","","","","","",""
"","ISI","","html-keyboard-response","133","229620","0.0-1.0-174.0","0","0","37765","","null","","","null","19","NaN","","","","","","","","","","","","","","",""
"","S2","","html-keyboard-response","134","229771","0.0-1.0-175.0","0","0","37765","","null","","","null","19","","NaN","","","","","","","","","","","","","",""
"","response","","html-keyboard-response","135","230181","0.0-1.0-176.0-0.0","0","0","37765","","410","","","75","19","","","1","19","training","adjacent","GF","7","6","L.jpg","Q.jpg","1","0","0","",""
"","feedback","","html-keyboard-response","136","231183","0.0-1.0-177.0-0.0","0","0","37765","","null","","","null","19","","","","","","","","","","","","","","","",""
"","time_out","","html-keyboard-response","137","233185","0.0-1.0-179.0-0.0","0","0","37765","","null","","","null","19","","","","","","","","","","","","","","","",""
"","ITI","","html-keyboard-response","138","234186","0.0-1.0-180.0","0","0","37765","","null","","","null","19","","","","","","","","","","","","","","","NaN",""
"","S1","","html-keyboard-response","139","234338","0.0-1.0-182.0","0","0","37765","","null","","","null","20","","","","","","","","","","","","","","","",""
"","ISI","","html-keyboard-response","140","236339","0.0-1.0-183.0","0","0","37765","","null","","","null","20","NaN","","","","","","","","","","","","","","",""
"","S2","","html-keyboard-response","141","236491","0.0-1.0-184.0","0","0","37765","","null","","","null","20","","NaN","","","","","","","","","","","","","",""
"","response","","html-keyboard-response","142","236869","0.0-1.0-185.0-0.0","0","0","37765","","378","","","68","20","","","1","20","training","adjacent","BA","2","1","M.jpg","P.jpg","0","0","1","",""
"","feedback","","html-keyboard-response","143","237872","0.0-1.0-186.0-0.0","0","0","37765","","null","","","null","20","","","","","","","","","","","","","","","",""
"","ITI","","html-keyboard-response","144","238874","0.0-1.0-189.0","0","0","37765","","null","","","null","20","","","","","","","","","","","","","","","NaN",""
"","S1","","html-keyboard-response","145","239026","0.0-1.0-191.0","0","0","37765","","null","","","null","21","","","","","","","","","","","","","","","",""
"","ISI","","html-keyboard-response","146","241027","0.0-1.0-192.0","0","0","37765","","null","","","null","21","NaN","","","","","","","","","","","","","","",""
"","S2","","html-keyboard-response","147","241178","0.0-1.0-193.0","0","0","37765","","null","","","null","21","","NaN","","","","","","","","","","","","","",""
"","response","","html-keyboard-response","148","243030","0.0-1.0-194.0-0.0","0","0","37765","","null","","","null","21","","","1","21","training","adjacent","CB","3","2","R.jpg","M.jpg","NaN","0","0","",""
"","too_slow_prompt","","html-keyboard-response","149","244031","0.0-1.0-196.0-0.0","1","0","37765","","null","","","null","","","","","","","","","","","","","","","","",""
"","time_out","","html-keyboard-response","150","246032","0.0-1.0-197.0-0.0","0","0","37765","","null","","","null","21","","","","","","","","","","","","","","","",""
"","ITI","","html-keyboard-response","151","247034","0.0-1.0-198.0","0","0","37765","","null","","","null","21","","","","","","","","","","","","","","","NaN",""
"","S1","","html-keyboard-response","152","247185","0.0-1.0-200.0","0","0","37765","","null","","","null","22","","","","","","","","","","","","","","","",""
"","ISI","","html-keyboard-response","153","249187","0.0-1.0-201.0","0","0","37765","","null","","","null","22","NaN","","","","","","","","","","","","","","",""
"","S2","","html-keyboard-response","154","249338","0.0-1.0-202.0","0","0","37765","","null","","","null","22","","NaN","","","","","","","","","","","","","",""
"","response","","html-keyboard-response","155","249461","0.0-1.0-203.0-0.0","0","0","37765","","123","","","68","22","","","1","22","training","adjacent","AB","1","2","P.jpg","M.jpg","0","1","0","",""
"","feedback","","html-keyboard-response","156","250462","0.0-1.0-204.0-0.0","0","0","37765","","null","","","null","22","","","","","","","","","","","","","","","",""
"","time_out","","html-keyboard-response","157","252464","0.0-1.0-206.0-0.0","0","0","37765","","null","","","null","22","","","","","","","","","","","","","","","",""
"","ITI","","html-keyboard-response","158","253466","0.0-1.0-207.0","0","0","37765","","null","","","null","22","","","","","","","","","","","","","","","NaN",""
"","S1","","html-keyboard-response","159","253617","0.0-1.0-209.0","0","0","37765","","null","","","null","23","","","","","","","","","","","","","","","",""
"","ISI","","html-keyboard-response","160","255619","0.0-1.0-210.0","0","0","37765","","null","","","null","23","NaN","","","","","","","","","","","","","","",""
"","S2","","html-keyboard-response","161","255771","0.0-1.0-211.0","0","0","37765","","null","","","null","23","","NaN","","","","","","","","","","","","","",""
"","response","","html-keyboard-response","162","255909","0.0-1.0-212.0-0.0","0","0","37765","","138","","","75","23","","","1","23","training","adjacent","FE","6","5","Q.jpg","O.jpg","1","0","0","",""
"","feedback","","html-keyboard-response","163","256911","0.0-1.0-213.0-0.0","0","0","37765","","null","","","null","23","","","","","","","","","","","","","","","",""
"","time_out","","html-keyboard-response","164","258912","0.0-1.0-215.0-0.0","0","0","37765","","null","","","null","23","","","","","","","","","","","","","","","",""
"","ITI","","html-keyboard-response","165","259913","0.0-1.0-216.0","0","0","37765","","null","","","null","23","","","","","","","","","","","","","","","NaN",""
"","S1","","html-keyboard-response","166","260065","0.0-1.0-218.0","0","0","37765","","null","","","null","24","","","","","","","","","","","","","","","",""
"","ISI","","html-keyboard-response","167","262067","0.0-1.0-219.0","0","0","37765","","179","","","68","24","d","","","","","","","","","","","","","","",""
"","S2","","html-keyboard-response","168","262217","0.0-1.0-220.0","0","0","37765","","null","","","null","24","","NaN","","","","","","","","","","","","","",""
"","response","","html-keyboard-response","169","262501","0.0-1.0-221.0-0.0","0","0","37765","","283","","","68","24","","","1","24","training","adjacent","EF","5","6","O.jpg","Q.jpg","0","1","0","",""
"","feedback","","html-keyboard-response","170","263503","0.0-1.0-222.0-0.0","0","0","37765","","null","","","null","24","","","","","","","","","","","","","","","",""
"","time_out","","html-keyboard-response","171","265505","0.0-1.0-224.0-0.0","0","0","37765","","null","","","null","24","","","","","","","","","","","","","","","",""
"","ITI","","html-keyboard-response","172","266507","0.0-1.0-225.0","0","0","37765","","null","","","null","24","","","","","","","","","","","","","","","NaN",""
"","S1","","html-keyboard-response","173","266658","0.0-1.0-227.0","0","0","37765","","null","","","null","25","","","","","","","","","","","","","","","",""
"","ISI","","html-keyboard-response","174","268660","0.0-1.0-228.0","0","0","37765","","null","","","null","25","NaN","","","","","","","","","","","","","","",""
"","S2","","html-keyboard-response","175","268811","0.0-1.0-229.0","0","0","37765","","null","","","null","25","","NaN","","","","","","","","","","","","","",""
"","response","","html-keyboard-response","176","269197","0.0-1.0-230.0-0.0","0","0","37765","","385","","","68","25","","","1","25","training","adjacent","AB","1","2","P.jpg","M.jpg","0","1","0","",""
"","feedback","","html-keyboard-response","177","270199","0.0-1.0-231.0-0.0","0","0","37765","","null","","","null","25","","","","","","","","","","","","","","","",""
"","time_out","","html-keyboard-response","178","272200","0.0-1.0-233.0-0.0","0","0","37765","","null","","","null","25","","","","","","","","","","","","","","","",""
"","ITI","","html-keyboard-response","179","273202","0.0-1.0-234.0","0","0","37765","","null","","","null","25","","","","","","","","","","","","","","","NaN",""
"","S1","","html-keyboard-response","180","273353","0.0-1.0-236.0","0","0","37765","","null","","","null","26","","","","","","","","","","","","","","","",""
"","ISI","","html-keyboard-response","181","275354","0.0-1.0-237.0","0","0","37765","","null","","","null","26","NaN","","","","","","","","","","","","","","",""
"","S2","","html-keyboard-response","182","275506","0.0-1.0-238.0","0","0","37765","","null","","","null","26","","NaN","","","","","","","","","","","","","",""
"","response","","html-keyboard-response","183","275965","0.0-1.0-239.0-0.0","0","0","37765","","459","","","75","26","","","1","26","training","adjacent","DE","4","5","N.jpg","O.jpg","1","1","1","",""
"","feedback","","html-keyboard-response","184","276967","0.0-1.0-240.0-0.0","0","0","37765","","null","","","null","26","","","","","","","","","","","","","","","",""
"","ITI","","html-keyboard-response","185","277968","0.0-1.0-243.0","0","0","37765","","null","","","null","26","","","","","","","","","","","","","","","NaN",""
"","S1","","html-keyboard-response","186","278119","0.0-1.0-245.0","0","0","37765","","null","","","null","27","","","","","","","","","","","","","","","",""
"","ISI","","html-keyboard-response","187","280120","0.0-1.0-246.0","0","0","37765","","null","","","null","27","NaN","","","","","","","","","","","","","","",""
"","S2","","html-keyboard-response","188","280271","0.0-1.0-247.0","0","0","37765","","null","","","null","27","","NaN","","","","","","","","","","","","","",""
"","response","","html-keyboard-response","189","280741","0.0-1.0-248.0-0.0","0","0","37765","","469","","","75","27","","","1","27","training","adjacent","ED","5","4","O.jpg","N.jpg","1","0","0","",""
"","feedback","","html-keyboard-response","190","281742","0.0-1.0-249.0-0.0","0","0","37765","","null","","","null","27","","","","","","","","","","","","","","","",""
"","time_out","","html-keyboard-response","191","283744","0.0-1.0-251.0-0.0","0","0","37765","","null","","","null","27","","","","","","","","","","","","","","","",""
"","ITI","","html-keyboard-response","192","284745","0.0-1.0-252.0","0","0","37765","","null","","","null","27","","","","","","","","","","","","","","","NaN",""
"","S1","","html-keyboard-response","193","284897","0.0-1.0-254.0","0","0","37765","","null","","","null","28","","","","","","","","","","","","","","","",""
"","ISI","","html-keyboard-response","194","286899","0.0-1.0-255.0","0","0","37765","","null","","","null","28","NaN","","","","","","","","","","","","","","",""
"","S2","","html-keyboard-response","195","287051","0.0-1.0-256.0","0","0","37765","","null","","","null","28","","NaN","","","","","","","","","","","","","",""
"","response","","html-keyboard-response","196","287189","0.0-1.0-257.0-0.0","0","0","37765","","137","","","75","28","","","1","28","training","adjacent","CB","3","2","R.jpg","M.jpg","1","0","0","",""
"","feedback","","html-keyboard-response","197","288190","0.0-1.0-258.0-0.0","0","0","37765","","null","","","null","28","","","","","","","","","","","","","","","",""
"","time_out","","html-keyboard-response","198","290192","0.0-1.0-260.0-0.0","0","0","37765","","null","","","null","28","","","","","","","","","","","","","","","",""
"","ITI","","html-keyboard-response","199","291193","0.0-1.0-261.0","0","0","37765","","null","","","null","28","","","","","","","","","","","","","","","NaN",""
"","S1","","html-keyboard-response","200","291359","0.0-1.0-263.0","0","0","37765","","null","","","null","29","","","","","","","","","","","","","","","",""
"","ISI","","html-keyboard-response","201","293361","0.0-1.0-264.0","0","0","37765","","null","","","null","29","NaN","","","","","","","","","","","","","","",""
"","S2","","html-keyboard-response","202","293512","0.0-1.0-265.0","0","0","37765","","null","","","null","29","","NaN","","","","","","","","","","","","","",""
"","response","","html-keyboard-response","203","293901","0.0-1.0-266.0-0.0","0","0","37765","","389","","","75","29","","","1","29","training","adjacent","BC","2","3","M.jpg","R.jpg","1","1","1","",""
"","feedback","","html-keyboard-response","204","294903","0.0-1.0-267.0-0.0","0","0","37765","","null","","","null","29","","","","","","","","","","","","","","","",""
"","ITI","","html-keyboard-response","205","295905","0.0-1.0-270.0","0","0","37765","","null","","","null","29","","","","","","","","","","","","","","","NaN",""
"","S1","","html-keyboard-response","206","296056","0.0-1.0-272.0","0","0","37765","","null","","","null","30","","","","","","","","","","","","","","","",""
"","ISI","","html-keyboard-response","207","298058","0.0-1.0-273.0","0","0","37765","","null","","","null","30","NaN","","","","","","","","","","","","","","",""
"","S2","","html-keyboard-response","208","298210","0.0-1.0-274.0","0","0","37765","","null","","","null","30","","NaN","","","","","","","","","","","","","",""
"","response","","html-keyboard-response","209","298717","0.0-1.0-275.0-0.0","0","0","37765","","506","","","75","30","","","1","30","training","adjacent","FG","6","7","Q.jpg","L.jpg","1","1","1","",""
"","feedback","","html-keyboard-response","210","299718","0.0-1.0-276.0-0.0","0","0","37765","","null","","","null","30","","","","","","","","","","","","","","","",""
"","ITI","","html-keyboard-response","211","300720","0.0-1.0-279.0","0","0","37765","","null","","","null","30","","","","","","","","","","","","","","","NaN",""
"","S1","","html-keyboard-response","212","300872","0.0-1.0-281.0","0","0","37765","","null","","","null","31","","","","","","","","","","","","","","","",""
"","ISI","","html-keyboard-response","213","302874","0.0-1.0-282.0","0","0","37765","","null","","","null","31","NaN","","","","","","","","","","","","","","",""
"","S2","","html-keyboard-response","214","303025","0.0-1.0-283.0","0","0","37765","","null","","","null","31","","NaN","","","","","","","","","","","","","",""
"","response","","html-keyboard-response","215","303533","0.0-1.0-284.0-0.0","0","0","37765","","507","","","68","31","","","1","31","training","adjacent","BA","2","1","M.jpg","P.jpg","0","0","1","",""
"","feedback","","html-keyboard-response","216","304535","0.0-1.0-285.0-0.0","0","0","37765","","null","","","null","31","","","","","","","","","","","","","","","",""
"","ITI","","html-keyboard-response","217","305537","0.0-1.0-288.0","0","0","37765","","null","","","null","31","","","","","","","","","","","","","","","NaN",""
"","S1","","html-keyboard-response","218","305688","0.0-1.0-290.0","0","0","37765","","null","","","null","32","","","","","","","","","","","","","","","",""
"","ISI","","html-keyboard-response","219","307689","0.0-1.0-291.0","0","0","37765","","null","","","null","32","NaN","","","","","","","","","","","","","","",""
"","S2","","html-keyboard-response","220","307841","0.0-1.0-292.0","0","0","37765","","null","","","null","32","","NaN","","","","","","","","","","","","","",""
"","response","","html-keyboard-response","221","308389","0.0-1.0-293.0-0.0","0","0","37765","","547","","","68","32","","","1","32","training","adjacent","CD","3","4","R.jpg","N.jpg","0","1","0","",""
"","feedback","","html-keyboard-response","222","309390","0.0-1.0-294.0-0.0","0","0","37765","","null","","","null","32","","","","","","","","","","","","","","","",""
"","time_out","","html-keyboard-response","223","311391","0.0-1.0-296.0-0.0","0","0","37765","","null","","","null","32","","","","","","","","","","","","","","","",""
"","ITI","","html-keyboard-response","224","312392","0.0-1.0-297.0","0","0","37765","","null","","","null","32","","","","","","","","","","","","","","","NaN",""
"","S1","","html-keyboard-response","225","312546","0.0-1.0-299.0","0","0","37765","","null","","","null","33","","","","","","","","","","","","","","","",""
"","ISI","","html-keyboard-response","226","314547","0.0-1.0-300.0","0","0","37765","","null","","","null","33","NaN","","","","","","","","","","","","","","",""
"","S2","","html-keyboard-response","227","314698","0.0-1.0-301.0","0","0","37765","","null","","","null","33","","NaN","","","","","","","","","","","","","",""
"","response","","html-keyboard-response","228","315181","0.0-1.0-302.0-0.0","0","0","37765","","482","","","68","33","","","1","33","training","adjacent","ED","5","4","O.jpg","N.jpg","0","0","1","",""
"","feedback","","html-keyboard-response","229","316183","0.0-1.0-303.0-0.0","0","0","37765","","null","","","null","33","","","","","","","","","","","","","","","",""
"","ITI","","html-keyboard-response","230","317184","0.0-1.0-306.0","0","0","37765","","null","","","null","33","","","","","","","","","","","","","","","NaN",""
"","S1","","html-keyboard-response","231","317349","0.0-1.0-308.0","0","0","37765","","null","","","null","34","","","","","","","","","","","","","","","",""
"","ISI","","html-keyboard-response","232","319351","0.0-1.0-309.0","0","0","37765","","null","","","null","34","NaN","","","","","","","","","","","","","","",""
"","S2","","html-keyboard-response","233","319502","0.0-1.0-310.0","0","0","37765","","null","","","null","34","","NaN","","","","","","","","","","","","","",""
"","response","","html-keyboard-response","234","320181","0.0-1.0-311.0-0.0","0","0","37765","","677","","","75","34","","","1","34","training","adjacent","BC","2","3","M.jpg","R.jpg","1","1","1","",""
"","feedback","","html-keyboard-response","235","321183","0.0-1.0-312.0-0.0","0","0","37765","","null","","","null","34","","","","","","","","","","","","","","","",""
"","ITI","","html-keyboard-response","236","322184","0.0-1.0-315.0","0","0","37765","","null","","","null","34","","","","","","","","","","","","","","","NaN",""
"","S1","","html-keyboard-response","237","322336","0.0-1.0-317.0","0","0","37765","","null","","","null","35","","","","","","","","","","","","","","","",""
"","ISI","","html-keyboard-response","238","324337","0.0-1.0-318.0","0","0","37765","","null","","","null","35","NaN","","","","","","","","","","","","","","",""
"","S2","","html-keyboard-response","239","324488","0.0-1.0-319.0","0","0","37765","","null","","","null","35","","NaN","","","","","","","","","","","","","",""
"","response","","html-keyboard-response","240","325245","0.0-1.0-320.0-0.0","0","0","37765","","756","","","68","35","","","1","35","training","adjacent","BC","2","3","M.jpg","R.jpg","0","1","0","",""
"","feedback","","html-keyboard-response","241","326246","0.0-1.0-321.0-0.0","0","0","37765","","null","","","null","35","","","","","","","","","","","","","","","",""
"","time_out","","html-keyboard-response","242","328247","0.0-1.0-323.0-0.0","0","0","37765","","null","","","null","35","","","","","","","","","","","","","","","",""
"","ITI","","html-keyboard-response","243","329249","0.0-1.0-324.0","0","0","37765","","null","","","null","35","","","","","","","","","","","","","","","NaN",""
"","S1","","html-keyboard-response","244","329401","0.0-1.0-326.0","0","0","37765","","null","","","null","36","","","","","","","","","","","","","","","",""
"","ISI","","html-keyboard-response","245","331402","0.0-1.0-327.0","0","0","37765","","null","","","null","36","NaN","","","","","","","","","","","","","","",""
"","S2","","html-keyboard-response","246","331554","0.0-1.0-328.0","0","0","37765","","null","","","null","36","","NaN","","","","","","","","","","","","","",""
"","response","","html-keyboard-response","247","332005","0.0-1.0-329.0-0.0","0","0","37765","","450","","","75","36","","","1","36","training","adjacent","DC","4","3","N.jpg","R.jpg","1","0","0","",""
"","feedback","","html-keyboard-response","248","333007","0.0-1.0-330.0-0.0","0","0","37765","","null","","","null","36","","","","","","","","","","","","","","","",""
"","time_out","","html-keyboard-response","249","335009","0.0-1.0-332.0-0.0","0","0","37765","","null","","","null","36","","","","","","","","","","","","","","","",""
"","ITI","","html-keyboard-response","250","336010","0.0-1.0-333.0","0","0","37765","","null","","","null","36","","","","","","","","","","","","","","","NaN",""
"","S1","","html-keyboard-response","251","336162","0.0-1.0-335.0","0","0","37765","","null","","","null","37","","","","","","","","","","","","","","","",""
"","ISI","","html-keyboard-response","252","338163","0.0-1.0-336.0","0","0","37765","","null","","","null","37","NaN","","","","","","","","","","","","","","",""
"","S2","","html-keyboard-response","253","338325","0.0-1.0-337.0","0","0","37765","","null","","","null","37","","NaN","","","","","","","","","","","","","",""
"","response","","html-keyboard-response","254","339116","0.0-1.0-338.0-0.0","0","0","37765","","791","","","68","37","","","1","37","training","adjacent","DE","4","5","N.jpg","O.jpg","0","1","0","",""
"","feedback","","html-keyboard-response","255","340118","0.0-1.0-339.0-0.0","0","0","37765","","null","","","null","37","","","","","","","","","","","","","","","",""
"","time_out","","html-keyboard-response","256","342119","0.0-1.0-341.0-0.0","0","0","37765","","null","","","null","37","","","","","","","","","","","","","","","",""
"","ITI","","html-keyboard-response","257","343121","0.0-1.0-342.0","0","0","37765","","null","","","null","37","","","","","","","","","","","","","","","NaN",""
"","S1","","html-keyboard-response","258","343272","0.0-1.0-344.0","0","0","37765","","null","","","null","38","","","","","","","","","","","","","","","",""
"","ISI","","html-keyboard-response","259","345273","0.0-1.0-345.0","0","0","37765","","null","","","null","38","NaN","","","","","","","","","","","","","","",""
"","S2","","html-keyboard-response","260","345424","0.0-1.0-346.0","0","0","37765","","null","","","null","38","","NaN","","","","","","","","","","","","","",""
"","response","","html-keyboard-response","261","345853","0.0-1.0-347.0-0.0","0","0","37765","","428","","","75","38","","","1","38","training","adjacent","EF","5","6","O.jpg","Q.jpg","1","1","1","",""
"","feedback","","html-keyboard-response","262","346854","0.0-1.0-348.0-0.0","0","0","37765","","null","","","null","38","","","","","","","","","","","","","","","",""
"","ITI","","html-keyboard-response","263","347856","0.0-1.0-351.0","0","0","37765","","null","","","null","38","","","","","","","","","","","","","","","NaN",""
"","S1","","html-keyboard-response","264","348008","0.0-1.0-353.0","0","0","37765","","null","","","null","39","","","","","","","","","","","","","","","",""
"","ISI","","html-keyboard-response","265","350010","0.0-1.0-354.0","0","0","37765","","null","","","null","39","NaN","","","","","","","","","","","","","","",""
"","S2","","html-keyboard-response","266","350161","0.0-1.0-355.0","0","0","37765","","null","","","null","39","","NaN","","","","","","","","","","","","","",""
"","response","","html-keyboard-response","267","350925","0.0-1.0-356.0-0.0","0","0","37765","","762","","","75","39","","","1","39","training","adjacent","FE","6","5","Q.jpg","O.jpg","1","0","0","",""
"","feedback","","html-keyboard-response","268","351927","0.0-1.0-357.0-0.0","0","0","37765","","null","","","null","39","","","","","","","","","","","","","","","",""
"","time_out","","html-keyboard-response","269","353929","0.0-1.0-359.0-0.0","0","0","37765","","null","","","null","39","","","","","","","","","","","","","","","",""
"","ITI","","html-keyboard-response","270","354930","0.0-1.0-360.0","0","0","37765","","null","","","null","39","","","","","","","","","","","","","","","NaN",""
"","S1","","html-keyboard-response","271","355082","0.0-1.0-362.0","0","0","37765","","null","","","null","40","","","","","","","","","","","","","","","",""
"","ISI","","html-keyboard-response","272","357084","0.0-1.0-363.0","0","0","37765","","null","","","null","40","NaN","","","","","","","","","","","","","","",""
"","S2","","html-keyboard-response","273","357235","0.0-1.0-364.0","0","0","37765","","null","","","null","40","","NaN","","","","","","","","","","","","","",""
"","response","","html-keyboard-response","274","357669","0.0-1.0-365.0-0.0","0","0","37765","","433","","","68","40","","","1","40","training","adjacent","EF","5","6","O.jpg","Q.jpg","0","1","0","",""
"","feedback","","html-keyboard-response","275","358670","0.0-1.0-366.0-0.0","0","0","37765","","null","","","null","40","","","","","","","","","","","","","","","",""
"","time_out","","html-keyboard-response","276","360671","0.0-1.0-368.0-0.0","0","0","37765","","null","","","null","40","","","","","","","","","","","","","","","",""
"","ITI","","html-keyboard-response","277","361672","0.0-1.0-369.0","0","0","37765","","null","","","null","40","","","","","","","","","","","","","","","NaN",""
"","S1","","html-keyboard-response","278","361824","0.0-1.0-371.0","0","0","37765","","null","","","null","41","","","","","","","","","","","","","","","",""
"","ISI","","html-keyboard-response","279","363827","0.0-1.0-372.0","0","0","37765","","null","","","null","41","NaN","","","","","","","","","","","","","","",""
"","S2","","html-keyboard-response","280","363978","0.0-1.0-373.0","0","0","37765","","null","","","null","41","","NaN","","","","","","","","","","","","","",""
"","response","","html-keyboard-response","281","364348","0.0-1.0-374.0-0.0","0","0","37765","","370","","","75","41","","","1","41","training","adjacent","FE","6","5","Q.jpg","O.jpg","1","0","0","",""
"","feedback","","html-keyboard-response","282","365350","0.0-1.0-375.0-0.0","0","0","37765","","null","","","null","41","","","","","","","","","","","","","","","",""
"","time_out","","html-keyboard-response","283","367351","0.0-1.0-377.0-0.0","0","0","37765","","null","","","null","41","","","","","","","","","","","","","","","",""
"","ITI","","html-keyboard-response","284","368353","0.0-1.0-378.0","0","0","37765","","null","","","null","41","","","","","","","","","","","","","","","NaN",""
"","S1","","html-keyboard-response","285","368505","0.0-1.0-380.0","0","0","37765","","null","","","null","42","","","","","","","","","","","","","","","",""
"","ISI","","html-keyboard-response","286","370507","0.0-1.0-381.0","0","0","37765","","null","","","null","42","NaN","","","","","","","","","","","","","","",""
"","S2","","html-keyboard-response","287","370658","0.0-1.0-382.0","0","0","37765","","null","","","null","42","","NaN","","","","","","","","","","","","","",""
"","response","","html-keyboard-response","288","370804","0.0-1.0-383.0-0.0","0","0","37765","","146","","","68","42","","","1","42","training","adjacent","DC","4","3","N.jpg","R.jpg","0","0","1","",""
"","feedback","","html-keyboard-response","289","371805","0.0-1.0-384.0-0.0","0","0","37765","","null","","","null","42","","","","","","","","","","","","","","","",""
"","ITI","","html-keyboard-response","290","372806","0.0-1.0-387.0","0","0","37765","","null","","","null","42","","","","","","","","","","","","","","","NaN",""
"","S1","","html-keyboard-response","291","372958","0.0-1.0-389.0","0","0","37765","","null","","","null","43","","","","","","","","","","","","","","","",""
"","ISI","","html-keyboard-response","292","374960","0.0-1.0-390.0","0","0","37765","","null","","","null","43","NaN","","","","","","","","","","","","","","",""
"","S2","","html-keyboard-response","293","375111","0.0-1.0-391.0","0","0","37765","","null","","","null","43","","NaN","","","","","","","","","","","","","",""
"","response","","html-keyboard-response","294","375637","0.0-1.0-392.0-0.0","0","0","37765","","524","","","75","43","","","1","43","training","adjacent","ED","5","4","O.jpg","N.jpg","1","0","0","",""
"","feedback","","html-keyboard-response","295","376639","0.0-1.0-393.0-0.0","0","0","37765","","null","","","null","43","","","","","","","","","","","","","","","",""
"","time_out","","html-keyboard-response","296","378640","0.0-1.0-395.0-0.0","0","0","37765","","null","","","null","43","","","","","","","","","","","","","","","",""
"","ITI","","html-keyboard-response","297","379641","0.0-1.0-396.0","0","0","37765","","null","","","null","43","","","","","","","","","","","","","","","NaN",""
"","S1","","html-keyboard-response","298","379793","0.0-1.0-398.0","0","0","37765","","null","","","null","44","","","","","","","","","","","","","","","",""
"","ISI","","html-keyboard-response","299","381795","0.0-1.0-399.0","0","0","37765","","null","","","null","44","NaN","","","","","","","","","","","","","","",""
"","S2","","html-keyboard-response","300","381947","0.0-1.0-400.0","0","0","37765","","null","","","null","44","","NaN","","","","","","","","","","","","","",""
"","response","","html-keyboard-response","301","382340","0.0-1.0-401.0-0.0","0","0","37765","","393","","","68","44","","","1","44","training","adjacent","DC","4","3","N.jpg","R.jpg","0","0","1","",""
"","feedback","","html-keyboard-response","302","383343","0.0-1.0-402.0-0.0","0","0","37765","","null","","","null","44","","","","","","","","","","","","","","","",""
"","ITI","","html-keyboard-response","303","384344","0.0-1.0-405.0","0","0","37765","","null","","","null","44","","","","","","","","","","","","","","","NaN",""
"","S1","","html-keyboard-response","304","384496","0.0-1.0-407.0","0","0","37765","","null","","","null","45","","","","","","","","","","","","","","","",""
"","ISI","","html-keyboard-response","305","386497","0.0-1.0-408.0","0","0","37765","","null","","","null","45","NaN","","","","","","","","","","","","","","",""
"","S2","","html-keyboard-response","306","386648","0.0-1.0-409.0","0","0","37765","","null","","","null","45","","NaN","","","","","","","","","","","","","",""
"","response","","html-keyboard-response","307","388500","0.0-1.0-410.0-0.0","0","0","37765","","null","","","null","45","","","1","45","training","adjacent","DE","4","5","N.jpg","O.jpg","NaN","1","0","",""
"","too_slow_prompt","","html-keyboard-response","308","389502","0.0-1.0-412.0-0.0","1","0","37765","","null","","","null","","","","","","","","","","","","","","","","",""
"","time_out","","html-keyboard-response","309","391504","0.0-1.0-413.0-0.0","0","0","37765","","null","","","null","45","","","","","","","","","","","","","","","",""
"","ITI","","html-keyboard-response","310","392506","0.0-1.0-414.0","0","0","37765","","null","","","null","45","","","","","","","","","","","","","","","NaN",""
"","S1","","html-keyboard-response","311","392657","0.0-1.0-416.0","0","0","37765","","null","","","null","46","","","","","","","","","","","","","","","",""
"","ISI","","html-keyboard-response","312","394659","0.0-1.0-417.0","0","0","37765","","null","","","null","46","NaN","","","","","","","","","","","","","","",""
"","S2","","html-keyboard-response","313","394810","0.0-1.0-418.0","0","0","37765","","null","","","null","46","","NaN","","","","","","","","","","","","","",""
"","response","","html-keyboard-response","314","395204","0.0-1.0-419.0-0.0","0","0","37765","","394","","","68","46","","","1","46","training","adjacent","CD","3","4","R.jpg","N.jpg","0","1","0","",""
"","feedback","","html-keyboard-response","315","396206","0.0-1.0-420.0-0.0","0","0","37765","","null","","","null","46","","","","","","","","","","","","","","","",""
"","time_out","","html-keyboard-response","316","398207","0.0-1.0-422.0-0.0","0","0","37765","","null","","","null","46","","","","","","","","","","","","","","","",""
"","ITI","","html-keyboard-response","317","399209","0.0-1.0-423.0","0","0","37765","","null","","","null","46","","","","","","","","","","","","","","","NaN",""
"","S1","","html-keyboard-response","318","399361","0.0-1.0-425.0","0","0","37765","","null","","","null","47","","","","","","","","","","","","","","","",""
"","ISI","","html-keyboard-response","319","401362","0.0-1.0-426.0","0","0","37765","","null","","","null","47","NaN","","","","","","","","","","","","","","",""
"","S2","","html-keyboard-response","320","401513","0.0-1.0-427.0","0","0","37765","","null","","","null","47","","NaN","","","","","","","","","","","","","",""
"","response","","html-keyboard-response","321","401884","0.0-1.0-428.0-0.0","0","0","37765","","371","","","75","47","","","1","47","training","adjacent","CD","3","4","R.jpg","N.jpg","1","1","1","",""
"","feedback","","html-keyboard-response","322","402887","0.0-1.0-429.0-0.0","0","0","37765","","null","","","null","47","","","","","","","","","","","","","","","",""
"","ITI","","html-keyboard-response","323","403888","0.0-1.0-432.0","0","0","37765","","null","","","null","47","","","","","","","","","","","","","","","NaN",""
"","block_over","","html-keyboard-response","324","408492","0.0-1.0-433.0-0.0","0","0","37765","","4603","","","32","47","","","","","","","","","","","","","","","",""
"","S1","","html-keyboard-response","325","408644","0.0-1.0-434.0","0","0","37765","","null","","","null","48","","","","","","","","","","","","","","","",""
"","ISI","","html-keyboard-response","326","410646","0.0-1.0-435.0","0","0","37765","","null","","","null","48","NaN","","","","","","","","","","","","","","",""
"","S2","","html-keyboard-response","327","410797","0.0-1.0-436.0","0","0","37765","","null","","","null","48","","NaN","","","","","","","","","","","","","",""
"","response","","html-keyboard-response","328","411212","0.0-1.0-437.0-0.0","0","0","37765","","415","","","75","48","","","2","48","training","adjacent","BA","2","1","M.jpg","P.jpg","1","0","0","",""
"","feedback","","html-keyboard-response","329","412213","0.0-1.0-438.0-0.0","0","0","37765","","null","","","null","48","","","","","","","","","","","","","","","",""
"","time_out","","html-keyboard-response","330","414215","0.0-1.0-440.0-0.0","0","0","37765","","null","","","null","48","","","","","","","","","","","","","","","",""
"","ITI","","html-keyboard-response","331","415216","0.0-1.0-441.0","0","0","37765","","null","","","null","48","","","","","","","","","","","","","","","NaN",""
"","S1","","html-keyboard-response","332","415368","0.0-1.0-443.0","0","0","37765","","null","","","null","49","","","","","","","","","","","","","","","",""
"","ISI","","html-keyboard-response","333","417369","0.0-1.0-444.0","0","0","37765","","null","","","null","49","NaN","","","","","","","","","","","","","","",""
"","S2","","html-keyboard-response","334","417521","0.0-1.0-445.0","0","0","37765","","null","","","null","49","","NaN","","","","","","","","","","","","","",""
"","response","","html-keyboard-response","335","417596","0.0-1.0-446.0-0.0","0","0","37765","","73","","","68","49","","","2","49","training","adjacent","BC","2","3","M.jpg","R.jpg","0","1","0","",""
"","feedback","","html-keyboard-response","336","418597","0.0-1.0-447.0-0.0","0","0","37765","","null","","","null","49","","","","","","","","","","","","","","","",""
"","time_out","","html-keyboard-response","337","420599","0.0-1.0-449.0-0.0","0","0","37765","","null","","","null","49","","","","","","","","","","","","","","","",""
"","ITI","","html-keyboard-response","338","421600","0.0-1.0-450.0","0","0","37765","","null","","","null","49","","","","","","","","","","","","","","","NaN",""
"","S1","","html-keyboard-response","339","421752","0.0-1.0-452.0","0","0","37765","","null","","","null","50","","","","","","","","","","","","","","","",""
"","ISI","","html-keyboard-response","340","423754","0.0-1.0-453.0","0","0","37765","","null","","","null","50","NaN","","","","","","","","","","","","","","",""
"","S2","","html-keyboard-response","341","423906","0.0-1.0-454.0","0","0","37765","","null","","","null","50","","NaN","","","","","","","","","","","","","",""
"","response","","html-keyboard-response","342","424004","0.0-1.0-455.0-0.0","0","0","37765","","96","","","68","50","","","2","50","training","adjacent","DC","4","3","N.jpg","R.jpg","0","0","1","",""
"","feedback","","html-keyboard-response","343","425005","0.0-1.0-456.0-0.0","0","0","37765","","null","","","null","50","","","","","","","","","","","","","","","",""
"","ITI","","html-keyboard-response","344","426006","0.0-1.0-459.0","0","0","37765","","null","","","null","50","","","","","","","","","","","","","","","NaN",""
"","S1","","html-keyboard-response","345","426158","0.0-1.0-461.0","0","0","37765","","null","","","null","51","","","","","","","","","","","","","","","",""
"","ISI","","html-keyboard-response","346","428160","0.0-1.0-462.0","0","0","37765","","null","","","null","51","NaN","","","","","","","","","","","","","","",""
"","S2","","html-keyboard-response","347","428311","0.0-1.0-463.0","0","0","37765","","null","","","null","51","","NaN","","","","","","","","","","","","","",""
"","response","","html-keyboard-response","348","428484","0.0-1.0-464.0-0.0","0","0","37765","","172","","","68","51","","","2","51","training","adjacent","CD","3","4","R.jpg","N.jpg","0","1","0","",""
"","feedback","","html-keyboard-response","349","429486","0.0-1.0-465.0-0.0","0","0","37765","","null","","","null","51","","","","","","","","","","","","","","","",""
"","time_out","","html-keyboard-response","350","431488","0.0-1.0-467.0-0.0","0","0","37765","","null","","","null","51","","","","","","","","","","","","","","","",""
"","ITI","","html-keyboard-response","351","432490","0.0-1.0-468.0","0","0","37765","","null","","","null","51","","","","","","","","","","","","","","","NaN",""
"","S1","","html-keyboard-response","352","432641","0.0-1.0-470.0","0","0","37765","","null","","","null","52","","","","","","","","","","","","","","","",""
"","ISI","","html-keyboard-response","353","434643","0.0-1.0-471.0","0","0","37765","","null","","","null","52","NaN","","","","","","","","","","","","","","",""
"","S2","","html-keyboard-response","354","434801","0.0-1.0-472.0","0","0","37765","","null","","","null","52","","NaN","","","","","","","","","","","","","",""
"","response","","html-keyboard-response","355","435260","0.0-1.0-473.0-0.0","0","0","37765","","458","","","75","52","","","2","52","training","adjacent","ED","5","4","O.jpg","N.jpg","1","0","0","",""
"","feedback","","html-keyboard-response","356","436262","0.0-1.0-474.0-0.0","0","0","37765","","null","","","null","52","","","","","","","","","","","","","","","",""
"","time_out","","html-keyboard-response","357","438263","0.0-1.0-476.0-0.0","0","0","37765","","null","","","null","52","","","","","","","","","","","","","","","",""
"","ITI","","html-keyboard-response","358","439265","0.0-1.0-477.0","0","0","37765","","null","","","null","52","","","","","","","","","","","","","","","NaN",""
"","S1","","html-keyboard-response","359","439417","0.0-1.0-479.0","0","0","37765","","null","","","null","53","","","","","","","","","","","","","","","",""
"","ISI","","html-keyboard-response","360","441418","0.0-1.0-480.0","0","0","37765","","null","","","null","53","NaN","","","","","","","","","","","","","","",""
"","S2","","html-keyboard-response","361","441569","0.0-1.0-481.0","0","0","37765","","null","","","null","53","","NaN","","","","","","","","","","","","","",""
"","response","","html-keyboard-response","362","442084","0.0-1.0-482.0-0.0","0","0","37765","","515","","","75","53","","","2","53","training","adjacent","BA","2","1","M.jpg","P.jpg","1","0","0","",""
"","feedback","","html-keyboard-response","363","443087","0.0-1.0-483.0-0.0","0","0","37765","","null","","","null","53","","","","","","","","","","","","","","","",""
"","time_out","","html-keyboard-response","364","445088","0.0-1.0-485.0-0.0","0","0","37765","","null","","","null","53","","","","","","","","","","","","","","","",""
"","ITI","","html-keyboard-response","365","446090","0.0-1.0-486.0","0","0","37765","","null","","","null","53","","","","","","","","","","","","","","","NaN",""
"","S1","","html-keyboard-response","366","446241","0.0-1.0-488.0","0","0","37765","","null","","","null","54","","","","","","","","","","","","","","","",""
"","ISI","","html-keyboard-response","367","448244","0.0-1.0-489.0","0","0","37765","","null","","","null","54","NaN","","","","","","","","","","","","","","",""
"","S2","","html-keyboard-response","368","448395","0.0-1.0-490.0","0","0","37765","","null","","","null","54","","NaN","","","","","","","","","","","","","",""
"","response","","html-keyboard-response","369","448740","0.0-1.0-491.0-0.0","0","0","37765","","343","","","75","54","","","2","54","training","adjacent","FG","6","7","Q.jpg","L.jpg","1","1","1","",""
"","feedback","","html-keyboard-response","370","449742","0.0-1.0-492.0-0.0","0","0","37765","","null","","","null","54","","","","","","","","","","","","","","","",""
"","ITI","","html-keyboard-response","371","450744","0.0-1.0-495.0","0","0","37765","","null","","","null","54","","","","","","","","","","","","","","","NaN",""
"","S1","","html-keyboard-response","372","450896","0.0-1.0-497.0","0","0","37765","","null","","","null","55","","","","","","","","","","","","","","","",""
"","ISI","","html-keyboard-response","373","452898","0.0-1.0-498.0","0","0","37765","","null","","","null","55","NaN","","","","","","","","","","","","","","",""
"","S2","","html-keyboard-response","374","453048","0.0-1.0-499.0","0","0","37765","","null","","","null","55","","NaN","","","","","","","","","","","","","",""
"","response","","html-keyboard-response","375","453460","0.0-1.0-500.0-0.0","0","0","37765","","411","","","68","55","","","2","55","training","adjacent","CB","3","2","R.jpg","M.jpg","0","0","1","",""
"","feedback","","html-keyboard-response","376","454462","0.0-1.0-501.0-0.0","0","0","37765","","null","","","null","55","","","","","","","","","","","","","","","",""
"","ITI","","html-keyboard-response","377","455464","0.0-1.0-504.0","0","0","37765","","null","","","null","55","","","","","","","","","","","","","","","NaN",""
"","S1","","html-keyboard-response","378","455616","0.0-1.0-506.0","0","0","37765","","null","","","null","56","","","","","","","","","","","","","","","",""
"","ISI","","html-keyboard-response","379","457618","0.0-1.0-507.0","0","0","37765","","null","","","null","56","NaN","","","","","","","","","","","","","","",""
"","S2","","html-keyboard-response","380","457769","0.0-1.0-508.0","0","0","37765","","null","","","null","56","","NaN","","","","","","","","","","","","","",""
"","response","","html-keyboard-response","381","458148","0.0-1.0-509.0-0.0","0","0","37765","","379","","","68","56","","","2","56","training","adjacent","CD","3","4","R.jpg","N.jpg","0","1","0","",""
"","feedback","","html-keyboard-response","382","459150","0.0-1.0-510.0-0.0","0","0","37765","","null","","","null","56","","","","","","","","","","","","","","","",""
"","time_out","","html-keyboard-response","383","461152","0.0-1.0-512.0-0.0","0","0","37765","","null","","","null","56","","","","","","","","","","","","","","","",""
"","ITI","","html-keyboard-response","384","462153","0.0-1.0-513.0","0","0","37765","","null","","","null","56","","","","","","","","","","","","","","","NaN",""
"","S1","","html-keyboard-response","385","462306","0.0-1.0-515.0","0","0","37765","","null","","","null","57","","","","","","","","","","","","","","","",""
"","ISI","","html-keyboard-response","386","464308","0.0-1.0-516.0","0","0","37765","","null","","","null","57","NaN","","","","","","","","","","","","","","",""
"","S2","","html-keyboard-response","387","464459","0.0-1.0-517.0","0","0","37765","","null","","","null","57","","NaN","","","","","","","","","","","","","",""
"","response","","html-keyboard-response","388","464860","0.0-1.0-518.0-0.0","0","0","37765","","401","","","75","57","","","2","57","training","adjacent","EF","5","6","O.jpg","Q.jpg","1","1","1","",""
"","feedback","","html-keyboard-response","389","465862","0.0-1.0-519.0-0.0","0","0","37765","","null","","","null","57","","","","","","","","","","","","","","","",""
"","ITI","","html-keyboard-response","390","466863","0.0-1.0-522.0","0","0","37765","","null","","","null","57","","","","","","","","","","","","","","","NaN",""
"","S1","","html-keyboard-response","391","467017","0.0-1.0-524.0","0","0","37765","","null","","","null","58","","","","","","","","","","","","","","","",""
"","ISI","","html-keyboard-response","392","469019","0.0-1.0-525.0","0","0","37765","","null","","","null","58","NaN","","","","","","","","","","","","","","",""
"","S2","","html-keyboard-response","393","469171","0.0-1.0-526.0","0","0","37765","","null","","","null","58","","NaN","","","","","","","","","","","","","",""
"","response","","html-keyboard-response","394","469604","0.0-1.0-527.0-0.0","0","0","37765","","433","","","75","58","","","2","58","training","adjacent","AB","1","2","P.jpg","M.jpg","1","1","1","",""
"","feedback","","html-keyboard-response","395","470606","0.0-1.0-528.0-0.0","0","0","37765","","null","","","null","58","","","","","","","","","","","","","","","",""
"","ITI","","html-keyboard-response","396","471608","0.0-1.0-531.0","0","0","37765","","null","","","null","58","","","","","","","","","","","","","","","NaN",""
"","S1","","html-keyboard-response","397","471760","0.0-1.0-533.0","0","0","37765","","null","","","null","59","","","","","","","","","","","","","","","",""
"","ISI","","html-keyboard-response","398","473761","0.0-1.0-534.0","0","0","37765","","null","","","null","59","NaN","","","","","","","","","","","","","","",""
"","S2","","html-keyboard-response","399","473914","0.0-1.0-535.0","0","0","37765","","null","","","null","59","","NaN","","","","","","","","","","","","","",""
"","response","","html-keyboard-response","400","474324","0.0-1.0-536.0-0.0","0","0","37765","","409","","","75","59","","","2","59","training","adjacent","EF","5","6","O.jpg","Q.jpg","1","1","1","",""
"","feedback","","html-keyboard-response","401","475326","0.0-1.0-537.0-0.0","0","0","37765","","null","","","null","59","","","","","","","","","","","","","","","",""
"","ITI","","html-keyboard-response","402","476328","0.0-1.0-540.0","0","0","37765","","null","","","null","59","","","","","","","","","","","","","","","NaN",""
"","S1","","html-keyboard-response","403","476480","0.0-1.0-542.0","0","0","37765","","null","","","null","60","","","","","","","","","","","","","","","",""
"","ISI","","html-keyboard-response","404","478481","0.0-1.0-543.0","0","0","37765","","null","","","null","60","NaN","","","","","","","","","","","","","","",""
"","S2","","html-keyboard-response","405","478633","0.0-1.0-544.0","0","0","37765","","null","","","null","60","","NaN","","","","","","","","","","","","","",""
"","response","","html-keyboard-response","406","479044","0.0-1.0-545.0-0.0","0","0","37765","","410","","","68","60","","","2","60","training","adjacent","CB","3","2","R.jpg","M.jpg","0","0","1","",""
"","feedback","","html-keyboard-response","407","480046","0.0-1.0-546.0-0.0","0","0","37765","","null","","","null","60","","","","","","","","","","","","","","","",""
"","ITI","","html-keyboard-response","408","481047","0.0-1.0-549.0","0","0","37765","","null","","","null","60","","","","","","","","","","","","","","","NaN",""
"","S1","","html-keyboard-response","409","481198","0.0-1.0-551.0","0","0","37765","","null","","","null","61","","","","","","","","","","","","","","","",""
"","ISI","","html-keyboard-response","410","483199","0.0-1.0-552.0","0","0","37765","","null","","","null","61","NaN","","","","","","","","","","","","","","",""
"","S2","","html-keyboard-response","411","483351","0.0-1.0-553.0","0","0","37765","","null","","","null","61","","NaN","","","","","","","","","","","","","",""
"","response","","html-keyboard-response","412","483868","0.0-1.0-554.0-0.0","0","0","37765","","516","","","68","61","","","2","61","training","adjacent","CD","3","4","R.jpg","N.jpg","0","1","0","",""
"","feedback","","html-keyboard-response","413","484870","0.0-1.0-555.0-0.0","0","0","37765","","null","","","null","61","","","","","","","","","","","","","","","",""
"","time_out","","html-keyboard-response","414","486871","0.0-1.0-557.0-0.0","0","0","37765","","null","","","null","61","","","","","","","","","","","","","","","",""
"","ITI","","html-keyboard-response","415","487873","0.0-1.0-558.0","0","0","37765","","null","","","null","61","","","","","","","","","","","","","","","NaN",""
"","S1","","html-keyboard-response","416","488025","0.0-1.0-560.0","0","0","37765","","null","","","null","62","","","","","","","","","","","","","","","",""
"","ISI","","html-keyboard-response","417","490027","0.0-1.0-561.0","0","0","37765","","null","","","null","62","NaN","","","","","","","","","","","","","","",""
"","S2","","html-keyboard-response","418","490178","0.0-1.0-562.0","0","0","37765","","null","","","null","62","","NaN","","","","","","","","","","","","","",""
"","response","","html-keyboard-response","419","490604","0.0-1.0-563.0-0.0","0","0","37765","","426","","","68","62","","","2","62","training","adjacent","CB","3","2","R.jpg","M.jpg","0","0","1","",""
"","feedback","","html-keyboard-response","420","491606","0.0-1.0-564.0-0.0","0","0","37765","","null","","","null","62","","","","","","","","","","","","","","","",""
"","ITI","","html-keyboard-response","421","492608","0.0-1.0-567.0","0","0","37765","","null","","","null","62","","","","","","","","","","","","","","","NaN",""
"","S1","","html-keyboard-response","422","492760","0.0-1.0-569.0","0","0","37765","","null","","","null","63","","","","","","","","","","","","","","","",""
"","ISI","","html-keyboard-response","423","494761","0.0-1.0-570.0","0","0","37765","","null","","","null","63","NaN","","","","","","","","","","","","","","",""
"","S2","","html-keyboard-response","424","494913","0.0-1.0-571.0","0","0","37765","","null","","","null","63","","NaN","","","","","","","","","","","","","",""
"","response","","html-keyboard-response","425","495396","0.0-1.0-572.0-0.0","0","0","37765","","482","","","75","63","","","2","63","training","adjacent","CD","3","4","R.jpg","N.jpg","1","1","1","",""
"","feedback","","html-keyboard-response","426","496397","0.0-1.0-573.0-0.0","0","0","37765","","null","","","null","63","","","","","","","","","","","","","","","",""
"","ITI","","html-keyboard-response","427","497399","0.0-1.0-576.0","0","0","37765","","null","","","null","63","","","","","","","","","","","","","","","NaN",""
"","S1","","html-keyboard-response","428","497550","0.0-1.0-578.0","0","0","37765","","null","","","null","64","","","","","","","","","","","","","","","",""
"","ISI","","html-keyboard-response","429","499551","0.0-1.0-579.0","0","0","37765","","null","","","null","64","NaN","","","","","","","","","","","","","","",""
"","S2","","html-keyboard-response","430","499703","0.0-1.0-580.0","0","0","37765","","null","","","null","64","","NaN","","","","","","","","","","","","","",""
"","response","","html-keyboard-response","431","500188","0.0-1.0-581.0-0.0","0","0","37765","","484","","","68","64","","","2","64","training","adjacent","GF","7","6","L.jpg","Q.jpg","0","0","1","",""
"","feedback","","html-keyboard-response","432","501189","0.0-1.0-582.0-0.0","0","0","37765","","null","","","null","64","","","","","","","","","","","","","","","",""
"","ITI","","html-keyboard-response","433","502191","0.0-1.0-585.0","0","0","37765","","null","","","null","64","","","","","","","","","","","","","","","NaN",""
"","S1","","html-keyboard-response","434","502342","0.0-1.0-587.0","0","0","37765","","null","","","null","65","","","","","","","","","","","","","","","",""
"","ISI","","html-keyboard-response","435","504344","0.0-1.0-588.0","0","0","37765","","null","","","null","65","NaN","","","","","","","","","","","","","","",""
"","S2","","html-keyboard-response","436","504495","0.0-1.0-589.0","0","0","37765","","null","","","null","65","","NaN","","","","","","","","","","","","","",""
"","response","","html-keyboard-response","437","505444","0.0-1.0-590.0-0.0","0","0","37765","","948","","","75","65","","","2","65","training","adjacent","BA","2","1","M.jpg","P.jpg","1","0","0","",""
"","feedback","","html-keyboard-response","438","506446","0.0-1.0-591.0-0.0","0","0","37765","","null","","","null","65","","","","","","","","","","","","","","","",""
"","time_out","","html-keyboard-response","439","508448","0.0-1.0-593.0-0.0","0","0","37765","","null","","","null","65","","","","","","","","","","","","","","","",""
"","ITI","","html-keyboard-response","440","509449","0.0-1.0-594.0","0","0","37765","","null","","","null","65","","","","","","","","","","","","","","","NaN",""
"","S1","","html-keyboard-response","441","509600","0.0-1.0-596.0","0","0","37765","","null","","","null","66","","","","","","","","","","","","","","","",""
"","ISI","","html-keyboard-response","442","511601","0.0-1.0-597.0","0","0","37765","","null","","","null","66","NaN","","","","","","","","","","","","","","",""
"","S2","","html-keyboard-response","443","511753","0.0-1.0-598.0","0","0","37765","","null","","","null","66","","NaN","","","","","","","","","","","","","",""
"","response","","html-keyboard-response","444","512284","0.0-1.0-599.0-0.0","0","0","37765","","529","","","75","66","","","2","66","training","adjacent","DC","4","3","N.jpg","R.jpg","1","0","0","",""
"","feedback","","html-keyboard-response","445","513285","0.0-1.0-600.0-0.0","0","0","37765","","null","","","null","66","","","","","","","","","","","","","","","",""
"","time_out","","html-keyboard-response","446","515287","0.0-1.0-602.0-0.0","0","0","37765","","null","","","null","66","","","","","","","","","","","","","","","",""
"","ITI","","html-keyboard-response","447","516288","0.0-1.0-603.0","0","0","37765","","null","","","null","66","","","","","","","","","","","","","","","NaN",""
"","S1","","html-keyboard-response","448","516439","0.0-1.0-605.0","0","0","37765","","null","","","null","67","","","","","","","","","","","","","","","",""
"","ISI","","html-keyboard-response","449","518440","0.0-1.0-606.0","0","0","37765","","null","","","null","67","NaN","","","","","","","","","","","","","","",""
"","S2","","html-keyboard-response","450","518591","0.0-1.0-607.0","0","0","37765","","null","","","null","67","","NaN","","","","","","","","","","","","","",""
"","response","","html-keyboard-response","451","519324","0.0-1.0-608.0-0.0","0","0","37765","","732","","","75","67","","","2","67","training","adjacent","FE","6","5","Q.jpg","O.jpg","1","0","0","",""
"","feedback","","html-keyboard-response","452","520326","0.0-1.0-609.0-0.0","0","0","37765","","null","","","null","67","","","","","","","","","","","","","","","",""
"","time_out","","html-keyboard-response","453","522328","0.0-1.0-611.0-0.0","0","0","37765","","null","","","null","67","","","","","","","","","","","","","","","",""
"","ITI","","html-keyboard-response","454","523329","0.0-1.0-612.0","0","0","37765","","null","","","null","67","","","","","","","","","","","","","","","NaN",""
"","S1","","html-keyboard-response","455","523480","0.0-1.0-614.0","0","0","37765","","null","","","null","68","","","","","","","","","","","","","","","",""
"","ISI","","html-keyboard-response","456","525481","0.0-1.0-615.0","0","0","37765","","null","","","null","68","NaN","","","","","","","","","","","","","","",""
"","S2","","html-keyboard-response","457","525633","0.0-1.0-616.0","0","0","37765","","null","","","null","68","","NaN","","","","","","","","","","","","","",""
"","response","","html-keyboard-response","458","526052","0.0-1.0-617.0-0.0","0","0","37765","","418","","","68","68","","","2","68","training","adjacent","DC","4","3","N.jpg","R.jpg","0","0","1","",""
"","feedback","","html-keyboard-response","459","527053","0.0-1.0-618.0-0.0","0","0","37765","","null","","","null","68","","","","","","","","","","","","","","","",""
"","ITI","","html-keyboard-response","460","528054","0.0-1.0-621.0","0","0","37765","","null","","","null","68","","","","","","","","","","","","","","","NaN",""
"","S1","","html-keyboard-response","461","528205","0.0-1.0-623.0","0","0","37765","","null","","","null","69","","","","","","","","","","","","","","","",""
"","ISI","","html-keyboard-response","462","530207","0.0-1.0-624.0","0","0","37765","","null","","","null","69","NaN","","","","","","","","","","","","","","",""
"","S2","","html-keyboard-response","463","530358","0.0-1.0-625.0","0","0","37765","","null","","","null","69","","NaN","","","","","","","","","","","","","",""
"","response","","html-keyboard-response","464","530772","0.0-1.0-626.0-0.0","0","0","37765","","413","","","68","69","","","2","69","training","adjacent","GF","7","6","L.jpg","Q.jpg","0","0","1","",""
"","feedback","","html-keyboard-response","465","531773","0.0-1.0-627.0-0.0","0","0","37765","","null","","","null","69","","","","","","","","","","","","","","","",""
"","ITI","","html-keyboard-response","466","532775","0.0-1.0-630.0","0","0","37765","","null","","","null","69","","","","","","","","","","","","","","","NaN",""
"","S1","","html-keyboard-response","467","532927","0.0-1.0-632.0","0","0","37765","","null","","","null","70","","","","","","","","","","","","","","","",""
"","ISI","","html-keyboard-response","468","534928","0.0-1.0-633.0","0","0","37765","","null","","","null","70","NaN","","","","","","","","","","","","","","",""
"","S2","","html-keyboard-response","469","535079","0.0-1.0-634.0","0","0","37765","","null","","","null","70","","NaN","","","","","","","","","","","","","",""
"","response","","html-keyboard-response","470","535492","0.0-1.0-635.0-0.0","0","0","37765","","412","","","68","70","","","2","70","training","adjacent","GF","7","6","L.jpg","Q.jpg","0","0","1","",""
"","feedback","","html-keyboard-response","471","536494","0.0-1.0-636.0-0.0","0","0","37765","","null","","","null","70","","","","","","","","","","","","","","","",""
"","ITI","","html-keyboard-response","472","537507","0.0-1.0-639.0","0","0","37765","","null","","","null","70","","","","","","","","","","","","","","","NaN",""
"","S1","","html-keyboard-response","473","537658","0.0-1.0-641.0","0","0","37765","","null","","","null","71","","","","","","","","","","","","","","","",""
"","ISI","","html-keyboard-response","474","539659","0.0-1.0-642.0","0","0","37765","","null","","","null","71","NaN","","","","","","","","","","","","","","",""
"","S2","","html-keyboard-response","475","539810","0.0-1.0-643.0","0","0","37765","","null","","","null","71","","NaN","","","","","","","","","","","","","",""
"","response","","html-keyboard-response","476","540220","0.0-1.0-644.0-0.0","0","0","37765","","408","","","75","71","","","2","71","training","adjacent","AB","1","2","P.jpg","M.jpg","1","1","1","",""
"","feedback","","html-keyboard-response","477","541221","0.0-1.0-645.0-0.0","0","0","37765","","null","","","null","71","","","","","","","","","","","","","","","",""
"","ITI","","html-keyboard-response","478","542223","0.0-1.0-648.0","0","0","37765","","null","","","null","71","","","","","","","","","","","","","","","NaN",""
"","S1","","html-keyboard-response","479","542378","0.0-1.0-650.0","0","0","37765","","null","","","null","72","","","","","","","","","","","","","","","",""
"","ISI","","html-keyboard-response","480","544380","0.0-1.0-651.0","0","0","37765","","null","","","null","72","NaN","","","","","","","","","","","","","","",""
"","S2","","html-keyboard-response","481","544531","0.0-1.0-652.0","0","0","37765","","null","","","null","72","","NaN","","","","","","","","","","","","","",""
"","response","","html-keyboard-response","482","545019","0.0-1.0-653.0-0.0","0","0","37765","","488","","","75","72","","","2","72","training","adjacent","BC","2","3","M.jpg","R.jpg","1","1","1","",""
"","feedback","","html-keyboard-response","483","546022","0.0-1.0-654.0-0.0","0","0","37765","","null","","","null","72","","","","","","","","","","","","","","","",""
"","ITI","","html-keyboard-response","484","547023","0.0-1.0-657.0","0","0","37765","","null","","","null","72","","","","","","","","","","","","","","","NaN",""
"","S1","","html-keyboard-response","485","547175","0.0-1.0-659.0","0","0","37765","","null","","","null","73","","","","","","","","","","","","","","","",""
"","ISI","","html-keyboard-response","486","549176","0.0-1.0-660.0","0","0","37765","","null","","","null","73","NaN","","","","","","","","","","","","","","",""
"","S2","","html-keyboard-response","487","549327","0.0-1.0-661.0","0","0","37765","","null","","","null","73","","NaN","","","","","","","","","","","","","",""
"","response","","html-keyboard-response","488","549788","0.0-1.0-662.0-0.0","0","0","37765","","460","","","68","73","","","2","73","training","adjacent","CB","3","2","R.jpg","M.jpg","0","0","1","",""
"","feedback","","html-keyboard-response","489","550790","0.0-1.0-663.0-0.0","0","0","37765","","null","","","null","73","","","","","","","","","","","","","","","",""
"","ITI","","html-keyboard-response","490","551791","0.0-1.0-666.0","0","0","37765","","null","","","null","73","","","","","","","","","","","","","","","NaN",""
"","S1","","html-keyboard-response","491","551943","0.0-1.0-668.0","0","0","37765","","null","","","null","74","","","","","","","","","","","","","","","",""
"","ISI","","html-keyboard-response","492","553944","0.0-1.0-669.0","0","0","37765","","null","","","null","74","NaN","","","","","","","","","","","","","","",""
"","S2","","html-keyboard-response","493","554096","0.0-1.0-670.0","0","0","37765","","null","","","null","74","","NaN","","","","","","","","","","","","","",""
"","response","","html-keyboard-response","494","554620","0.0-1.0-671.0-0.0","0","0","37765","","522","","","75","74","","","2","74","training","adjacent","DE","4","5","N.jpg","O.jpg","1","1","1","",""
"","feedback","","html-keyboard-response","495","555621","0.0-1.0-672.0-0.0","0","0","37765","","null","","","null","74","","","","","","","","","","","","","","","",""
"","ITI","","html-keyboard-response","496","556623","0.0-1.0-675.0","0","0","37765","","null","","","null","74","","","","","","","","","","","","","","","NaN",""
"","S1","","html-keyboard-response","497","556774","0.0-1.0-677.0","0","0","37765","","null","","","null","75","","","","","","","","","","","","","","","",""
"","ISI","","html-keyboard-response","498","558776","0.0-1.0-678.0","0","0","37765","","null","","","null","75","NaN","","","","","","","","","","","","","","",""
"","S2","","html-keyboard-response","499","558928","0.0-1.0-679.0","0","0","37765","","null","","","null","75","","NaN","","","","","","","","","","","","","",""
"","response","","html-keyboard-response","500","559715","0.0-1.0-680.0-0.0","0","0","37765","","786","","","75","75","","","2","75","training","adjacent","BC","2","3","M.jpg","R.jpg","1","1","1","",""
"","feedback","","html-keyboard-response","501","560718","0.0-1.0-681.0-0.0","0","0","37765","","null","","","null","75","","","","","","","","","","","","","","","",""
"","ITI","","html-keyboard-response","502","561720","0.0-1.0-684.0","0","0","37765","","null","","","null","75","","","","","","","","","","","","","","","NaN",""
"","S1","","html-keyboard-response","503","561870","0.0-1.0-686.0","0","0","37765","","null","","","null","76","","","","","","","","","","","","","","","",""
"","ISI","","html-keyboard-response","504","563872","0.0-1.0-687.0","0","0","37765","","null","","","null","76","NaN","","","","","","","","","","","","","","",""
"","S2","","html-keyboard-response","505","564023","0.0-1.0-688.0","0","0","37765","","null","","","null","76","","NaN","","","","","","","","","","","","","",""
"","response","","html-keyboard-response","506","564500","0.0-1.0-689.0-0.0","0","0","37765","","475","","","68","76","","","2","76","training","adjacent","FE","6","5","Q.jpg","O.jpg","0","0","1","",""
"","feedback","","html-keyboard-response","507","565501","0.0-1.0-690.0-0.0","0","0","37765","","null","","","null","76","","","","","","","","","","","","","","","",""
"","ITI","","html-keyboard-response","508","566504","0.0-1.0-693.0","0","0","37765","","null","","","null","76","","","","","","","","","","","","","","","NaN",""
"","S1","","html-keyboard-response","509","566656","0.0-1.0-695.0","0","0","37765","","null","","","null","77","","","","","","","","","","","","","","","",""
"","ISI","","html-keyboard-response","510","568658","0.0-1.0-696.0","0","0","37765","","null","","","null","77","NaN","","","","","","","","","","","","","","",""
"","S2","","html-keyboard-response","511","568810","0.0-1.0-697.0","0","0","37765","","null","","","null","77","","NaN","","","","","","","","","","","","","",""
"","response","","html-keyboard-response","512","569388","0.0-1.0-698.0-0.0","0","0","37765","","577","","","75","77","","","2","77","training","adjacent","BC","2","3","M.jpg","R.jpg","1","1","1","",""
"","feedback","","html-keyboard-response","513","570397","0.0-1.0-699.0-0.0","0","0","37765","","null","","","null","77","","","","","","","","","","","","","","","",""
"","ITI","","html-keyboard-response","514","571398","0.0-1.0-702.0","0","0","37765","","null","","","null","77","","","","","","","","","","","","","","","NaN",""
"","S1","","html-keyboard-response","515","571549","0.0-1.0-704.0","0","0","37765","","null","","","null","78","","","","","","","","","","","","","","","",""
"","ISI","","html-keyboard-response","516","573551","0.0-1.0-705.0","0","0","37765","","null","","","null","78","NaN","","","","","","","","","","","","","","",""
"","S2","","html-keyboard-response","517","573702","0.0-1.0-706.0","0","0","37765","","null","","","null","78","","NaN","","","","","","","","","","","","","",""
"","response","","html-keyboard-response","518","574204","0.0-1.0-707.0-0.0","0","0","37765","","501","","","68","78","","","2","78","training","adjacent","EF","5","6","O.jpg","Q.jpg","0","1","0","",""
"","feedback","","html-keyboard-response","519","575206","0.0-1.0-708.0-0.0","0","0","37765","","null","","","null","78","","","","","","","","","","","","","","","",""
"","time_out","","html-keyboard-response","520","577208","0.0-1.0-710.0-0.0","0","0","37765","","null","","","null","78","","","","","","","","","","","","","","","",""
"","ITI","","html-keyboard-response","521","578209","0.0-1.0-711.0","0","0","37765","","null","","","null","78","","","","","","","","","","","","","","","NaN",""
"","S1","","html-keyboard-response","522","578360","0.0-1.0-713.0","0","0","37765","","null","","","null","79","","","","","","","","","","","","","","","",""
"","ISI","","html-keyboard-response","523","580362","0.0-1.0-714.0","0","0","37765","","null","","","null","79","NaN","","","","","","","","","","","","","","",""
"","S2","","html-keyboard-response","524","580513","0.0-1.0-715.0","0","0","37765","","null","","","null","79","","NaN","","","","","","","","","","","","","",""
"","response","","html-keyboard-response","525","581099","0.0-1.0-716.0-0.0","0","0","37765","","585","","","75","79","","","2","79","training","adjacent","AB","1","2","P.jpg","M.jpg","1","1","1","",""
"","feedback","","html-keyboard-response","526","582101","0.0-1.0-717.0-0.0","0","0","37765","","null","","","null","79","","","","","","","","","","","","","","","",""
"","ITI","","html-keyboard-response","527","583102","0.0-1.0-720.0","0","0","37765","","null","","","null","79","","","","","","","","","","","","","","","NaN",""
"","S1","","html-keyboard-response","528","583267","0.0-1.0-722.0","0","0","37765","","null","","","null","80","","","","","","","","","","","","","","","",""
"","ISI","","html-keyboard-response","529","585268","0.0-1.0-723.0","0","0","37765","","null","","","null","80","NaN","","","","","","","","","","","","","","",""
"","S2","","html-keyboard-response","530","585419","0.0-1.0-724.0","0","0","37765","","null","","","null","80","","NaN","","","","","","","","","","","","","",""
"","response","","html-keyboard-response","531","586100","0.0-1.0-725.0-0.0","0","0","37765","","680","","","68","80","","","2","80","training","adjacent","BA","2","1","M.jpg","P.jpg","0","0","1","",""
"","feedback","","html-keyboard-response","532","587101","0.0-1.0-726.0-0.0","0","0","37765","","null","","","null","80","","","","","","","","","","","","","","","",""
"","ITI","","html-keyboard-response","533","588103","0.0-1.0-729.0","0","0","37765","","null","","","null","80","","","","","","","","","","","","","","","NaN",""
"","S1","","html-keyboard-response","534","588254","0.0-1.0-731.0","0","0","37765","","null","","","null","81","","","","","","","","","","","","","","","",""
"","ISI","","html-keyboard-response","535","590257","0.0-1.0-732.0","0","0","37765","","null","","","null","81","NaN","","","","","","","","","","","","","","",""
"","S2","","html-keyboard-response","536","590408","0.0-1.0-733.0","0","0","37765","","null","","","null","81","","NaN","","","","","","","","","","","","","",""
"","response","","html-keyboard-response","537","590988","0.0-1.0-734.0-0.0","0","0","37765","","579","","","75","81","","","2","81","training","adjacent","FG","6","7","Q.jpg","L.jpg","1","1","1","",""
"","feedback","","html-keyboard-response","538","591990","0.0-1.0-735.0-0.0","0","0","37765","","null","","","null","81","","","","","","","","","","","","","","","",""
"","ITI","","html-keyboard-response","539","592991","0.0-1.0-738.0","0","0","37765","","null","","","null","81","","","","","","","","","","","","","","","NaN",""
"","S1","","html-keyboard-response","540","593143","0.0-1.0-740.0","0","0","37765","","null","","","null","82","","","","","","","","","","","","","","","",""
"","ISI","","html-keyboard-response","541","595144","0.0-1.0-741.0","0","0","37765","","null","","","null","82","NaN","","","","","","","","","","","","","","",""
"","S2","","html-keyboard-response","542","595300","0.0-1.0-742.0","0","0","37765","","null","","","null","82","","NaN","","","","","","","","","","","","","",""
"","response","","html-keyboard-response","543","595755","0.0-1.0-743.0-0.0","0","0","37765","","455","","","68","82","","","2","82","training","adjacent","GF","7","6","L.jpg","Q.jpg","0","0","1","",""
"","feedback","","html-keyboard-response","544","596756","0.0-1.0-744.0-0.0","0","0","37765","","null","","","null","82","","","","","","","","","","","","","","","",""
"","ITI","","html-keyboard-response","545","597758","0.0-1.0-747.0","0","0","37765","","null","","","null","82","","","","","","","","","","","","","","","NaN",""
"","S1","","html-keyboard-response","546","597909","0.0-1.0-749.0","0","0","37765","","null","","","null","83","","","","","","","","","","","","","","","",""
"","ISI","","html-keyboard-response","547","599911","0.0-1.0-750.0","0","0","37765","","null","","","null","83","NaN","","","","","","","","","","","","","","",""
"","S2","","html-keyboard-response","548","600062","0.0-1.0-751.0","0","0","37765","","null","","","null","83","","NaN","","","","","","","","","","","","","",""
"","response","","html-keyboard-response","549","600547","0.0-1.0-752.0-0.0","0","0","37765","","485","","","68","83","","","2","83","training","adjacent","DE","4","5","N.jpg","O.jpg","0","1","0","",""
"","feedback","","html-keyboard-response","550","601549","0.0-1.0-753.0-0.0","0","0","37765","","null","","","null","83","","","","","","","","","","","","","","","",""
"","time_out","","html-keyboard-response","551","603551","0.0-1.0-755.0-0.0","0","0","37765","","null","","","null","83","","","","","","","","","","","","","","","",""
"","ITI","","html-keyboard-response","552","604552","0.0-1.0-756.0","0","0","37765","","null","","","null","83","","","","","","","","","","","","","","","NaN",""
"","S1","","html-keyboard-response","553","604703","0.0-1.0-758.0","0","0","37765","","null","","","null","84","","","","","","","","","","","","","","","",""
"","ISI","","html-keyboard-response","554","606706","0.0-1.0-759.0","0","0","37765","","null","","","null","84","NaN","","","","","","","","","","","","","","",""
"","S2","","html-keyboard-response","555","606857","0.0-1.0-760.0","0","0","37765","","null","","","null","84","","NaN","","","","","","","","","","","","","",""
"","response","","html-keyboard-response","556","607275","0.0-1.0-761.0-0.0","0","0","37765","","417","","","75","84","","","2","84","training","adjacent","FG","6","7","Q.jpg","L.jpg","1","1","1","",""
"","feedback","","html-keyboard-response","557","608277","0.0-1.0-762.0-0.0","0","0","37765","","null","","","null","84","","","","","","","","","","","","","","","",""
"","ITI","","html-keyboard-response","558","609279","0.0-1.0-765.0","0","0","37765","","null","","","null","84","","","","","","","","","","","","","","","NaN",""
"","S1","","html-keyboard-response","559","609430","0.0-1.0-767.0","0","0","37765","","null","","","null","85","","","","","","","","","","","","","","","",""
"","ISI","","html-keyboard-response","560","611432","0.0-1.0-768.0","0","0","37765","","null","","","null","85","NaN","","","","","","","","","","","","","","",""
"","S2","","html-keyboard-response","561","611582","0.0-1.0-769.0","0","0","37765","","null","","","null","85","","NaN","","","","","","","","","","","","","",""
"","response","","html-keyboard-response","562","612035","0.0-1.0-770.0-0.0","0","0","37765","","453","","","75","85","","","2","85","training","adjacent","DC","4","3","N.jpg","R.jpg","1","0","0","",""
"","feedback","","html-keyboard-response","563","613038","0.0-1.0-771.0-0.0","0","0","37765","","null","","","null","85","","","","","","","","","","","","","","","",""
"","time_out","","html-keyboard-response","564","615040","0.0-1.0-773.0-0.0","0","0","37765","","null","","","null","85","","","","","","","","","","","","","","","",""
"","ITI","","html-keyboard-response","565","616042","0.0-1.0-774.0","0","0","37765","","null","","","null","85","","","","","","","","","","","","","","","NaN",""
"","S1","","html-keyboard-response","566","616193","0.0-1.0-776.0","0","0","37765","","null","","","null","86","","","","","","","","","","","","","","","",""
"","ISI","","html-keyboard-response","567","618196","0.0-1.0-777.0","0","0","37765","","null","","","null","86","NaN","","","","","","","","","","","","","","",""
"","S2","","html-keyboard-response","568","618347","0.0-1.0-778.0","0","0","37765","","null","","","null","86","","NaN","","","","","","","","","","","","","",""
"","response","","html-keyboard-response","569","619019","0.0-1.0-779.0-0.0","0","0","37765","","671","","","68","86","","","2","86","training","adjacent","ED","5","4","O.jpg","N.jpg","0","0","1","",""
"","feedback","","html-keyboard-response","570","620022","0.0-1.0-780.0-0.0","0","0","37765","","null","","","null","86","","","","","","","","","","","","","","","",""
"","ITI","","html-keyboard-response","571","621024","0.0-1.0-783.0","0","0","37765","","null","","","null","86","","","","","","","","","","","","","","","NaN",""
"","S1","","html-keyboard-response","572","621175","0.0-1.0-785.0","0","0","37765","","null","","","null","87","","","","","","","","","","","","","","","",""
"","ISI","","html-keyboard-response","573","623177","0.0-1.0-786.0","0","0","37765","","null","","","null","87","NaN","","","","","","","","","","","","","","",""
"","S2","","html-keyboard-response","574","623328","0.0-1.0-787.0","0","0","37765","","null","","","null","87","","NaN","","","","","","","","","","","","","",""
"","response","","html-keyboard-response","575","624003","0.0-1.0-788.0-0.0","0","0","37765","","675","","","68","87","","","2","87","training","adjacent","DE","4","5","N.jpg","O.jpg","0","1","0","",""
"","feedback","","html-keyboard-response","576","625006","0.0-1.0-789.0-0.0","0","0","37765","","null","","","null","87","","","","","","","","","","","","","","","",""
"","time_out","","html-keyboard-response","577","627007","0.0-1.0-791.0-0.0","0","0","37765","","null","","","null","87","","","","","","","","","","","","","","","",""
"","ITI","","html-keyboard-response","578","628008","0.0-1.0-792.0","0","0","37765","","null","","","null","87","","","","","","","","","","","","","","","NaN",""
"","S1","","html-keyboard-response","579","628159","0.0-1.0-794.0","0","0","37765","","null","","","null","88","","","","","","","","","","","","","","","",""
"","ISI","","html-keyboard-response","580","630161","0.0-1.0-795.0","0","0","37765","","null","","","null","88","NaN","","","","","","","","","","","","","","",""
