"success","ttype","start_time","trial_type","trial_index","time_elapsed","internal_node_id","warning","missed_checkup","PID","view_history","rt","responses","repeat_instructions","key_press","index","keypress_isi","keypress_S2","block","trial_num","phase","group_type","pair_type","S1_stim","S2_stim","S1_img","S2_img","S1_chosen","S1_higher","accuracy","keypress_iti","total_bonus_tally"
"true","full_screen","d04142023hr1619","fullscreen","0","20714","0.0-0.0","0","0","45920","","","","","","","","","","","","","","","","","","","","","",""
"","instructions","","instructions","1","58685","0.0-1.0-0.0-0.0","0","0","45920","[{""page_index"":0,""viewing_time"":4159},{""page_index"":1,""viewing_time"":25744},{""page_index"":2,""viewing_time"":6440},{""page_index"":3,""viewing_time"":1624}]","37967","","","","","","","","","","","","","","","","","","","",""
"","comprehension_check","","survey-multi-choice","2","93765","0.0-1.0-0.0-1.0","0","0","45920","","35077","{""Q0"":""True"",""Q1"":""D"",""Q2"":""Only when the screen 'MAKE A CHOICE' is shown"",""Q3"":""Green mark"",""Q4"":""either D or K""}","1","","","","","","","","","","","","","","","","","",""
"","missed_instruction_checkup","","html-keyboard-response","3","96400","0.0-1.0-0.0-2.0-0.0","0","1","45920","","2632","","","32","","","","","","","","","","","","","","","","",""
"","instructions","","instructions","4","118180","0.0-1.0-0.1-0.1","0","0","45920","[{""page_index"":0,""viewing_time"":1795},{""page_index"":1,""viewing_time"":16288},{""page_index"":2,""viewing_time"":2072},{""page_index"":3,""viewing_time"":1624}]","21779","","","","","","","","","","","","","","","","","","","",""
"","comprehension_check","","survey-multi-choice","5","130028","0.0-1.0-0.1-1.1","0","0","45920","","11845","{""Q0"":""True"",""Q1"":""D"",""Q2"":""Once the second image appears and while the screen 'MAKE A CHOICE' is shown"",""Q3"":""Green mark"",""Q4"":""either D or K""}","0","","","","","","","","","","","","","","","","","",""
"","start_exp","","html-keyboard-response","6","131734","0.0-1.0-1.0","0","0","45920","","1703","","","32","","","","","","","","","","","","","","","","",""
"","S1","","html-keyboard-response","7","131990","0.0-1.0-2.0","0","0","45920","","null","","","null","0","","","","","","","","","","","","","","","",""
"","ISI","","html-keyboard-response","8","132993","0.0-1.0-3.0","0","0","45920","","null","","","null","0","NaN","","","","","","","","","","","","","","",""
"","S2","","html-keyboard-response","9","133245","0.0-1.0-4.0","0","0","45920","","null","","","null","0","","NaN","","","","","","","","","","","","","",""
"","response","","html-keyboard-response","10","134695","0.0-1.0-5.0-0.0","0","0","45920","","1447","","","75","0","","","1","0","training","adjacent","ED","5","4","O.jpg","R.jpg","0","0","1","",""
"","feedback","","html-keyboard-response","11","135700","0.0-1.0-6.0-0.0","0","0","45920","","null","","","null","0","","","","","","","","","","","","","","","",""
"","ITI","","html-keyboard-response","12","136704","0.0-1.0-9.0","0","0","45920","","null","","","null","0","","","","","","","","","","","","","","","NaN",""
"","S1","","html-keyboard-response","13","136958","0.0-1.0-11.0","0","0","45920","","null","","","null","1","","","","","","","","","","","","","","","",""
"","ISI","","html-keyboard-response","14","137963","0.0-1.0-12.0","0","0","45920","","null","","","null","1","NaN","","","","","","","","","","","","","","",""
"","S2","","html-keyboard-response","15","138216","0.0-1.0-13.0","0","0","45920","","null","","","null","1","","NaN","","","","","","","","","","","","","",""
"","response","","html-keyboard-response","16","138900","0.0-1.0-14.0-0.0","0","0","45920","","682","","","75","1","","","1","1","training","adjacent","BA","2","1","N.jpg","Q.jpg","0","0","1","",""
"","feedback","","html-keyboard-response","17","139903","0.0-1.0-15.0-0.0","0","0","45920","","null","","","null","1","","","","","","","","","","","","","","","",""
"","ITI","","html-keyboard-response","18","140906","0.0-1.0-18.0","0","0","45920","","null","","","null","1","","","","","","","","","","","","","","","NaN",""
"","S1","","html-keyboard-response","19","141157","0.0-1.0-20.0","0","0","45920","","null","","","null","2","","","","","","","","","","","","","","","",""
"","ISI","","html-keyboard-response","20","142159","0.0-1.0-21.0","0","0","45920","","null","","","null","2","NaN","","","","","","","","","","","","","","",""
"","S2","","html-keyboard-response","21","142412","0.0-1.0-22.0","0","0","45920","","null","","","null","2","","NaN","","","","","","","","","","","","","",""
"","response","","html-keyboard-response","22","142998","0.0-1.0-23.0-0.0","0","0","45920","","584","","","75","2","","","1","2","training","adjacent","GF","7","6","P.jpg","M.jpg","0","0","1","",""
"","feedback","","html-keyboard-response","23","144002","0.0-1.0-24.0-0.0","0","0","45920","","null","","","null","2","","","","","","","","","","","","","","","",""
"","ITI","","html-keyboard-response","24","145005","0.0-1.0-27.0","0","0","45920","","null","","","null","2","","","","","","","","","","","","","","","NaN",""
"","S1","","html-keyboard-response","25","145259","0.0-1.0-29.0","0","0","45920","","null","","","null","3","","","","","","","","","","","","","","","",""
"","ISI","","html-keyboard-response","26","146263","0.0-1.0-30.0","0","0","45920","","null","","","null","3","NaN","","","","","","","","","","","","","","",""
"","S2","","html-keyboard-response","27","146516","0.0-1.0-31.0","0","0","45920","","null","","","null","3","","NaN","","","","","","","","","","","","","",""
"","response","","html-keyboard-response","28","146782","0.0-1.0-32.0-0.0","0","0","45920","","264","","","75","3","","","1","3","training","adjacent","GF","7","6","P.jpg","M.jpg","0","0","1","",""
"","feedback","","html-keyboard-response","29","147787","0.0-1.0-33.0-0.0","0","0","45920","","null","","","null","3","","","","","","","","","","","","","","","",""
"","ITI","","html-keyboard-response","30","148790","0.0-1.0-36.0","0","0","45920","","null","","","null","3","","","","","","","","","","","","","","","NaN",""
"","S1","","html-keyboard-response","31","149043","0.0-1.0-38.0","0","0","45920","","null","","","null","4","","","","","","","","","","","","","","","",""
"","ISI","","html-keyboard-response","32","150046","0.0-1.0-39.0","0","0","45920","","null","","","null","4","NaN","","","","","","","","","","","","","","",""
"","S2","","html-keyboard-response","33","150299","0.0-1.0-40.0","0","0","45920","","null","","","null","4","","NaN","","","","","","","","","","","","","",""
"","response","","html-keyboard-response","34","151004","0.0-1.0-41.0-0.0","0","0","45920","","703","","","75","4","","","1","4","training","adjacent","BC","2","3","N.jpg","L.jpg","0","1","0","",""
"","feedback","","html-keyboard-response","35","152006","0.0-1.0-42.0-0.0","0","0","45920","","null","","","null","4","","","","","","","","","","","","","","","",""
"","time_out","","html-keyboard-response","36","154010","0.0-1.0-44.0-0.0","0","0","45920","","null","","","null","4","","","","","","","","","","","","","","","",""
"","ITI","","html-keyboard-response","37","155013","0.0-1.0-45.0","0","0","45920","","null","","","null","4","","","","","","","","","","","","","","","NaN",""
"","S1","","html-keyboard-response","38","155267","0.0-1.0-47.0","0","0","45920","","null","","","null","5","","","","","","","","","","","","","","","",""
"","ISI","","html-keyboard-response","39","156270","0.0-1.0-48.0","0","0","45920","","null","","","null","5","NaN","","","","","","","","","","","","","","",""
"","S2","","html-keyboard-response","40","156534","0.0-1.0-49.0","0","0","45920","","null","","","null","5","","NaN","","","","","","","","","","","","","",""
"","response","","html-keyboard-response","41","157044","0.0-1.0-50.0-0.0","0","0","45920","","509","","","75","5","","","1","5","training","adjacent","AB","1","2","Q.jpg","N.jpg","0","1","0","",""
"","feedback","","html-keyboard-response","42","158046","0.0-1.0-51.0-0.0","0","0","45920","","null","","","null","5","","","","","","","","","","","","","","","",""
"","time_out","","html-keyboard-response","43","160050","0.0-1.0-53.0-0.0","0","0","45920","","null","","","null","5","","","","","","","","","","","","","","","",""
"","ITI","","html-keyboard-response","44","161052","0.0-1.0-54.0","0","0","45920","","null","","","null","5","","","","","","","","","","","","","","","NaN",""
"","S1","","html-keyboard-response","45","161305","0.0-1.0-56.0","0","0","45920","","null","","","null","6","","","","","","","","","","","","","","","",""
"","ISI","","html-keyboard-response","46","162307","0.0-1.0-57.0","0","0","45920","","null","","","null","6","NaN","","","","","","","","","","","","","","",""
"","S2","","html-keyboard-response","47","162559","0.0-1.0-58.0","0","0","45920","","null","","","null","6","","NaN","","","","","","","","","","","","","",""
"","response","","html-keyboard-response","48","163134","0.0-1.0-59.0-0.0","0","0","45920","","573","","","75","6","","","1","6","training","adjacent","FE","6","5","M.jpg","O.jpg","0","0","1","",""
"","feedback","","html-keyboard-response","49","164138","0.0-1.0-60.0-0.0","0","0","45920","","null","","","null","6","","","","","","","","","","","","","","","",""
"","ITI","","html-keyboard-response","50","165140","0.0-1.0-63.0","0","0","45920","","null","","","null","6","","","","","","","","","","","","","","","NaN",""
"","S1","","html-keyboard-response","51","165392","0.0-1.0-65.0","0","0","45920","","null","","","null","7","","","","","","","","","","","","","","","",""
"","ISI","","html-keyboard-response","52","166396","0.0-1.0-66.0","0","0","45920","","null","","","null","7","NaN","","","","","","","","","","","","","","",""
"","S2","","html-keyboard-response","53","166649","0.0-1.0-67.0","0","0","45920","","null","","","null","7","","NaN","","","","","","","","","","","","","",""
"","response","","html-keyboard-response","54","167364","0.0-1.0-68.0-0.0","0","0","45920","","713","","","68","7","","","1","7","training","adjacent","AB","1","2","Q.jpg","N.jpg","1","1","1","",""
"","feedback","","html-keyboard-response","55","168366","0.0-1.0-69.0-0.0","0","0","45920","","null","","","null","7","","","","","","","","","","","","","","","",""
"","ITI","","html-keyboard-response","56","169371","0.0-1.0-72.0","0","0","45920","","null","","","null","7","","","","","","","","","","","","","","","NaN",""
"","S1","","html-keyboard-response","57","169625","0.0-1.0-74.0","0","0","45920","","null","","","null","8","","","","","","","","","","","","","","","",""
"","ISI","","html-keyboard-response","58","170629","0.0-1.0-75.0","0","0","45920","","null","","","null","8","NaN","","","","","","","","","","","","","","",""
"","S2","","html-keyboard-response","59","170882","0.0-1.0-76.0","0","0","45920","","null","","","null","8","","NaN","","","","","","","","","","","","","",""
"","response","","html-keyboard-response","60","171164","0.0-1.0-77.0-0.0","0","0","45920","","280","","","68","8","","","1","8","training","adjacent","AB","1","2","Q.jpg","N.jpg","1","1","1","",""
"","feedback","","html-keyboard-response","61","172174","0.0-1.0-78.0-0.0","0","0","45920","","null","","","null","8","","","","","","","","","","","","","","","",""
"","ITI","","html-keyboard-response","62","173177","0.0-1.0-81.0","0","0","45920","","null","","","null","8","","","","","","","","","","","","","","","NaN",""
"","S1","","html-keyboard-response","63","173430","0.0-1.0-83.0","0","0","45920","","null","","","null","9","","","","","","","","","","","","","","","",""
"","ISI","","html-keyboard-response","64","174434","0.0-1.0-84.0","0","0","45920","","null","","","null","9","NaN","","","","","","","","","","","","","","",""
"","S2","","html-keyboard-response","65","174686","0.0-1.0-85.0","0","0","45920","","null","","","null","9","","NaN","","","","","","","","","","","","","",""
"","response","","html-keyboard-response","66","174980","0.0-1.0-86.0-0.0","0","0","45920","","292","","","75","9","","","1","9","training","adjacent","CD","3","4","L.jpg","R.jpg","0","1","0","",""
"","feedback","","html-keyboard-response","67","175982","0.0-1.0-87.0-0.0","0","0","45920","","null","","","null","9","","","","","","","","","","","","","","","",""
"","time_out","","html-keyboard-response","68","177986","0.0-1.0-89.0-0.0","0","0","45920","","null","","","null","9","","","","","","","","","","","","","","","",""
"","ITI","","html-keyboard-response","69","178989","0.0-1.0-90.0","0","0","45920","","null","","","null","9","","","","","","","","","","","","","","","NaN",""
"","S1","","html-keyboard-response","70","179241","0.0-1.0-92.0","0","0","45920","","null","","","null","10","","","","","","","","","","","","","","","",""
"","ISI","","html-keyboard-response","71","180245","0.0-1.0-93.0","0","0","45920","","null","","","null","10","NaN","","","","","","","","","","","","","","",""
"","S2","","html-keyboard-response","72","180500","0.0-1.0-94.0","0","0","45920","","null","","","null","10","","NaN","","","","","","","","","","","","","",""
"","response","","html-keyboard-response","73","181092","0.0-1.0-95.0-0.0","0","0","45920","","591","","","68","10","","","1","10","training","adjacent","CB","3","2","L.jpg","N.jpg","1","0","0","",""
"","feedback","","html-keyboard-response","74","182096","0.0-1.0-96.0-0.0","0","0","45920","","null","","","null","10","","","","","","","","","","","","","","","",""
"","time_out","","html-keyboard-response","75","184101","0.0-1.0-98.0-0.0","0","0","45920","","null","","","null","10","","","","","","","","","","","","","","","",""
"","ITI","","html-keyboard-response","76","185104","0.0-1.0-99.0","0","0","45920","","null","","","null","10","","","","","","","","","","","","","","","NaN",""
"","S1","","html-keyboard-response","77","185358","0.0-1.0-101.0","0","0","45920","","null","","","null","11","","","","","","","","","","","","","","","",""
"","ISI","","html-keyboard-response","78","186361","0.0-1.0-102.0","0","0","45920","","null","","","null","11","NaN","","","","","","","","","","","","","","",""
"","S2","","html-keyboard-response","79","186615","0.0-1.0-103.0","0","0","45920","","null","","","null","11","","NaN","","","","","","","","","","","","","",""
"","response","","html-keyboard-response","80","187212","0.0-1.0-104.0-0.0","0","0","45920","","595","","","75","11","","","1","11","training","adjacent","FG","6","7","M.jpg","P.jpg","0","1","0","",""
"","feedback","","html-keyboard-response","81","188215","0.0-1.0-105.0-0.0","0","0","45920","","null","","","null","11","","","","","","","","","","","","","","","",""
"","time_out","","html-keyboard-response","82","190219","0.0-1.0-107.0-0.0","0","0","45920","","null","","","null","11","","","","","","","","","","","","","","","",""
"","ITI","","html-keyboard-response","83","191221","0.0-1.0-108.0","0","0","45920","","null","","","null","11","","","","","","","","","","","","","","","NaN",""
"","S1","","html-keyboard-response","84","191475","0.0-1.0-110.0","0","0","45920","","null","","","null","12","","","","","","","","","","","","","","","",""
"","ISI","","html-keyboard-response","85","192479","0.0-1.0-111.0","0","0","45920","","null","","","null","12","NaN","","","","","","","","","","","","","","",""
"","S2","","html-keyboard-response","86","192733","0.0-1.0-112.0","0","0","45920","","null","","","null","12","","NaN","","","","","","","","","","","","","",""
"","response","","html-keyboard-response","87","193324","0.0-1.0-113.0-0.0","0","0","45920","","589","","","68","12","","","1","12","training","adjacent","BC","2","3","N.jpg","L.jpg","1","1","1","",""
"","feedback","","html-keyboard-response","88","194328","0.0-1.0-114.0-0.0","0","0","45920","","null","","","null","12","","","","","","","","","","","","","","","",""
"","ITI","","html-keyboard-response","89","195332","0.0-1.0-117.0","0","0","45920","","null","","","null","12","","","","","","","","","","","","","","","NaN",""
"","S1","","html-keyboard-response","90","195587","0.0-1.0-119.0","0","0","45920","","null","","","null","13","","","","","","","","","","","","","","","",""
"","ISI","","html-keyboard-response","91","196591","0.0-1.0-120.0","0","0","45920","","null","","","null","13","NaN","","","","","","","","","","","","","","",""
"","S2","","html-keyboard-response","92","196845","0.0-1.0-121.0","0","0","45920","","null","","","null","13","","NaN","","","","","","","","","","","","","",""
"","response","","html-keyboard-response","93","197396","0.0-1.0-122.0-0.0","0","0","45920","","550","","","68","13","","","1","13","training","adjacent","AB","1","2","Q.jpg","N.jpg","1","1","1","",""
"","feedback","","html-keyboard-response","94","198401","0.0-1.0-123.0-0.0","0","0","45920","","null","","","null","13","","","","","","","","","","","","","","","",""
"","ITI","","html-keyboard-response","95","199404","0.0-1.0-126.0","0","0","45920","","null","","","null","13","","","","","","","","","","","","","","","NaN",""
"","S1","","html-keyboard-response","96","199658","0.0-1.0-128.0","0","0","45920","","null","","","null","14","","","","","","","","","","","","","","","",""
"","ISI","","html-keyboard-response","97","200660","0.0-1.0-129.0","0","0","45920","","null","","","null","14","NaN","","","","","","","","","","","","","","",""
"","S2","","html-keyboard-response","98","200912","0.0-1.0-130.0","0","0","45920","","null","","","null","14","","NaN","","","","","","","","","","","","","",""
"","response","","html-keyboard-response","99","201636","0.0-1.0-131.0-0.0","0","0","45920","","722","","","68","14","","","1","14","training","adjacent","DC","4","3","R.jpg","L.jpg","1","0","0","",""
"","feedback","","html-keyboard-response","100","202639","0.0-1.0-132.0-0.0","0","0","45920","","null","","","null","14","","","","","","","","","","","","","","","",""
"","time_out","","html-keyboard-response","101","204642","0.0-1.0-134.0-0.0","0","0","45920","","null","","","null","14","","","","","","","","","","","","","","","",""
"","ITI","","html-keyboard-response","102","205646","0.0-1.0-135.0","0","0","45920","","null","","","null","14","","","","","","","","","","","","","","","NaN",""
"","S1","","html-keyboard-response","103","205900","0.0-1.0-137.0","0","0","45920","","null","","","null","15","","","","","","","","","","","","","","","",""
"","ISI","","html-keyboard-response","104","206901","0.0-1.0-138.0","0","0","45920","","null","","","null","15","NaN","","","","","","","","","","","","","","",""
"","S2","","html-keyboard-response","105","207154","0.0-1.0-139.0","0","0","45920","","null","","","null","15","","NaN","","","","","","","","","","","","","",""
"","response","","html-keyboard-response","106","207886","0.0-1.0-140.0-0.0","0","0","45920","","730","","","68","15","","","1","15","training","adjacent","DE","4","5","R.jpg","O.jpg","1","1","1","",""
"","feedback","","html-keyboard-response","107","208891","0.0-1.0-141.0-0.0","0","0","45920","","null","","","null","15","","","","","","","","","","","","","","","",""
"","ITI","","html-keyboard-response","108","209896","0.0-1.0-144.0","0","0","45920","","null","","","null","15","","","","","","","","","","","","","","","NaN",""
"","S1","","html-keyboard-response","109","210150","0.0-1.0-146.0","0","0","45920","","null","","","null","16","","","","","","","","","","","","","","","",""
"","ISI","","html-keyboard-response","110","211153","0.0-1.0-147.0","0","0","45920","","null","","","null","16","NaN","","","","","","","","","","","","","","",""
"","S2","","html-keyboard-response","111","211406","0.0-1.0-148.0","0","0","45920","","null","","","null","16","","NaN","","","","","","","","","","","","","",""
"","response","","html-keyboard-response","112","211741","0.0-1.0-149.0-0.0","0","0","45920","","333","","","68","16","","","1","16","training","adjacent","CB","3","2","L.jpg","N.jpg","1","0","0","",""
"","feedback","","html-keyboard-response","113","212745","0.0-1.0-150.0-0.0","0","0","45920","","null","","","null","16","","","","","","","","","","","","","","","",""
"","time_out","","html-keyboard-response","114","214748","0.0-1.0-152.0-0.0","0","0","45920","","null","","","null","16","","","","","","","","","","","","","","","",""
"","ITI","","html-keyboard-response","115","215753","0.0-1.0-153.0","0","0","45920","","null","","","null","16","","","","","","","","","","","","","","","NaN",""
"","S1","","html-keyboard-response","116","216007","0.0-1.0-155.0","0","0","45920","","null","","","null","17","","","","","","","","","","","","","","","",""
"","ISI","","html-keyboard-response","117","217010","0.0-1.0-156.0","0","0","45920","","null","","","null","17","NaN","","","","","","","","","","","","","","",""
"","S2","","html-keyboard-response","118","217262","0.0-1.0-157.0","0","0","45920","","null","","","null","17","","NaN","","","","","","","","","","","","","",""
"","response","","html-keyboard-response","119","217629","0.0-1.0-158.0-0.0","0","0","45920","","364","","","75","17","","","1","17","training","adjacent","CB","3","2","L.jpg","N.jpg","0","0","1","",""
"","feedback","","html-keyboard-response","120","218635","0.0-1.0-159.0-0.0","0","0","45920","","null","","","null","17","","","","","","","","","","","","","","","",""
"","ITI","","html-keyboard-response","121","219639","0.0-1.0-162.0","0","0","45920","","null","","","null","17","","","","","","","","","","","","","","","NaN",""
"","S1","","html-keyboard-response","122","219893","0.0-1.0-164.0","0","0","45920","","null","","","null","18","","","","","","","","","","","","","","","",""
"","ISI","","html-keyboard-response","123","220895","0.0-1.0-165.0","0","0","45920","","null","","","null","18","NaN","","","","","","","","","","","","","","",""
"","S2","","html-keyboard-response","124","221155","0.0-1.0-166.0","0","0","45920","","null","","","null","18","","NaN","","","","","","","","","","","","","",""
"","response","","html-keyboard-response","125","221702","0.0-1.0-167.0-0.0","0","0","45920","","544","","","75","18","","","1","18","training","adjacent","FG","6","7","M.jpg","P.jpg","0","1","0","",""
"","feedback","","html-keyboard-response","126","222706","0.0-1.0-168.0-0.0","0","0","45920","","null","","","null","18","","","","","","","","","","","","","","","",""
"","time_out","","html-keyboard-response","127","224711","0.0-1.0-170.0-0.0","0","0","45920","","null","","","null","18","","","","","","","","","","","","","","","",""
"","ITI","","html-keyboard-response","128","225713","0.0-1.0-171.0","0","0","45920","","null","","","null","18","","","","","","","","","","","","","","","NaN",""
"","S1","","html-keyboard-response","129","225966","0.0-1.0-173.0","0","0","45920","","null","","","null","19","","","","","","","","","","","","","","","",""
"","ISI","","html-keyboard-response","130","226981","0.0-1.0-174.0","0","0","45920","","null","","","null","19","NaN","","","","","","","","","","","","","","",""
"","S2","","html-keyboard-response","131","227233","0.0-1.0-175.0","0","0","45920","","null","","","null","19","","NaN","","","","","","","","","","","","","",""
"","response","","html-keyboard-response","132","227974","0.0-1.0-176.0-0.0","0","0","45920","","737","","","75","19","","","1","19","training","adjacent","ED","5","4","O.jpg","R.jpg","0","0","1","",""
"","feedback","","html-keyboard-response","133","228977","0.0-1.0-177.0-0.0","0","0","45920","","null","","","null","19","","","","","","","","","","","","","","","",""
"","ITI","","html-keyboard-response","134","229980","0.0-1.0-180.0","0","0","45920","","null","","","null","19","","","","","","","","","","","","","","","NaN",""
"","S1","","html-keyboard-response","135","230234","0.0-1.0-182.0","0","0","45920","","null","","","null","20","","","","","","","","","","","","","","","",""
"","ISI","","html-keyboard-response","136","231238","0.0-1.0-183.0","0","0","45920","","null","","","null","20","NaN","","","","","","","","","","","","","","",""
"","S2","","html-keyboard-response","137","231493","0.0-1.0-184.0","0","0","45920","","null","","","null","20","","NaN","","","","","","","","","","","","","",""
"","response","","html-keyboard-response","138","231940","0.0-1.0-185.0-0.0","0","0","45920","","445","","","68","20","","","1","20","training","adjacent","DE","4","5","R.jpg","O.jpg","1","1","1","",""
"","feedback","","html-keyboard-response","139","232944","0.0-1.0-186.0-0.0","0","0","45920","","null","","","null","20","","","","","","","","","","","","","","","",""
"","ITI","","html-keyboard-response","140","233947","0.0-1.0-189.0","0","0","45920","","null","","","null","20","","","","","","","","","","","","","","","NaN",""
"","S1","","html-keyboard-response","141","234200","0.0-1.0-191.0","0","0","45920","","null","","","null","21","","","","","","","","","","","","","","","",""
"","ISI","","html-keyboard-response","142","235204","0.0-1.0-192.0","0","0","45920","","null","","","null","21","NaN","","","","","","","","","","","","","","",""
"","S2","","html-keyboard-response","143","235456","0.0-1.0-193.0","0","0","45920","","null","","","null","21","","NaN","","","","","","","","","","","","","",""
"","response","","html-keyboard-response","144","235771","0.0-1.0-194.0-0.0","0","0","45920","","314","","","68","21","","","1","21","training","adjacent","DC","4","3","R.jpg","L.jpg","1","0","0","",""
"","feedback","","html-keyboard-response","145","236774","0.0-1.0-195.0-0.0","0","0","45920","","null","","","null","21","","","","","","","","","","","","","","","",""
"","time_out","","html-keyboard-response","146","238777","0.0-1.0-197.0-0.0","0","0","45920","","null","","","null","21","","","","","","","","","","","","","","","",""
"","ITI","","html-keyboard-response","147","239781","0.0-1.0-198.0","0","0","45920","","null","","","null","21","","","","","","","","","","","","","","","NaN",""
"","S1","","html-keyboard-response","148","240035","0.0-1.0-200.0","0","0","45920","","null","","","null","22","","","","","","","","","","","","","","","",""
"","ISI","","html-keyboard-response","149","241038","0.0-1.0-201.0","0","0","45920","","null","","","null","22","NaN","","","","","","","","","","","","","","",""
"","S2","","html-keyboard-response","150","241293","0.0-1.0-202.0","0","0","45920","","null","","","null","22","","NaN","","","","","","","","","","","","","",""
"","response","","html-keyboard-response","151","241891","0.0-1.0-203.0-0.0","0","0","45920","","598","","","75","22","","","1","22","training","adjacent","FG","6","7","M.jpg","P.jpg","0","1","0","",""
"","feedback","","html-keyboard-response","152","242894","0.0-1.0-204.0-0.0","0","0","45920","","null","","","null","22","","","","","","","","","","","","","","","",""
"","time_out","","html-keyboard-response","153","244897","0.0-1.0-206.0-0.0","0","0","45920","","null","","","null","22","","","","","","","","","","","","","","","",""
"","ITI","","html-keyboard-response","154","245900","0.0-1.0-207.0","0","0","45920","","null","","","null","22","","","","","","","","","","","","","","","NaN",""
"","S1","","html-keyboard-response","155","246153","0.0-1.0-209.0","0","0","45920","","null","","","null","23","","","","","","","","","","","","","","","",""
"","ISI","","html-keyboard-response","156","247157","0.0-1.0-210.0","0","0","45920","","null","","","null","23","NaN","","","","","","","","","","","","","","",""
"","S2","","html-keyboard-response","157","247411","0.0-1.0-211.0","0","0","45920","","null","","","null","23","","NaN","","","","","","","","","","","","","",""
"","response","","html-keyboard-response","158","247782","0.0-1.0-212.0-0.0","0","0","45920","","369","","","75","23","","","1","23","training","adjacent","GF","7","6","P.jpg","M.jpg","0","0","1","",""
"","feedback","","html-keyboard-response","159","248792","0.0-1.0-213.0-0.0","0","0","45920","","null","","","null","23","","","","","","","","","","","","","","","",""
"","ITI","","html-keyboard-response","160","249797","0.0-1.0-216.0","0","0","45920","","null","","","null","23","","","","","","","","","","","","","","","NaN",""
"","S1","","html-keyboard-response","161","250051","0.0-1.0-218.0","0","0","45920","","null","","","null","24","","","","","","","","","","","","","","","",""
"","ISI","","html-keyboard-response","162","251054","0.0-1.0-219.0","0","0","45920","","null","","","null","24","NaN","","","","","","","","","","","","","","",""
"","S2","","html-keyboard-response","163","251308","0.0-1.0-220.0","0","0","45920","","null","","","null","24","","NaN","","","","","","","","","","","","","",""
"","response","","html-keyboard-response","164","251899","0.0-1.0-221.0-0.0","0","0","45920","","590","","","75","24","","","1","24","training","adjacent","GF","7","6","P.jpg","M.jpg","0","0","1","",""
"","feedback","","html-keyboard-response","165","252904","0.0-1.0-222.0-0.0","0","0","45920","","null","","","null","24","","","","","","","","","","","","","","","",""
"","ITI","","html-keyboard-response","166","253908","0.0-1.0-225.0","0","0","45920","","null","","","null","24","","","","","","","","","","","","","","","NaN",""
"","S1","","html-keyboard-response","167","254163","0.0-1.0-227.0","0","0","45920","","null","","","null","25","","","","","","","","","","","","","","","",""
"","ISI","","html-keyboard-response","168","255165","0.0-1.0-228.0","0","0","45920","","null","","","null","25","NaN","","","","","","","","","","","","","","",""
"","S2","","html-keyboard-response","169","255430","0.0-1.0-229.0","0","0","45920","","null","","","null","25","","NaN","","","","","","","","","","","","","",""
"","response","","html-keyboard-response","170","255956","0.0-1.0-230.0-0.0","0","0","45920","","524","","","75","25","","","1","25","training","adjacent","ED","5","4","O.jpg","R.jpg","0","0","1","",""
"","feedback","","html-keyboard-response","171","256958","0.0-1.0-231.0-0.0","0","0","45920","","null","","","null","25","","","","","","","","","","","","","","","",""
"","ITI","","html-keyboard-response","172","257961","0.0-1.0-234.0","0","0","45920","","null","","","null","25","","","","","","","","","","","","","","","NaN",""
"","S1","","html-keyboard-response","173","258213","0.0-1.0-236.0","0","0","45920","","null","","","null","26","","","","","","","","","","","","","","","",""
"","ISI","","html-keyboard-response","174","259216","0.0-1.0-237.0","0","0","45920","","null","","","null","26","NaN","","","","","","","","","","","","","","",""
"","S2","","html-keyboard-response","175","259468","0.0-1.0-238.0","0","0","45920","","null","","","null","26","","NaN","","","","","","","","","","","","","",""
"","response","","html-keyboard-response","176","260043","0.0-1.0-239.0-0.0","0","0","45920","","575","","","75","26","","","1","26","training","adjacent","CD","3","4","L.jpg","R.jpg","0","1","0","",""
"","feedback","","html-keyboard-response","177","261047","0.0-1.0-240.0-0.0","0","0","45920","","null","","","null","26","","","","","","","","","","","","","","","",""
"","time_out","","html-keyboard-response","178","263051","0.0-1.0-242.0-0.0","0","0","45920","","null","","","null","26","","","","","","","","","","","","","","","",""
"","ITI","","html-keyboard-response","179","264055","0.0-1.0-243.0","0","0","45920","","null","","","null","26","","","","","","","","","","","","","","","NaN",""
"","S1","","html-keyboard-response","180","264318","0.0-1.0-245.0","0","0","45920","","null","","","null","27","","","","","","","","","","","","","","","",""
"","ISI","","html-keyboard-response","181","265322","0.0-1.0-246.0","0","0","45920","","null","","","null","27","NaN","","","","","","","","","","","","","","",""
"","S2","","html-keyboard-response","182","265576","0.0-1.0-247.0","0","0","45920","","null","","","null","27","","NaN","","","","","","","","","","","","","",""
"","response","","html-keyboard-response","183","266739","0.0-1.0-248.0-0.0","0","0","45920","","1163","","","75","27","","","1","27","training","adjacent","EF","5","6","O.jpg","M.jpg","0","1","0","",""
"","feedback","","html-keyboard-response","184","267743","0.0-1.0-249.0-0.0","0","0","45920","","null","","","null","27","","","","","","","","","","","","","","","",""
"","time_out","","html-keyboard-response","185","269746","0.0-1.0-251.0-0.0","0","0","45920","","null","","","null","27","","","","","","","","","","","","","","","",""
"","ITI","","html-keyboard-response","186","270748","0.0-1.0-252.0","0","0","45920","","null","","","null","27","","","","","","","","","","","","","","","NaN",""
"","S1","","html-keyboard-response","187","271000","0.0-1.0-254.0","0","0","45920","","null","","","null","28","","","","","","","","","","","","","","","",""
"","ISI","","html-keyboard-response","188","272007","0.0-1.0-255.0","0","0","45920","","null","","","null","28","NaN","","","","","","","","","","","","","","",""
"","S2","","html-keyboard-response","189","272259","0.0-1.0-256.0","0","0","45920","","null","","","null","28","","NaN","","","","","","","","","","","","","",""
"","response","","html-keyboard-response","190","272534","0.0-1.0-257.0-0.0","0","0","45920","","273","","","68","28","","","1","28","training","adjacent","DC","4","3","R.jpg","L.jpg","1","0","0","",""
"","feedback","","html-keyboard-response","191","273538","0.0-1.0-258.0-0.0","0","0","45920","","null","","","null","28","","","","","","","","","","","","","","","",""
"","time_out","","html-keyboard-response","192","275548","0.0-1.0-260.0-0.0","0","0","45920","","null","","","null","28","","","","","","","","","","","","","","","",""
"","ITI","","html-keyboard-response","193","276552","0.0-1.0-261.0","0","0","45920","","null","","","null","28","","","","","","","","","","","","","","","NaN",""
"","S1","","html-keyboard-response","194","276805","0.0-1.0-263.0","0","0","45920","","null","","","null","29","","","","","","","","","","","","","","","",""
"","ISI","","html-keyboard-response","195","277810","0.0-1.0-264.0","0","0","45920","","null","","","null","29","NaN","","","","","","","","","","","","","","",""
"","S2","","html-keyboard-response","196","278064","0.0-1.0-265.0","0","0","45920","","null","","","null","29","","NaN","","","","","","","","","","","","","",""
"","response","","html-keyboard-response","197","279190","0.0-1.0-266.0-0.0","0","0","45920","","1123","","","68","29","","","1","29","training","adjacent","FE","6","5","M.jpg","O.jpg","1","0","0","",""
"","feedback","","html-keyboard-response","198","280192","0.0-1.0-267.0-0.0","0","0","45920","","null","","","null","29","","","","","","","","","","","","","","","",""
"","time_out","","html-keyboard-response","199","282194","0.0-1.0-269.0-0.0","0","0","45920","","null","","","null","29","","","","","","","","","","","","","","","",""
"","ITI","","html-keyboard-response","200","283197","0.0-1.0-270.0","0","0","45920","","null","","","null","29","","","","","","","","","","","","","","","NaN",""
"","S1","","html-keyboard-response","201","283448","0.0-1.0-272.0","0","0","45920","","null","","","null","30","","","","","","","","","","","","","","","",""
"","ISI","","html-keyboard-response","202","284451","0.0-1.0-273.0","0","0","45920","","null","","","null","30","NaN","","","","","","","","","","","","","","",""
"","S2","","html-keyboard-response","203","284702","0.0-1.0-274.0","0","0","45920","","null","","","null","30","","NaN","","","","","","","","","","","","","",""
"","response","","html-keyboard-response","204","285141","0.0-1.0-275.0-0.0","0","0","45920","","437","","","75","30","","","1","30","training","adjacent","CD","3","4","L.jpg","R.jpg","0","1","0","",""
"","feedback","","html-keyboard-response","205","286145","0.0-1.0-276.0-0.0","0","0","45920","","null","","","null","30","","","","","","","","","","","","","","","",""
"","time_out","","html-keyboard-response","206","288150","0.0-1.0-278.0-0.0","0","0","45920","","null","","","null","30","","","","","","","","","","","","","","","",""
"","ITI","","html-keyboard-response","207","289152","0.0-1.0-279.0","0","0","45920","","null","","","null","30","","","","","","","","","","","","","","","NaN",""
"","S1","","html-keyboard-response","208","289405","0.0-1.0-281.0","0","0","45920","","null","","","null","31","","","","","","","","","","","","","","","",""
"","ISI","","html-keyboard-response","209","290408","0.0-1.0-282.0","0","0","45920","","null","","","null","31","NaN","","","","","","","","","","","","","","",""
"","S2","","html-keyboard-response","210","290663","0.0-1.0-283.0","0","0","45920","","null","","","null","31","","NaN","","","","","","","","","","","","","",""
"","response","","html-keyboard-response","211","291053","0.0-1.0-284.0-0.0","0","0","45920","","387","","","68","31","","","1","31","training","adjacent","DC","4","3","R.jpg","L.jpg","1","0","0","",""
"","feedback","","html-keyboard-response","212","292056","0.0-1.0-285.0-0.0","0","0","45920","","null","","","null","31","","","","","","","","","","","","","","","",""
"","time_out","","html-keyboard-response","213","294059","0.0-1.0-287.0-0.0","0","0","45920","","null","","","null","31","","","","","","","","","","","","","","","",""
"","ITI","","html-keyboard-response","214","295061","0.0-1.0-288.0","0","0","45920","","null","","","null","31","","","","","","","","","","","","","","","NaN",""
"","S1","","html-keyboard-response","215","295312","0.0-1.0-290.0","0","0","45920","","null","","","null","32","","","","","","","","","","","","","","","",""
"","ISI","","html-keyboard-response","216","296316","0.0-1.0-291.0","0","0","45920","","null","","","null","32","NaN","","","","","","","","","","","","","","",""
"","S2","","html-keyboard-response","217","296570","0.0-1.0-292.0","0","0","45920","","null","","","null","32","","NaN","","","","","","","","","","","","","",""
"","response","","html-keyboard-response","218","297326","0.0-1.0-293.0-0.0","0","0","45920","","753","","","68","32","","","1","32","training","adjacent","FE","6","5","M.jpg","O.jpg","1","0","0","",""
"","feedback","","html-keyboard-response","219","298328","0.0-1.0-294.0-0.0","0","0","45920","","null","","","null","32","","","","","","","","","","","","","","","",""
"","time_out","","html-keyboard-response","220","300345","0.0-1.0-296.0-0.0","0","0","45920","","null","","","null","32","","","","","","","","","","","","","","","",""
"","ITI","","html-keyboard-response","221","301348","0.0-1.0-297.0","0","0","45920","","null","","","null","32","","","","","","","","","","","","","","","NaN",""
"","S1","","html-keyboard-response","222","301602","0.0-1.0-299.0","0","0","45920","","null","","","null","33","","","","","","","","","","","","","","","",""
"","ISI","","html-keyboard-response","223","302605","0.0-1.0-300.0","0","0","45920","","null","","","null","33","NaN","","","","","","","","","","","","","","",""
"","S2","","html-keyboard-response","224","302858","0.0-1.0-301.0","0","0","45920","","null","","","null","33","","NaN","","","","","","","","","","","","","",""
"","response","","html-keyboard-response","225","303676","0.0-1.0-302.0-0.0","0","0","45920","","817","","","68","33","","","1","33","training","adjacent","CD","3","4","L.jpg","R.jpg","1","1","1","",""
"","feedback","","html-keyboard-response","226","304679","0.0-1.0-303.0-0.0","0","0","45920","","null","","","null","33","","","","","","","","","","","","","","","",""
"","ITI","","html-keyboard-response","227","305682","0.0-1.0-306.0","0","0","45920","","null","","","null","33","","","","","","","","","","","","","","","NaN",""
"","S1","","html-keyboard-response","228","305936","0.0-1.0-308.0","0","0","45920","","null","","","null","34","","","","","","","","","","","","","","","",""
"","ISI","","html-keyboard-response","229","306940","0.0-1.0-309.0","0","0","45920","","null","","","null","34","NaN","","","","","","","","","","","","","","",""
"","S2","","html-keyboard-response","230","307192","0.0-1.0-310.0","0","0","45920","","null","","","null","34","","NaN","","","","","","","","","","","","","",""
"","response","","html-keyboard-response","231","307572","0.0-1.0-311.0-0.0","0","0","45920","","379","","","75","34","","","1","34","training","adjacent","DE","4","5","R.jpg","O.jpg","0","1","0","",""
"","feedback","","html-keyboard-response","232","308574","0.0-1.0-312.0-0.0","0","0","45920","","null","","","null","34","","","","","","","","","","","","","","","",""
"","time_out","","html-keyboard-response","233","310577","0.0-1.0-314.0-0.0","0","0","45920","","null","","","null","34","","","","","","","","","","","","","","","",""
"","ITI","","html-keyboard-response","234","311582","0.0-1.0-315.0","0","0","45920","","null","","","null","34","","","","","","","","","","","","","","","NaN",""
"","S1","","html-keyboard-response","235","311836","0.0-1.0-317.0","0","0","45920","","null","","","null","35","","","","","","","","","","","","","","","",""
"","ISI","","html-keyboard-response","236","312841","0.0-1.0-318.0","0","0","45920","","null","","","null","35","NaN","","","","","","","","","","","","","","",""
"","S2","","html-keyboard-response","237","313095","0.0-1.0-319.0","0","0","45920","","null","","","null","35","","NaN","","","","","","","","","","","","","",""
"","response","","html-keyboard-response","238","313628","0.0-1.0-320.0-0.0","0","0","45920","","531","","","75","35","","","1","35","training","adjacent","EF","5","6","O.jpg","M.jpg","0","1","0","",""
"","feedback","","html-keyboard-response","239","314630","0.0-1.0-321.0-0.0","0","0","45920","","null","","","null","35","","","","","","","","","","","","","","","",""
"","time_out","","html-keyboard-response","240","316633","0.0-1.0-323.0-0.0","0","0","45920","","null","","","null","35","","","","","","","","","","","","","","","",""
"","ITI","","html-keyboard-response","241","317636","0.0-1.0-324.0","0","0","45920","","null","","","null","35","","","","","","","","","","","","","","","NaN",""
"","S1","","html-keyboard-response","242","317890","0.0-1.0-326.0","0","0","45920","","null","","","null","36","","","","","","","","","","","","","","","",""
"","ISI","","html-keyboard-response","243","318893","0.0-1.0-327.0","0","0","45920","","null","","","null","36","NaN","","","","","","","","","","","","","","",""
"","S2","","html-keyboard-response","244","319146","0.0-1.0-328.0","0","0","45920","","null","","","null","36","","NaN","","","","","","","","","","","","","",""
"","response","","html-keyboard-response","245","319651","0.0-1.0-329.0-0.0","0","0","45920","","505","","","68","36","","","1","36","training","adjacent","ED","5","4","O.jpg","R.jpg","1","0","0","",""
"","feedback","","html-keyboard-response","246","320656","0.0-1.0-330.0-0.0","0","0","45920","","null","","","null","36","","","","","","","","","","","","","","","",""
"","time_out","","html-keyboard-response","247","322660","0.0-1.0-332.0-0.0","0","0","45920","","null","","","null","36","","","","","","","","","","","","","","","",""
"","ITI","","html-keyboard-response","248","323664","0.0-1.0-333.0","0","0","45920","","null","","","null","36","","","","","","","","","","","","","","","NaN",""
"","S1","","html-keyboard-response","249","323918","0.0-1.0-335.0","0","0","45920","","null","","","null","37","","","","","","","","","","","","","","","",""
"","ISI","","html-keyboard-response","250","324921","0.0-1.0-336.0","0","0","45920","","null","","","null","37","NaN","","","","","","","","","","","","","","",""
"","S2","","html-keyboard-response","251","325174","0.0-1.0-337.0","0","0","45920","","null","","","null","37","","NaN","","","","","","","","","","","","","",""
"","response","","html-keyboard-response","252","325446","0.0-1.0-338.0-0.0","0","0","45920","","269","","","68","37","","","1","37","training","adjacent","DE","4","5","R.jpg","O.jpg","1","1","1","",""
"","feedback","","html-keyboard-response","253","326451","0.0-1.0-339.0-0.0","0","0","45920","","null","","","null","37","","","","","","","","","","","","","","","",""
"","ITI","","html-keyboard-response","254","327455","0.0-1.0-342.0","0","0","45920","","null","","","null","37","","","","","","","","","","","","","","","NaN",""
"","S1","","html-keyboard-response","255","327708","0.0-1.0-344.0","0","0","45920","","null","","","null","38","","","","","","","","","","","","","","","",""
"","ISI","","html-keyboard-response","256","328711","0.0-1.0-345.0","0","0","45920","","null","","","null","38","NaN","","","","","","","","","","","","","","",""
"","S2","","html-keyboard-response","257","328964","0.0-1.0-346.0","0","0","45920","","null","","","null","38","","NaN","","","","","","","","","","","","","",""
"","response","","html-keyboard-response","258","329444","0.0-1.0-347.0-0.0","0","0","45920","","478","","","75","38","","","1","38","training","adjacent","BA","2","1","N.jpg","Q.jpg","0","0","1","",""
"","feedback","","html-keyboard-response","259","330447","0.0-1.0-348.0-0.0","0","0","45920","","null","","","null","38","","","","","","","","","","","","","","","",""
"","ITI","","html-keyboard-response","260","331451","0.0-1.0-351.0","0","0","45920","","null","","","null","38","","","","","","","","","","","","","","","NaN",""
"","S1","","html-keyboard-response","261","331704","0.0-1.0-353.0","0","0","45920","","null","","","null","39","","","","","","","","","","","","","","","",""
"","ISI","","html-keyboard-response","262","332708","0.0-1.0-354.0","0","0","45920","","null","","","null","39","NaN","","","","","","","","","","","","","","",""
"","S2","","html-keyboard-response","263","332961","0.0-1.0-355.0","0","0","45920","","null","","","null","39","","NaN","","","","","","","","","","","","","",""
"","response","","html-keyboard-response","264","333735","0.0-1.0-356.0-0.0","0","0","45920","","771","","","68","39","","","1","39","training","adjacent","FE","6","5","M.jpg","O.jpg","1","0","0","",""
"","feedback","","html-keyboard-response","265","334740","0.0-1.0-357.0-0.0","0","0","45920","","null","","","null","39","","","","","","","","","","","","","","","",""
"","time_out","","html-keyboard-response","266","336743","0.0-1.0-359.0-0.0","0","0","45920","","null","","","null","39","","","","","","","","","","","","","","","",""
"","ITI","","html-keyboard-response","267","337747","0.0-1.0-360.0","0","0","45920","","null","","","null","39","","","","","","","","","","","","","","","NaN",""
"","S1","","html-keyboard-response","268","338001","0.0-1.0-362.0","0","0","45920","","null","","","null","40","","","","","","","","","","","","","","","",""
"","ISI","","html-keyboard-response","269","339003","0.0-1.0-363.0","0","0","45920","","null","","","null","40","NaN","","","","","","","","","","","","","","",""
"","S2","","html-keyboard-response","270","339256","0.0-1.0-364.0","0","0","45920","","null","","","null","40","","NaN","","","","","","","","","","","","","",""
"","response","","html-keyboard-response","271","339654","0.0-1.0-365.0-0.0","0","0","45920","","395","","","75","40","","","1","40","training","adjacent","BA","2","1","N.jpg","Q.jpg","0","0","1","",""
"","feedback","","html-keyboard-response","272","340658","0.0-1.0-366.0-0.0","0","0","45920","","null","","","null","40","","","","","","","","","","","","","","","",""
"","ITI","","html-keyboard-response","273","341661","0.0-1.0-369.0","0","0","45920","","null","","","null","40","","","","","","","","","","","","","","","NaN",""
"","S1","","html-keyboard-response","274","341915","0.0-1.0-371.0","0","0","45920","","null","","","null","41","","","","","","","","","","","","","","","",""
"","ISI","","html-keyboard-response","275","342917","0.0-1.0-372.0","0","0","45920","","null","","","null","41","NaN","","","","","","","","","","","","","","",""
"","S2","","html-keyboard-response","276","343169","0.0-1.0-373.0","0","0","45920","","null","","","null","41","","NaN","","","","","","","","","","","","","",""
"","response","","html-keyboard-response","277","343595","0.0-1.0-374.0-0.0","0","0","45920","","425","","","75","41","","","1","41","training","adjacent","BA","2","1","N.jpg","Q.jpg","0","0","1","",""
"","feedback","","html-keyboard-response","278","344599","0.0-1.0-375.0-0.0","0","0","45920","","null","","","null","41","","","","","","","","","","","","","","","",""
"","ITI","","html-keyboard-response","279","345603","0.0-1.0-378.0","0","0","45920","","null","","","null","41","","","","","","","","","","","","","","","NaN",""
"","S1","","html-keyboard-response","280","345857","0.0-1.0-380.0","0","0","45920","","null","","","null","42","","","","","","","","","","","","","","","",""
"","ISI","","html-keyboard-response","281","346860","0.0-1.0-381.0","0","0","45920","","null","","","null","42","NaN","","","","","","","","","","","","","","",""
"","S2","","html-keyboard-response","282","347112","0.0-1.0-382.0","0","0","45920","","null","","","null","42","","NaN","","","","","","","","","","","","","",""
"","response","","html-keyboard-response","283","347734","0.0-1.0-383.0-0.0","0","0","45920","","619","","","68","42","","","1","42","training","adjacent","EF","5","6","O.jpg","M.jpg","1","1","1","",""
"","feedback","","html-keyboard-response","284","348740","0.0-1.0-384.0-0.0","0","0","45920","","null","","","null","42","","","","","","","","","","","","","","","",""
"","ITI","","html-keyboard-response","285","349744","0.0-1.0-387.0","0","0","45920","","null","","","null","42","","","","","","","","","","","","","","","NaN",""
"","S1","","html-keyboard-response","286","349999","0.0-1.0-389.0","0","0","45920","","null","","","null","43","","","","","","","","","","","","","","","",""
"","ISI","","html-keyboard-response","287","351002","0.0-1.0-390.0","0","0","45920","","null","","","null","43","NaN","","","","","","","","","","","","","","",""
"","S2","","html-keyboard-response","288","351257","0.0-1.0-391.0","0","0","45920","","null","","","null","43","","NaN","","","","","","","","","","","","","",""
"","response","","html-keyboard-response","289","352230","0.0-1.0-392.0-0.0","0","0","45920","","969","","","68","43","","","1","43","training","adjacent","BC","2","3","N.jpg","L.jpg","1","1","1","",""
"","feedback","","html-keyboard-response","290","353235","0.0-1.0-393.0-0.0","0","0","45920","","null","","","null","43","","","","","","","","","","","","","","","",""
"","ITI","","html-keyboard-response","291","354239","0.0-1.0-396.0","0","0","45920","","null","","","null","43","","","","","","","","","","","","","","","NaN",""
"","S1","","html-keyboard-response","292","354512","0.0-1.0-398.0","0","0","45920","","null","","","null","44","","","","","","","","","","","","","","","",""
"","ISI","","html-keyboard-response","293","355515","0.0-1.0-399.0","0","0","45920","","null","","","null","44","NaN","","","","","","","","","","","","","","",""
"","S2","","html-keyboard-response","294","355768","0.0-1.0-400.0","0","0","45920","","null","","","null","44","","NaN","","","","","","","","","","","","","",""
"","response","","html-keyboard-response","295","356148","0.0-1.0-401.0-0.0","0","0","45920","","379","","","68","44","","","1","44","training","adjacent","BC","2","3","N.jpg","L.jpg","1","1","1","",""
"","feedback","","html-keyboard-response","296","357152","0.0-1.0-402.0-0.0","0","0","45920","","null","","","null","44","","","","","","","","","","","","","","","",""
"","ITI","","html-keyboard-response","297","358155","0.0-1.0-405.0","0","0","45920","","null","","","null","44","","","","","","","","","","","","","","","NaN",""
"","S1","","html-keyboard-response","298","358408","0.0-1.0-407.0","0","0","45920","","null","","","null","45","","","","","","","","","","","","","","","",""
"","ISI","","html-keyboard-response","299","359411","0.0-1.0-408.0","0","0","45920","","null","","","null","45","NaN","","","","","","","","","","","","","","",""
"","S2","","html-keyboard-response","300","359664","0.0-1.0-409.0","0","0","45920","","null","","","null","45","","NaN","","","","","","","","","","","","","",""
"","response","","html-keyboard-response","301","360238","0.0-1.0-410.0-0.0","0","0","45920","","571","","","68","45","","","1","45","training","adjacent","FG","6","7","M.jpg","P.jpg","1","1","1","",""
"","feedback","","html-keyboard-response","302","361241","0.0-1.0-411.0-0.0","0","0","45920","","null","","","null","45","","","","","","","","","","","","","","","",""
"","ITI","","html-keyboard-response","303","362245","0.0-1.0-414.0","0","0","45920","","null","","","null","45","","","","","","","","","","","","","","","NaN",""
"","S1","","html-keyboard-response","304","362499","0.0-1.0-416.0","0","0","45920","","null","","","null","46","","","","","","","","","","","","","","","",""
"","ISI","","html-keyboard-response","305","363503","0.0-1.0-417.0","0","0","45920","","null","","","null","46","NaN","","","","","","","","","","","","","","",""
"","S2","","html-keyboard-response","306","363757","0.0-1.0-418.0","0","0","45920","","null","","","null","46","","NaN","","","","","","","","","","","","","",""
"","response","","html-keyboard-response","307","364283","0.0-1.0-419.0-0.0","0","0","45920","","525","","","68","46","","","1","46","training","adjacent","EF","5","6","O.jpg","M.jpg","1","1","1","",""
"","feedback","","html-keyboard-response","308","365288","0.0-1.0-420.0-0.0","0","0","45920","","null","","","null","46","","","","","","","","","","","","","","","",""
"","ITI","","html-keyboard-response","309","366292","0.0-1.0-423.0","0","0","45920","","null","","","null","46","","","","","","","","","","","","","","","NaN",""
"","S1","","html-keyboard-response","310","366554","0.0-1.0-425.0","0","0","45920","","null","","","null","47","","","","","","","","","","","","","","","",""
"","ISI","","html-keyboard-response","311","367557","0.0-1.0-426.0","0","0","45920","","null","","","null","47","NaN","","","","","","","","","","","","","","",""
"","S2","","html-keyboard-response","312","367812","0.0-1.0-427.0","0","0","45920","","null","","","null","47","","NaN","","","","","","","","","","","","","",""
"","response","","html-keyboard-response","313","368766","0.0-1.0-428.0-0.0","0","0","45920","","951","","","68","47","","","1","47","training","adjacent","CB","3","2","L.jpg","N.jpg","1","0","0","",""
"","feedback","","html-keyboard-response","314","369771","0.0-1.0-429.0-0.0","0","0","45920","","null","","","null","47","","","","","","","","","","","","","","","",""
"","time_out","","html-keyboard-response","315","371787","0.0-1.0-431.0-0.0","0","0","45920","","null","","","null","47","","","","","","","","","","","","","","","",""
"","ITI","","html-keyboard-response","316","372790","0.0-1.0-432.0","0","0","45920","","null","","","null","47","","","","","","","","","","","","","","","NaN",""
"","block_over","","html-keyboard-response","317","377782","0.0-1.0-433.0-0.0","0","0","45920","","4988","","","32","47","","","","","","","","","","","","","","","",""
"","S1","","html-keyboard-response","318","378036","0.0-1.0-434.0","0","0","45920","","null","","","null","48","","","","","","","","","","","","","","","",""
"","ISI","","html-keyboard-response","319","379040","0.0-1.0-435.0","0","0","45920","","null","","","null","48","NaN","","","","","","","","","","","","","","",""
"","S2","","html-keyboard-response","320","379292","0.0-1.0-436.0","0","0","45920","","null","","","null","48","","NaN","","","","","","","","","","","","","",""
"","response","","html-keyboard-response","321","379878","0.0-1.0-437.0-0.0","0","0","45920","","582","","","75","48","","","2","48","training","adjacent","BA","2","1","N.jpg","Q.jpg","0","0","1","",""
"","feedback","","html-keyboard-response","322","380882","0.0-1.0-438.0-0.0","0","0","45920","","null","","","null","48","","","","","","","","","","","","","","","",""
"","ITI","","html-keyboard-response","323","381884","0.0-1.0-441.0","0","0","45920","","null","","","null","48","","","","","","","","","","","","","","","NaN",""
"","S1","","html-keyboard-response","324","382136","0.0-1.0-443.0","0","0","45920","","null","","","null","49","","","","","","","","","","","","","","","",""
"","ISI","","html-keyboard-response","325","383138","0.0-1.0-444.0","0","0","45920","","null","","","null","49","NaN","","","","","","","","","","","","","","",""
"","S2","","html-keyboard-response","326","383389","0.0-1.0-445.0","0","0","45920","","null","","","null","49","","NaN","","","","","","","","","","","","","",""
"","response","","html-keyboard-response","327","383598","0.0-1.0-446.0-0.0","0","0","45920","","206","","","75","49","","","2","49","training","adjacent","GF","7","6","P.jpg","M.jpg","0","0","1","",""
"","feedback","","html-keyboard-response","328","384601","0.0-1.0-447.0-0.0","0","0","45920","","null","","","null","49","","","","","","","","","","","","","","","",""
"","ITI","","html-keyboard-response","329","385604","0.0-1.0-450.0","0","0","45920","","null","","","null","49","","","","","","","","","","","","","","","NaN",""
"","S1","","html-keyboard-response","330","385857","0.0-1.0-452.0","0","0","45920","","null","","","null","50","","","","","","","","","","","","","","","",""
"","ISI","","html-keyboard-response","331","386859","0.0-1.0-453.0","0","0","45920","","null","","","null","50","NaN","","","","","","","","","","","","","","",""
"","S2","","html-keyboard-response","332","387111","0.0-1.0-454.0","0","0","45920","","null","","","null","50","","NaN","","","","","","","","","","","","","",""
"","response","","html-keyboard-response","333","387774","0.0-1.0-455.0-0.0","0","0","45920","","660","","","75","50","","","2","50","training","adjacent","FE","6","5","M.jpg","O.jpg","0","0","1","",""
"","feedback","","html-keyboard-response","334","388779","0.0-1.0-456.0-0.0","0","0","45920","","null","","","null","50","","","","","","","","","","","","","","","",""
"","ITI","","html-keyboard-response","335","389783","0.0-1.0-459.0","0","0","45920","","null","","","null","50","","","","","","","","","","","","","","","NaN",""
"","S1","","html-keyboard-response","336","390036","0.0-1.0-461.0","0","0","45920","","null","","","null","51","","","","","","","","","","","","","","","",""
"","ISI","","html-keyboard-response","337","391039","0.0-1.0-462.0","0","0","45920","","null","","","null","51","NaN","","","","","","","","","","","","","","",""
"","S2","","html-keyboard-response","338","391292","0.0-1.0-463.0","0","0","45920","","null","","","null","51","","NaN","","","","","","","","","","","","","",""
"","response","","html-keyboard-response","339","391598","0.0-1.0-464.0-0.0","0","0","45920","","304","","","68","51","","","2","51","training","adjacent","AB","1","2","Q.jpg","N.jpg","1","1","1","",""
"","feedback","","html-keyboard-response","340","392603","0.0-1.0-465.0-0.0","0","0","45920","","null","","","null","51","","","","","","","","","","","","","","","",""
"","ITI","","html-keyboard-response","341","393607","0.0-1.0-468.0","0","0","45920","","null","","","null","51","","","","","","","","","","","","","","","NaN",""
"","S1","","html-keyboard-response","342","393862","0.0-1.0-470.0","0","0","45920","","null","","","null","52","","","","","","","","","","","","","","","",""
"","ISI","","html-keyboard-response","343","394865","0.0-1.0-471.0","0","0","45920","","null","","","null","52","NaN","","","","","","","","","","","","","","",""
"","S2","","html-keyboard-response","344","395119","0.0-1.0-472.0","0","0","45920","","null","","","null","52","","NaN","","","","","","","","","","","","","",""
"","response","","html-keyboard-response","345","395805","0.0-1.0-473.0-0.0","0","0","45920","","684","","","75","52","","","2","52","training","adjacent","ED","5","4","O.jpg","R.jpg","0","0","1","",""
"","feedback","","html-keyboard-response","346","396808","0.0-1.0-474.0-0.0","0","0","45920","","null","","","null","52","","","","","","","","","","","","","","","",""
"","ITI","","html-keyboard-response","347","397813","0.0-1.0-477.0","0","0","45920","","null","","","null","52","","","","","","","","","","","","","","","NaN",""
"","S1","","html-keyboard-response","348","398066","0.0-1.0-479.0","0","0","45920","","null","","","null","53","","","","","","","","","","","","","","","",""
"","ISI","","html-keyboard-response","349","399080","0.0-1.0-480.0","0","0","45920","","null","","","null","53","NaN","","","","","","","","","","","","","","",""
"","S2","","html-keyboard-response","350","399334","0.0-1.0-481.0","0","0","45920","","null","","","null","53","","NaN","","","","","","","","","","","","","",""
"","response","","html-keyboard-response","351","399756","0.0-1.0-482.0-0.0","0","0","45920","","420","","","68","53","","","2","53","training","adjacent","FG","6","7","M.jpg","P.jpg","1","1","1","",""
"","feedback","","html-keyboard-response","352","400758","0.0-1.0-483.0-0.0","0","0","45920","","null","","","null","53","","","","","","","","","","","","","","","",""
"","ITI","","html-keyboard-response","353","401761","0.0-1.0-486.0","0","0","45920","","null","","","null","53","","","","","","","","","","","","","","","NaN",""
"","S1","","html-keyboard-response","354","402014","0.0-1.0-488.0","0","0","45920","","null","","","null","54","","","","","","","","","","","","","","","",""
"","ISI","","html-keyboard-response","355","403018","0.0-1.0-489.0","0","0","45920","","null","","","null","54","NaN","","","","","","","","","","","","","","",""
"","S2","","html-keyboard-response","356","403270","0.0-1.0-490.0","0","0","45920","","null","","","null","54","","NaN","","","","","","","","","","","","","",""
"","response","","html-keyboard-response","357","403644","0.0-1.0-491.0-0.0","0","0","45920","","372","","","75","54","","","2","54","training","adjacent","BA","2","1","N.jpg","Q.jpg","0","0","1","",""
"","feedback","","html-keyboard-response","358","404647","0.0-1.0-492.0-0.0","0","0","45920","","null","","","null","54","","","","","","","","","","","","","","","",""
"","ITI","","html-keyboard-response","359","405651","0.0-1.0-495.0","0","0","45920","","null","","","null","54","","","","","","","","","","","","","","","NaN",""
"","S1","","html-keyboard-response","360","405904","0.0-1.0-497.0","0","0","45920","","null","","","null","55","","","","","","","","","","","","","","","",""
"","ISI","","html-keyboard-response","361","406907","0.0-1.0-498.0","0","0","45920","","null","","","null","55","NaN","","","","","","","","","","","","","","",""
"","S2","","html-keyboard-response","362","407161","0.0-1.0-499.0","0","0","45920","","null","","","null","55","","NaN","","","","","","","","","","","","","",""
"","response","","html-keyboard-response","363","407846","0.0-1.0-500.0-0.0","0","0","45920","","683","","","75","55","","","2","55","training","adjacent","FE","6","5","M.jpg","O.jpg","0","0","1","",""
"","feedback","","html-keyboard-response","364","408850","0.0-1.0-501.0-0.0","0","0","45920","","null","","","null","55","","","","","","","","","","","","","","","",""
"","ITI","","html-keyboard-response","365","409853","0.0-1.0-504.0","0","0","45920","","null","","","null","55","","","","","","","","","","","","","","","NaN",""
"","S1","","html-keyboard-response","366","410105","0.0-1.0-506.0","0","0","45920","","null","","","null","56","","","","","","","","","","","","","","","",""
"","ISI","","html-keyboard-response","367","411109","0.0-1.0-507.0","0","0","45920","","null","","","null","56","NaN","","","","","","","","","","","","","","",""
"","S2","","html-keyboard-response","368","411362","0.0-1.0-508.0","0","0","45920","","null","","","null","56","","NaN","","","","","","","","","","","","","",""
"","response","","html-keyboard-response","369","411590","0.0-1.0-509.0-0.0","0","0","45920","","226","","","75","56","","","2","56","training","adjacent","CD","3","4","L.jpg","R.jpg","0","1","0","",""
"","feedback","","html-keyboard-response","370","412595","0.0-1.0-510.0-0.0","0","0","45920","","null","","","null","56","","","","","","","","","","","","","","","",""
"","time_out","","html-keyboard-response","371","414601","0.0-1.0-512.0-0.0","0","0","45920","","null","","","null","56","","","","","","","","","","","","","","","",""
"","ITI","","html-keyboard-response","372","415605","0.0-1.0-513.0","0","0","45920","","null","","","null","56","","","","","","","","","","","","","","","NaN",""
"","S1","","html-keyboard-response","373","415870","0.0-1.0-515.0","0","0","45920","","null","","","null","57","","","","","","","","","","","","","","","",""
"","ISI","","html-keyboard-response","374","416874","0.0-1.0-516.0","0","0","45920","","null","","","null","57","NaN","","","","","","","","","","","","","","",""
"","S2","","html-keyboard-response","375","417128","0.0-1.0-517.0","0","0","45920","","null","","","null","57","","NaN","","","","","","","","","","","","","",""
"","response","","html-keyboard-response","376","417879","0.0-1.0-518.0-0.0","0","0","45920","","748","","","68","57","","","2","57","training","adjacent","EF","5","6","O.jpg","M.jpg","1","1","1","",""
"","feedback","","html-keyboard-response","377","418884","0.0-1.0-519.0-0.0","0","0","45920","","null","","","null","57","","","","","","","","","","","","","","","",""
"","ITI","","html-keyboard-response","378","419889","0.0-1.0-522.0","0","0","45920","","null","","","null","57","","","","","","","","","","","","","","","NaN",""
"","S1","","html-keyboard-response","379","420142","0.0-1.0-524.0","0","0","45920","","null","","","null","58","","","","","","","","","","","","","","","",""
"","ISI","","html-keyboard-response","380","421146","0.0-1.0-525.0","0","0","45920","","null","","","null","58","NaN","","","","","","","","","","","","","","",""
"","S2","","html-keyboard-response","381","421401","0.0-1.0-526.0","0","0","45920","","null","","","null","58","","NaN","","","","","","","","","","","","","",""
"","response","","html-keyboard-response","382","421518","0.0-1.0-527.0-0.0","0","0","45920","","114","","","68","58","","","2","58","training","adjacent","AB","1","2","Q.jpg","N.jpg","1","1","1","",""
"","feedback","","html-keyboard-response","383","422522","0.0-1.0-528.0-0.0","0","0","45920","","null","","","null","58","","","","","","","","","","","","","","","",""
"","ITI","","html-keyboard-response","384","423526","0.0-1.0-531.0","0","0","45920","","null","","","null","58","","","","","","","","","","","","","","","NaN",""
"","S1","","html-keyboard-response","385","423779","0.0-1.0-533.0","0","0","45920","","null","","","null","59","","","","","","","","","","","","","","","",""
"","ISI","","html-keyboard-response","386","424783","0.0-1.0-534.0","0","0","45920","","976","","","75","59","k","","","","","","","","","","","","","","",""
"","S2","","html-keyboard-response","387","425039","0.0-1.0-535.0","0","0","45920","","null","","","null","59","","NaN","","","","","","","","","","","","","",""
"","response","","html-keyboard-response","388","425583","0.0-1.0-536.0-0.0","0","0","45920","","540","","","75","59","","","2","59","training","adjacent","GF","7","6","P.jpg","M.jpg","0","0","1","",""
"","feedback","","html-keyboard-response","389","426586","0.0-1.0-537.0-0.0","0","0","45920","","null","","","null","59","","","","","","","","","","","","","","","",""
"","ITI","","html-keyboard-response","390","427589","0.0-1.0-540.0","0","0","45920","","null","","","null","59","","","","","","","","","","","","","","","NaN",""
"","S1","","html-keyboard-response","391","427844","0.0-1.0-542.0","0","0","45920","","null","","","null","60","","","","","","","","","","","","","","","",""
"","ISI","","html-keyboard-response","392","428848","0.0-1.0-543.0","0","0","45920","","null","","","null","60","NaN","","","","","","","","","","","","","","",""
"","S2","","html-keyboard-response","393","429103","0.0-1.0-544.0","0","0","45920","","null","","","null","60","","NaN","","","","","","","","","","","","","",""
"","response","","html-keyboard-response","394","429694","0.0-1.0-545.0-0.0","0","0","45920","","588","","","68","60","","","2","60","training","adjacent","ED","5","4","O.jpg","R.jpg","1","0","0","",""
"","feedback","","html-keyboard-response","395","430700","0.0-1.0-546.0-0.0","0","0","45920","","null","","","null","60","","","","","","","","","","","","","","","",""
"","time_out","","html-keyboard-response","396","432705","0.0-1.0-548.0-0.0","0","0","45920","","null","","","null","60","","","","","","","","","","","","","","","",""
"","ITI","","html-keyboard-response","397","433707","0.0-1.0-549.0","0","0","45920","","null","","","null","60","","","","","","","","","","","","","","","NaN",""
"","S1","","html-keyboard-response","398","433959","0.0-1.0-551.0","0","0","45920","","null","","","null","61","","","","","","","","","","","","","","","",""
"","ISI","","html-keyboard-response","399","434963","0.0-1.0-552.0","0","0","45920","","null","","","null","61","NaN","","","","","","","","","","","","","","",""
"","S2","","html-keyboard-response","400","435218","0.0-1.0-553.0","0","0","45920","","null","","","null","61","","NaN","","","","","","","","","","","","","",""
"","response","","html-keyboard-response","401","435820","0.0-1.0-554.0-0.0","0","0","45920","","600","","","68","61","","","2","61","training","adjacent","EF","5","6","O.jpg","M.jpg","1","1","1","",""
"","feedback","","html-keyboard-response","402","436823","0.0-1.0-555.0-0.0","0","0","45920","","null","","","null","61","","","","","","","","","","","","","","","",""
"","ITI","","html-keyboard-response","403","437826","0.0-1.0-558.0","0","0","45920","","null","","","null","61","","","","","","","","","","","","","","","NaN",""
"","S1","","html-keyboard-response","404","438080","0.0-1.0-560.0","0","0","45920","","null","","","null","62","","","","","","","","","","","","","","","",""
"","ISI","","html-keyboard-response","405","439084","0.0-1.0-561.0","0","0","45920","","null","","","null","62","NaN","","","","","","","","","","","","","","",""
"","S2","","html-keyboard-response","406","439337","0.0-1.0-562.0","0","0","45920","","null","","","null","62","","NaN","","","","","","","","","","","","","",""
"","response","","html-keyboard-response","407","439926","0.0-1.0-563.0-0.0","0","0","45920","","586","","","68","62","","","2","62","training","adjacent","EF","5","6","O.jpg","M.jpg","1","1","1","",""
"","feedback","","html-keyboard-response","408","440930","0.0-1.0-564.0-0.0","0","0","45920","","null","","","null","62","","","","","","","","","","","","","","","",""
"","ITI","","html-keyboard-response","409","441935","0.0-1.0-567.0","0","0","45920","","null","","","null","62","","","","","","","","","","","","","","","NaN",""
"","S1","","html-keyboard-response","410","442189","0.0-1.0-569.0","0","0","45920","","null","","","null","63","","","","","","","","","","","","","","","",""
"","ISI","","html-keyboard-response","411","443208","0.0-1.0-570.0","0","0","45920","","null","","","null","63","NaN","","","","","","","","","","","","","","",""
"","S2","","html-keyboard-response","412","443462","0.0-1.0-571.0","0","0","45920","","null","","","null","63","","NaN","","","","","","","","","","","","","",""
"","response","","html-keyboard-response","413","444374","0.0-1.0-572.0-0.0","0","0","45920","","909","","","68","63","","","2","63","training","adjacent","CB","3","2","L.jpg","N.jpg","1","0","0","",""
"","feedback","","html-keyboard-response","414","445379","0.0-1.0-573.0-0.0","0","0","45920","","null","","","null","63","","","","","","","","","","","","","","","",""
"","time_out","","html-keyboard-response","415","447382","0.0-1.0-575.0-0.0","0","0","45920","","null","","","null","63","","","","","","","","","","","","","","","",""
"","ITI","","html-keyboard-response","416","448384","0.0-1.0-576.0","0","0","45920","","null","","","null","63","","","","","","","","","","","","","","","NaN",""
"","S1","","html-keyboard-response","417","448638","0.0-1.0-578.0","0","0","45920","","null","","","null","64","","","","","","","","","","","","","","","",""
"","ISI","","html-keyboard-response","418","449640","0.0-1.0-579.0","0","0","45920","","null","","","null","64","NaN","","","","","","","","","","","","","","",""
"","S2","","html-keyboard-response","419","449891","0.0-1.0-580.0","0","0","45920","","null","","","null","64","","NaN","","","","","","","","","","","","","",""
"","response","","html-keyboard-response","420","450349","0.0-1.0-581.0-0.0","0","0","45920","","455","","","75","64","","","2","64","training","adjacent","CB","3","2","L.jpg","N.jpg","0","0","1","",""
"","feedback","","html-keyboard-response","421","451352","0.0-1.0-582.0-0.0","0","0","45920","","null","","","null","64","","","","","","","","","","","","","","","",""
"","ITI","","html-keyboard-response","422","452355","0.0-1.0-585.0","0","0","45920","","null","","","null","64","","","","","","","","","","","","","","","NaN",""
"","S1","","html-keyboard-response","423","452609","0.0-1.0-587.0","0","0","45920","","null","","","null","65","","","","","","","","","","","","","","","",""
"","ISI","","html-keyboard-response","424","453612","0.0-1.0-588.0","0","0","45920","","null","","","null","65","NaN","","","","","","","","","","","","","","",""
"","S2","","html-keyboard-response","425","453866","0.0-1.0-589.0","0","0","45920","","null","","","null","65","","NaN","","","","","","","","","","","","","",""
"","response","","html-keyboard-response","426","454374","0.0-1.0-590.0-0.0","0","0","45920","","505","","","68","65","","","2","65","training","adjacent","BC","2","3","N.jpg","L.jpg","1","1","1","",""
"","feedback","","html-keyboard-response","427","455379","0.0-1.0-591.0-0.0","0","0","45920","","null","","","null","65","","","","","","","","","","","","","","","",""
"","ITI","","html-keyboard-response","428","456383","0.0-1.0-594.0","0","0","45920","","null","","","null","65","","","","","","","","","","","","","","","NaN",""
"","S1","","html-keyboard-response","429","456638","0.0-1.0-596.0","0","0","45920","","null","","","null","66","","","","","","","","","","","","","","","",""
"","ISI","","html-keyboard-response","430","457642","0.0-1.0-597.0","0","0","45920","","null","","","null","66","NaN","","","","","","","","","","","","","","",""
"","S2","","html-keyboard-response","431","457897","0.0-1.0-598.0","0","0","45920","","null","","","null","66","","NaN","","","","","","","","","","","","","",""
"","response","","html-keyboard-response","432","458372","0.0-1.0-599.0-0.0","0","0","45920","","473","","","68","66","","","2","66","training","adjacent","BC","2","3","N.jpg","L.jpg","1","1","1","",""
"","feedback","","html-keyboard-response","433","459373","0.0-1.0-600.0-0.0","0","0","45920","","null","","","null","66","","","","","","","","","","","","","","","",""
"","ITI","","html-keyboard-response","434","460377","0.0-1.0-603.0","0","0","45920","","null","","","null","66","","","","","","","","","","","","","","","NaN",""
"","S1","","html-keyboard-response","435","460633","0.0-1.0-605.0","0","0","45920","","null","","","null","67","","","","","","","","","","","","","","","",""
"","ISI","","html-keyboard-response","436","461637","0.0-1.0-606.0","0","0","45920","","null","","","null","67","NaN","","","","","","","","","","","","","","",""
"","S2","","html-keyboard-response","437","461892","0.0-1.0-607.0","0","0","45920","","null","","","null","67","","NaN","","","","","","","","","","","","","",""
"","response","","html-keyboard-response","438","463118","0.0-1.0-608.0-0.0","0","0","45920","","1223","","","68","67","","","2","67","training","adjacent","DC","4","3","R.jpg","L.jpg","1","0","0","",""
"","feedback","","html-keyboard-response","439","464122","0.0-1.0-609.0-0.0","0","0","45920","","null","","","null","67","","","","","","","","","","","","","","","",""
"","time_out","","html-keyboard-response","440","466123","0.0-1.0-611.0-0.0","0","0","45920","","null","","","null","67","","","","","","","","","","","","","","","",""
"","ITI","","html-keyboard-response","441","467127","0.0-1.0-612.0","0","0","45920","","null","","","null","67","","","","","","","","","","","","","","","NaN",""
"","S1","","html-keyboard-response","442","467381","0.0-1.0-614.0","0","0","45920","","null","","","null","68","","","","","","","","","","","","","","","",""
"","ISI","","html-keyboard-response","443","468385","0.0-1.0-615.0","0","0","45920","","null","","","null","68","NaN","","","","","","","","","","","","","","",""
"","S2","","html-keyboard-response","444","468641","0.0-1.0-616.0","0","0","45920","","null","","","null","68","","NaN","","","","","","","","","","","","","",""
"","response","","html-keyboard-response","445","469342","0.0-1.0-617.0-0.0","0","0","45920","","698","","","68","68","","","2","68","training","adjacent","DE","4","5","R.jpg","O.jpg","1","1","1","",""
"","feedback","","html-keyboard-response","446","470347","0.0-1.0-618.0-0.0","0","0","45920","","null","","","null","68","","","","","","","","","","","","","","","",""
"","ITI","","html-keyboard-response","447","471352","0.0-1.0-621.0","0","0","45920","","null","","","null","68","","","","","","","","","","","","","","","NaN",""
"","S1","","html-keyboard-response","448","471606","0.0-1.0-623.0","0","0","45920","","null","","","null","69","","","","","","","","","","","","","","","",""
"","ISI","","html-keyboard-response","449","472609","0.0-1.0-624.0","0","0","45920","","null","","","null","69","NaN","","","","","","","","","","","","","","",""
"","S2","","html-keyboard-response","450","472862","0.0-1.0-625.0","0","0","45920","","null","","","null","69","","NaN","","","","","","","","","","","","","",""
"","response","","html-keyboard-response","451","473334","0.0-1.0-626.0-0.0","0","0","45920","","469","","","68","69","","","2","69","training","adjacent","FG","6","7","M.jpg","P.jpg","1","1","1","",""
"","feedback","","html-keyboard-response","452","474337","0.0-1.0-627.0-0.0","0","0","45920","","null","","","null","69","","","","","","","","","","","","","","","",""
"","ITI","","html-keyboard-response","453","475342","0.0-1.0-630.0","0","0","45920","","null","","","null","69","","","","","","","","","","","","","","","NaN",""
"","S1","","html-keyboard-response","454","475596","0.0-1.0-632.0","0","0","45920","","null","","","null","70","","","","","","","","","","","","","","","",""
"","ISI","","html-keyboard-response","455","476601","0.0-1.0-633.0","0","0","45920","","null","","","null","70","NaN","","","","","","","","","","","","","","",""
"","S2","","html-keyboard-response","456","476855","0.0-1.0-634.0","0","0","45920","","null","","","null","70","","NaN","","","","","","","","","","","","","",""
"","response","","html-keyboard-response","457","477430","0.0-1.0-635.0-0.0","0","0","45920","","572","","","68","70","","","2","70","training","adjacent","DC","4","3","R.jpg","L.jpg","1","0","0","",""
"","feedback","","html-keyboard-response","458","478435","0.0-1.0-636.0-0.0","0","0","45920","","null","","","null","70","","","","","","","","","","","","","","","",""
"","time_out","","html-keyboard-response","459","480438","0.0-1.0-638.0-0.0","0","0","45920","","null","","","null","70","","","","","","","","","","","","","","","",""
"","ITI","","html-keyboard-response","460","481442","0.0-1.0-639.0","0","0","45920","","null","","","null","70","","","","","","","","","","","","","","","NaN",""
"","S1","","html-keyboard-response","461","481696","0.0-1.0-641.0","0","0","45920","","null","","","null","71","","","","","","","","","","","","","","","",""
"","ISI","","html-keyboard-response","462","482700","0.0-1.0-642.0","0","0","45920","","null","","","null","71","NaN","","","","","","","","","","","","","","",""
"","S2","","html-keyboard-response","463","482955","0.0-1.0-643.0","0","0","45920","","null","","","null","71","","NaN","","","","","","","","","","","","","",""
"","response","","html-keyboard-response","464","483678","0.0-1.0-644.0-0.0","0","0","45920","","719","","","68","71","","","2","71","training","adjacent","DC","4","3","R.jpg","L.jpg","1","0","0","",""
"","feedback","","html-keyboard-response","465","484682","0.0-1.0-645.0-0.0","0","0","45920","","null","","","null","71","","","","","","","","","","","","","","","",""
"","time_out","","html-keyboard-response","466","486686","0.0-1.0-647.0-0.0","0","0","45920","","null","","","null","71","","","","","","","","","","","","","","","",""
"","ITI","","html-keyboard-response","467","487690","0.0-1.0-648.0","0","0","45920","","null","","","null","71","","","","","","","","","","","","","","","NaN",""
"","S1","","html-keyboard-response","468","487943","0.0-1.0-650.0","0","0","45920","","null","","","null","72","","","","","","","","","","","","","","","",""
"","ISI","","html-keyboard-response","469","488947","0.0-1.0-651.0","0","0","45920","","null","","","null","72","NaN","","","","","","","","","","","","","","",""
"","S2","","html-keyboard-response","470","489202","0.0-1.0-652.0","0","0","45920","","null","","","null","72","","NaN","","","","","","","","","","","","","",""
"","response","","html-keyboard-response","471","490220","0.0-1.0-653.0-0.0","0","0","45920","","1016","","","68","72","","","2","72","training","adjacent","DE","4","5","R.jpg","O.jpg","1","1","1","",""
"","feedback","","html-keyboard-response","472","491223","0.0-1.0-654.0-0.0","0","0","45920","","null","","","null","72","","","","","","","","","","","","","","","",""
"","ITI","","html-keyboard-response","473","492227","0.0-1.0-657.0","0","0","45920","","null","","","null","72","","","","","","","","","","","","","","","NaN",""
"","S1","","html-keyboard-response","474","492481","0.0-1.0-659.0","0","0","45920","","null","","","null","73","","","","","","","","","","","","","","","",""
"","ISI","","html-keyboard-response","475","493485","0.0-1.0-660.0","0","0","45920","","null","","","null","73","NaN","","","","","","","","","","","","","","",""
"","S2","","html-keyboard-response","476","493739","0.0-1.0-661.0","0","0","45920","","null","","","null","73","","NaN","","","","","","","","","","","","","",""
"","response","","html-keyboard-response","477","494302","0.0-1.0-662.0-0.0","0","0","45920","","560","","","68","73","","","2","73","training","adjacent","EF","5","6","O.jpg","M.jpg","1","1","1","",""
"","feedback","","html-keyboard-response","478","495308","0.0-1.0-663.0-0.0","0","0","45920","","null","","","null","73","","","","","","","","","","","","","","","",""
"","ITI","","html-keyboard-response","479","496311","0.0-1.0-666.0","0","0","45920","","null","","","null","73","","","","","","","","","","","","","","","NaN",""
"","S1","","html-keyboard-response","480","496564","0.0-1.0-668.0","0","0","45920","","null","","","null","74","","","","","","","","","","","","","","","",""
"","ISI","","html-keyboard-response","481","497568","0.0-1.0-669.0","0","0","45920","","null","","","null","74","NaN","","","","","","","","","","","","","","",""
"","S2","","html-keyboard-response","482","497822","0.0-1.0-670.0","0","0","45920","","null","","","null","74","","NaN","","","","","","","","","","","","","",""
"","response","","html-keyboard-response","483","498196","0.0-1.0-671.0-0.0","0","0","45920","","372","","","75","74","","","2","74","training","adjacent","BA","2","1","N.jpg","Q.jpg","0","0","1","",""
"","feedback","","html-keyboard-response","484","499199","0.0-1.0-672.0-0.0","0","0","45920","","null","","","null","74","","","","","","","","","","","","","","","",""
"","ITI","","html-keyboard-response","485","500202","0.0-1.0-675.0","0","0","45920","","null","","","null","74","","","","","","","","","","","","","","","NaN",""
"","S1","","html-keyboard-response","486","500455","0.0-1.0-677.0","0","0","45920","","null","","","null","75","","","","","","","","","","","","","","","",""
"","ISI","","html-keyboard-response","487","501459","0.0-1.0-678.0","0","0","45920","","null","","","null","75","NaN","","","","","","","","","","","","","","",""
"","S2","","html-keyboard-response","488","501714","0.0-1.0-679.0","0","0","45920","","null","","","null","75","","NaN","","","","","","","","","","","","","",""
"","response","","html-keyboard-response","489","502124","0.0-1.0-680.0-0.0","0","0","45920","","408","","","68","75","","","2","75","training","adjacent","FG","6","7","M.jpg","P.jpg","1","1","1","",""
"","feedback","","html-keyboard-response","490","503142","0.0-1.0-681.0-0.0","0","0","45920","","null","","","null","75","","","","","","","","","","","","","","","",""
"","ITI","","html-keyboard-response","491","504146","0.0-1.0-684.0","0","0","45920","","null","","","null","75","","","","","","","","","","","","","","","NaN",""
"","S1","","html-keyboard-response","492","504399","0.0-1.0-686.0","0","0","45920","","null","","","null","76","","","","","","","","","","","","","","","",""
"","ISI","","html-keyboard-response","493","505401","0.0-1.0-687.0","0","0","45920","","null","","","null","76","NaN","","","","","","","","","","","","","","",""
"","S2","","html-keyboard-response","494","505654","0.0-1.0-688.0","0","0","45920","","null","","","null","76","","NaN","","","","","","","","","","","","","",""
"","response","","html-keyboard-response","495","506804","0.0-1.0-689.0-0.0","0","0","45920","","1147","","","75","76","","","2","76","training","adjacent","CB","3","2","L.jpg","N.jpg","0","0","1","",""
"","feedback","","html-keyboard-response","496","507806","0.0-1.0-690.0-0.0","0","0","45920","","null","","","null","76","","","","","","","","","","","","","","","",""
"","ITI","","html-keyboard-response","497","508809","0.0-1.0-693.0","0","0","45920","","null","","","null","76","","","","","","","","","","","","","","","NaN",""
"","S1","","html-keyboard-response","498","509062","0.0-1.0-695.0","0","0","45920","","null","","","null","77","","","","","","","","","","","","","","","",""
"","ISI","","html-keyboard-response","499","510064","0.0-1.0-696.0","0","0","45920","","null","","","null","77","NaN","","","","","","","","","","","","","","",""
"","S2","","html-keyboard-response","500","510316","0.0-1.0-697.0","0","0","45920","","null","","","null","77","","NaN","","","","","","","","","","","","","",""
"","response","","html-keyboard-response","501","510758","0.0-1.0-698.0-0.0","0","0","45920","","440","","","68","77","","","2","77","training","adjacent","FG","6","7","M.jpg","P.jpg","1","1","1","",""
"","feedback","","html-keyboard-response","502","511761","0.0-1.0-699.0-0.0","0","0","45920","","null","","","null","77","","","","","","","","","","","","","","","",""
"","ITI","","html-keyboard-response","503","512763","0.0-1.0-702.0","0","0","45920","","null","","","null","77","","","","","","","","","","","","","","","NaN",""
"","S1","","html-keyboard-response","504","513016","0.0-1.0-704.0","0","0","45920","","null","","","null","78","","","","","","","","","","","","","","","",""
"","ISI","","html-keyboard-response","505","514019","0.0-1.0-705.0","0","0","45920","","null","","","null","78","NaN","","","","","","","","","","","","","","",""
"","S2","","html-keyboard-response","506","514274","0.0-1.0-706.0","0","0","45920","","null","","","null","78","","NaN","","","","","","","","","","","","","",""
"","response","","html-keyboard-response","507","515054","0.0-1.0-707.0-0.0","0","0","45920","","777","","","75","78","","","2","78","training","adjacent","FE","6","5","M.jpg","O.jpg","0","0","1","",""
"","feedback","","html-keyboard-response","508","516058","0.0-1.0-708.0-0.0","0","0","45920","","null","","","null","78","","","","","","","","","","","","","","","",""
"","ITI","","html-keyboard-response","509","517062","0.0-1.0-711.0","0","0","45920","","null","","","null","78","","","","","","","","","","","","","","","NaN",""
"","S1","","html-keyboard-response","510","517317","0.0-1.0-713.0","0","0","45920","","null","","","null","79","","","","","","","","","","","","","","","",""
"","ISI","","html-keyboard-response","511","518321","0.0-1.0-714.0","0","0","45920","","null","","","null","79","NaN","","","","","","","","","","","","","","",""
"","S2","","html-keyboard-response","512","518573","0.0-1.0-715.0","0","0","45920","","null","","","null","79","","NaN","","","","","","","","","","","","","",""
"","response","","html-keyboard-response","513","519854","0.0-1.0-716.0-0.0","0","0","45920","","1279","","","75","79","","","2","79","training","adjacent","BC","2","3","N.jpg","L.jpg","0","1","0","",""
"","feedback","","html-keyboard-response","514","520859","0.0-1.0-717.0-0.0","0","0","45920","","null","","","null","79","","","","","","","","","","","","","","","",""
"","time_out","","html-keyboard-response","515","522863","0.0-1.0-719.0-0.0","0","0","45920","","null","","","null","79","","","","","","","","","","","","","","","",""
"","ITI","","html-keyboard-response","516","523866","0.0-1.0-720.0","0","0","45920","","null","","","null","79","","","","","","","","","","","","","","","NaN",""
"","S1","","html-keyboard-response","517","524120","0.0-1.0-722.0","0","0","45920","","null","","","null","80","","","","","","","","","","","","","","","",""
"","ISI","","html-keyboard-response","518","525124","0.0-1.0-723.0","0","0","45920","","null","","","null","80","NaN","","","","","","","","","","","","","","",""
"","S2","","html-keyboard-response","519","525377","0.0-1.0-724.0","0","0","45920","","null","","","null","80","","NaN","","","","","","","","","","","","","",""
"","response","","html-keyboard-response","520","526462","0.0-1.0-725.0-0.0","0","0","45920","","1083","","","75","80","","","2","80","training","adjacent","DC","4","3","R.jpg","L.jpg","0","0","1","",""
"","feedback","","html-keyboard-response","521","527466","0.0-1.0-726.0-0.0","0","0","45920","","null","","","null","80","","","","","","","","","","","","","","","",""
"","ITI","","html-keyboard-response","522","528470","0.0-1.0-729.0","0","0","45920","","null","","","null","80","","","","","","","","","","","","","","","NaN",""
"","S1","","html-keyboard-response","523","528725","0.0-1.0-731.0","0","0","45920","","null","","","null","81","","","","","","","","","","","","","","","",""
"","ISI","","html-keyboard-response","524","529729","0.0-1.0-732.0","0","0","45920","","null","","","null","81","NaN","","","","","","","","","","","","","","",""
"","S2","","html-keyboard-response","525","529984","0.0-1.0-733.0","0","0","45920","","null","","","null","81","","NaN","","","","","","","","","","","","","",""
"","response","","html-keyboard-response","526","530198","0.0-1.0-734.0-0.0","0","0","45920","","211","","","75","81","","","2","81","training","adjacent","GF","7","6","P.jpg","M.jpg","0","0","1","",""
"","feedback","","html-keyboard-response","527","531204","0.0-1.0-735.0-0.0","0","0","45920","","null","","","null","81","","","","","","","","","","","","","","","",""
"","ITI","","html-keyboard-response","528","532209","0.0-1.0-738.0","0","0","45920","","null","","","null","81","","","","","","","","","","","","","","","NaN",""
"","S1","","html-keyboard-response","529","532463","0.0-1.0-740.0","0","0","45920","","null","","","null","82","","","","","","","","","","","","","","","",""
"","ISI","","html-keyboard-response","530","533466","0.0-1.0-741.0","0","0","45920","","null","","","null","82","NaN","","","","","","","","","","","","","","",""
"","S2","","html-keyboard-response","531","533721","0.0-1.0-742.0","0","0","45920","","null","","","null","82","","NaN","","","","","","","","","","","","","",""
"","response","","html-keyboard-response","532","534108","0.0-1.0-743.0-0.0","0","0","45920","","385","","","75","82","","","2","82","training","adjacent","BA","2","1","N.jpg","Q.jpg","0","0","1","",""
"","feedback","","html-keyboard-response","533","535112","0.0-1.0-744.0-0.0","0","0","45920","","null","","","null","82","","","","","","","","","","","","","","","",""
"","ITI","","html-keyboard-response","534","536117","0.0-1.0-747.0","0","0","45920","","null","","","null","82","","","","","","","","","","","","","","","NaN",""
"","S1","","html-keyboard-response","535","536371","0.0-1.0-749.0","0","0","45920","","null","","","null","83","","","","","","","","","","","","","","","",""
"","ISI","","html-keyboard-response","536","537375","0.0-1.0-750.0","0","0","45920","","null","","","null","83","NaN","","","","","","","","","","","","","","",""
"","S2","","html-keyboard-response","537","537630","0.0-1.0-751.0","0","0","45920","","null","","","null","83","","NaN","","","","","","","","","","","","","",""
"","response","","html-keyboard-response","538","538758","0.0-1.0-752.0-0.0","0","0","45920","","1124","","","75","83","","","2","83","training","adjacent","FE","6","5","M.jpg","O.jpg","0","0","1","",""
"","feedback","","html-keyboard-response","539","539763","0.0-1.0-753.0-0.0","0","0","45920","","null","","","null","83","","","","","","","","","","","","","","","",""
"","ITI","","html-keyboard-response","540","540765","0.0-1.0-756.0","0","0","45920","","null","","","null","83","","","","","","","","","","","","","","","NaN",""
"","S1","","html-keyboard-response","541","541020","0.0-1.0-758.0","0","0","45920","","null","","","null","84","","","","","","","","","","","","","","","",""
"","ISI","","html-keyboard-response","542","542023","0.0-1.0-759.0","0","0","45920","","null","","","null","84","NaN","","","","","","","","","","","","","","",""
"","S2","","html-keyboard-response","543","542279","0.0-1.0-760.0","0","0","45920","","null","","","null","84","","NaN","","","","","","","","","","","","","",""
"","response","","html-keyboard-response","544","543084","0.0-1.0-761.0-0.0","0","0","45920","","803","","","68","84","","","2","84","training","adjacent","ED","5","4","O.jpg","R.jpg","1","0","0","",""
"","feedback","","html-keyboard-response","545","544087","0.0-1.0-762.0-0.0","0","0","45920","","null","","","null","84","","","","","","","","","","","","","","","",""
"","time_out","","html-keyboard-response","546","546092","0.0-1.0-764.0-0.0","0","0","45920","","null","","","null","84","","","","","","","","","","","","","","","",""
"","ITI","","html-keyboard-response","547","547095","0.0-1.0-765.0","0","0","45920","","null","","","null","84","","","","","","","","","","","","","","","NaN",""
"","S1","","html-keyboard-response","548","547349","0.0-1.0-767.0","0","0","45920","","null","","","null","85","","","","","","","","","","","","","","","",""
"","ISI","","html-keyboard-response","549","548352","0.0-1.0-768.0","0","0","45920","","null","","","null","85","NaN","","","","","","","","","","","","","","",""
"","S2","","html-keyboard-response","550","548605","0.0-1.0-769.0","0","0","45920","","null","","","null","85","","NaN","","","","","","","","","","","","","",""
"","response","","html-keyboard-response","551","548684","0.0-1.0-770.0-0.0","0","0","45920","","78","","","68","85","","","2","85","training","adjacent","AB","1","2","Q.jpg","N.jpg","1","1","1","",""
"","feedback","","html-keyboard-response","552","549685","0.0-1.0-771.0-0.0","0","0","45920","","null","","","null","85","","","","","","","","","","","","","","","",""
"","ITI","","html-keyboard-response","553","550688","0.0-1.0-774.0","0","0","45920","","null","","","null","85","","","","","","","","","","","","","","","NaN",""
"","S1","","html-keyboard-response","554","550941","0.0-1.0-776.0","0","0","45920","","null","","","null","86","","","","","","","","","","","","","","","",""
"","ISI","","html-keyboard-response","555","551944","0.0-1.0-777.0","0","0","45920","","null","","","null","86","NaN","","","","","","","","","","","","","","",""
"","S2","","html-keyboard-response","556","552196","0.0-1.0-778.0","0","0","45920","","null","","","null","86","","NaN","","","","","","","","","","","","","",""
"","response","","html-keyboard-response","557","553270","0.0-1.0-779.0-0.0","0","0","45920","","1071","","","68","86","","","2","86","training","adjacent","DE","4","5","R.jpg","O.jpg","1","1","1","",""
"","feedback","","html-keyboard-response","558","554276","0.0-1.0-780.0-0.0","0","0","45920","","null","","","null","86","","","","","","","","","","","","","","","",""
"","ITI","","html-keyboard-response","559","555279","0.0-1.0-783.0","0","0","45920","","null","","","null","86","","","","","","","","","","","","","","","NaN",""
"","S1","","html-keyboard-response","560","555532","0.0-1.0-785.0","0","0","45920","","null","","","null","87","","","","","","","","","","","","","","","",""
"","ISI","","html-keyboard-response","561","556533","0.0-1.0-786.0","0","0","45920","","null","","","null","87","NaN","","","","","","","","","","","","","","",""
"","S2","","html-keyboard-response","562","556787","0.0-1.0-787.0","0","0","45920","","null","","","null","87","","NaN","","","","","","","","","","","","","",""
"","response","","html-keyboard-response","563","557646","0.0-1.0-788.0-0.0","0","0","45920","","856","","","68","87","","","2","87","training","adjacent","CB","3","2","L.jpg","N.jpg","1","0","0","",""
"","feedback","","html-keyboard-response","564","558652","0.0-1.0-789.0-0.0","0","0","45920","","null","","","null","87","","","","","","","","","","","","","","","",""
"","time_out","","html-keyboard-response","565","560656","0.0-1.0-791.0-0.0","0","0","45920","","null","","","null","87","","","","","","","","","","","","","","","",""
"","ITI","","html-keyboard-response","566","561661","0.0-1.0-792.0","0","0","45920","","null","","","null","87","","","","","","","","","","","","","","","NaN",""
"","S1","","html-keyboard-response","567","561915","0.0-1.0-794.0","0","0","45920","","null","","","null","88","","","","","","","","","","","","","","","",""
"","ISI","","html-keyboard-response","568","562920","0.0-1.0-795.0","0","0","45920","","null","","","null","88","NaN","","","","","","","","","","","","","","",""
"","S2","","html-keyboard-response","569","563173","0.0-1.0-796.0","0","0","45920","","null","","","null","88","","NaN","","","","","","","","","","","","","",""
"","response","","html-keyboard-response","570","564142","0.0-1.0-797.0-0.0","0","0","45920","","967","","","75","88","","","2","88","training","adjacent","ED","5","4","O.jpg","R.jpg","0","0","1","",""
"","feedback","","html-keyboard-response","571","565145","0.0-1.0-798.0-0.0","0","0","45920","","null","","","null","88","","","","","","","","","","","","","","","",""
"","ITI","","html-keyboard-response","572","566148","0.0-1.0-801.0","0","0","45920","","null","","","null","88","","","","","","","","","","","","","","","NaN",""
"","S1","","html-keyboard-response","573","566402","0.0-1.0-803.0","0","0","45920","","null","","","null","89","","","","","","","","","","","","","","","",""
"","ISI","","html-keyboard-response","574","567404","0.0-1.0-804.0","0","0","45920","","null","","","null","89","NaN","","","","","","","","","","","","","","",""
"","S2","","html-keyboard-response","575","567667","0.0-1.0-805.0","0","0","45920","","null","","","null","89","","NaN","","","","","","","","","","","","","",""
"","response","","html-keyboard-response","576","568142","0.0-1.0-806.0-0.0","0","0","45920","","473","","","68","89","","","2","89","training","adjacent","CD","3","4","L.jpg","R.jpg","1","1","1","",""
"","feedback","","html-keyboard-response","577","569145","0.0-1.0-807.0-0.0","0","0","45920","","null","","","null","89","","","","","","","","","","","","","","","",""
"","ITI","","html-keyboard-response","578","570148","0.0-1.0-810.0","0","0","45920","","null","","","null","89","","","","","","","","","","","","","","","NaN",""
"","S1","","html-keyboard-response","579","570403","0.0-1.0-812.0","0","0","45920","","null","","","null","90","","","","","","","","","","","","","","","",""
"","ISI","","html-keyboard-response","580","571407","0.0-1.0-813.0","0","0","45920","","null","","","null","90","NaN","","","","","","","","","","","","","","",""
