"success","ttype","start_time","trial_type","trial_index","time_elapsed","internal_node_id","warning","missed_checkup","PID","view_history","rt","responses","repeat_instructions","key_press","index","keypress_isi","keypress_S2","block","trial_num","phase","group_type","pair_type","S1_stim","S2_stim","S1_img","S2_img","S1_chosen","S1_higher","accuracy","keypress_iti","total_bonus_tally"
"true","full_screen","d04132023hr2210","fullscreen","0","64975","0.0-0.0","0","0","89618","","","","","","","","","","","","","","","","","","","","","",""
"","instructions","","instructions","1","77582","0.0-1.0-0.0-0.0","0","0","89618","[{""page_index"":0,""viewing_time"":3166},{""page_index"":1,""viewing_time"":2908},{""page_index"":2,""viewing_time"":5438},{""page_index"":3,""viewing_time"":1090}]","12603","","","","","","","","","","","","","","","","","","","",""
"","comprehension_check","","survey-multi-choice","2","96241","0.0-1.0-0.0-1.0","0","0","89618","","18649","{""Q0"":""True"",""Q1"":""D"",""Q2"":""Only while the second image is shown"",""Q3"":""Green mark"",""Q4"":""either D or K""}","1","","","","","","","","","","","","","","","","","",""
"","missed_instruction_checkup","","html-keyboard-response","3","97834","0.0-1.0-0.0-2.0-0.0","0","1","89618","","1586","","","32","","","","","","","","","","","","","","","","",""
"","instructions","","instructions","4","106797","0.0-1.0-0.1-0.1","0","0","89618","[{""page_index"":0,""viewing_time"":2619},{""page_index"":1,""viewing_time"":2598},{""page_index"":2,""viewing_time"":2484},{""page_index"":3,""viewing_time"":1259}]","8960","","","","","","","","","","","","","","","","","","","",""
"","comprehension_check","","survey-multi-choice","5","113993","0.0-1.0-0.1-1.1","0","0","89618","","7182","{""Q0"":""True"",""Q1"":""D"",""Q2"":""Once the second image appears and while the screen 'MAKE A CHOICE' is shown"",""Q3"":""Green mark"",""Q4"":""either D or K""}","0","","","","","","","","","","","","","","","","","",""
"","start_exp","","html-keyboard-response","6","115138","0.0-1.0-1.0","0","0","89618","","1141","","","32","","","","","","","","","","","","","","","","",""
"","S1","","html-keyboard-response","7","115395","0.0-1.0-2.0","0","0","89618","","null","","","null","0","","","","","","","","","","","","","","","",""
"","ISI","","html-keyboard-response","8","116401","0.0-1.0-3.0","0","0","89618","","null","","","null","0","NaN","","","","","","","","","","","","","","",""
"","S2","","html-keyboard-response","9","116659","0.0-1.0-4.0","0","0","89618","","null","","","null","0","","NaN","","","","","","","","","","","","","",""
"","response","","html-keyboard-response","10","117813","0.0-1.0-5.0-0.0","0","0","89618","","1151","","","75","0","","","1","0","training","adjacent","DE","4","5","M.jpg","O.jpg","0","1","0","",""
"","feedback","","html-keyboard-response","11","118818","0.0-1.0-6.0-0.0","0","0","89618","","null","","","null","0","","","","","","","","","","","","","","","",""
"","time_out","","html-keyboard-response","12","120821","0.0-1.0-8.0-0.0","0","0","89618","","null","","","null","0","","","","","","","","","","","","","","","",""
"","ITI","","html-keyboard-response","13","121829","0.0-1.0-9.0","0","0","89618","","null","","","null","0","","","","","","","","","","","","","","","NaN",""
"","S1","","html-keyboard-response","14","122086","0.0-1.0-11.0","0","0","89618","","null","","","null","1","","","","","","","","","","","","","","","",""
"","ISI","","html-keyboard-response","15","123093","0.0-1.0-12.0","0","0","89618","","null","","","null","1","NaN","","","","","","","","","","","","","","",""
"","S2","","html-keyboard-response","16","123350","0.0-1.0-13.0","0","0","89618","","null","","","null","1","","NaN","","","","","","","","","","","","","",""
"","response","","html-keyboard-response","17","124041","0.0-1.0-14.0-0.0","0","0","89618","","688","","","75","1","","","1","1","training","adjacent","CB","3","2","Q.jpg","P.jpg","0","0","1","",""
"","feedback","","html-keyboard-response","18","125045","0.0-1.0-15.0-0.0","0","0","89618","","null","","","null","1","","","","","","","","","","","","","","","",""
"","ITI","","html-keyboard-response","19","126049","0.0-1.0-18.0","0","0","89618","","null","","","null","1","","","","","","","","","","","","","","","NaN",""
"","S1","","html-keyboard-response","20","126307","0.0-1.0-20.0","0","0","89618","","null","","","null","2","","","","","","","","","","","","","","","",""
"","ISI","","html-keyboard-response","21","127314","0.0-1.0-21.0","0","0","89618","","null","","","null","2","NaN","","","","","","","","","","","","","","",""
"","S2","","html-keyboard-response","22","127570","0.0-1.0-22.0","0","0","89618","","null","","","null","2","","NaN","","","","","","","","","","","","","",""
"","response","","html-keyboard-response","23","127883","0.0-1.0-23.0-0.0","0","0","89618","","310","","","68","2","","","1","2","training","adjacent","BA","2","1","P.jpg","L.jpg","1","0","0","",""
"","feedback","","html-keyboard-response","24","128891","0.0-1.0-24.0-0.0","0","0","89618","","null","","","null","2","","","","","","","","","","","","","","","",""
"","time_out","","html-keyboard-response","25","130896","0.0-1.0-26.0-0.0","0","0","89618","","null","","","null","2","","","","","","","","","","","","","","","",""
"","ITI","","html-keyboard-response","26","131904","0.0-1.0-27.0","0","0","89618","","null","","","null","2","","","","","","","","","","","","","","","NaN",""
"","S1","","html-keyboard-response","27","132159","0.0-1.0-29.0","0","0","89618","","null","","","null","3","","","","","","","","","","","","","","","",""
"","ISI","","html-keyboard-response","28","133166","0.0-1.0-30.0","0","0","89618","","null","","","null","3","NaN","","","","","","","","","","","","","","",""
"","S2","","html-keyboard-response","29","133422","0.0-1.0-31.0","0","0","89618","","null","","","null","3","","NaN","","","","","","","","","","","","","",""
"","response","","html-keyboard-response","30","133878","0.0-1.0-32.0-0.0","0","0","89618","","454","","","75","3","","","1","3","training","adjacent","ED","5","4","O.jpg","M.jpg","0","0","1","",""
"","feedback","","html-keyboard-response","31","134884","0.0-1.0-33.0-0.0","0","0","89618","","null","","","null","3","","","","","","","","","","","","","","","",""
"","ITI","","html-keyboard-response","32","135892","0.0-1.0-36.0","0","0","89618","","null","","","null","3","","","","","","","","","","","","","","","NaN",""
"","S1","","html-keyboard-response","33","136147","0.0-1.0-38.0","0","0","89618","","null","","","null","4","","","","","","","","","","","","","","","",""
"","ISI","","html-keyboard-response","34","137154","0.0-1.0-39.0","0","0","89618","","null","","","null","4","NaN","","","","","","","","","","","","","","",""
"","S2","","html-keyboard-response","35","137413","0.0-1.0-40.0","0","0","89618","","null","","","null","4","","NaN","","","","","","","","","","","","","",""
"","response","","html-keyboard-response","36","137743","0.0-1.0-41.0-0.0","0","0","89618","","327","","","75","4","","","1","4","training","adjacent","CD","3","4","Q.jpg","M.jpg","0","1","0","",""
"","feedback","","html-keyboard-response","37","138748","0.0-1.0-42.0-0.0","0","0","89618","","null","","","null","4","","","","","","","","","","","","","","","",""
"","time_out","","html-keyboard-response","38","140753","0.0-1.0-44.0-0.0","0","0","89618","","null","","","null","4","","","","","","","","","","","","","","","",""
"","ITI","","html-keyboard-response","39","141757","0.0-1.0-45.0","0","0","89618","","null","","","null","4","","","","","","","","","","","","","","","NaN",""
"","S1","","html-keyboard-response","40","142015","0.0-1.0-47.0","0","0","89618","","null","","","null","5","","","","","","","","","","","","","","","",""
"","ISI","","html-keyboard-response","41","143021","0.0-1.0-48.0","0","0","89618","","null","","","null","5","NaN","","","","","","","","","","","","","","",""
"","S2","","html-keyboard-response","42","143276","0.0-1.0-49.0","0","0","89618","","null","","","null","5","","NaN","","","","","","","","","","","","","",""
"","response","","html-keyboard-response","43","144155","0.0-1.0-50.0-0.0","0","0","89618","","876","","","68","5","","","1","5","training","adjacent","ED","5","4","O.jpg","M.jpg","1","0","0","",""
"","feedback","","html-keyboard-response","44","145163","0.0-1.0-51.0-0.0","0","0","89618","","null","","","null","5","","","","","","","","","","","","","","","",""
"","time_out","","html-keyboard-response","45","147168","0.0-1.0-53.0-0.0","0","0","89618","","null","","","null","5","","","","","","","","","","","","","","","",""
"","ITI","","html-keyboard-response","46","148176","0.0-1.0-54.0","0","0","89618","","null","","","null","5","","","","","","","","","","","","","","","NaN",""
"","S1","","html-keyboard-response","47","148431","0.0-1.0-56.0","0","0","89618","","null","","","null","6","","","","","","","","","","","","","","","",""
"","ISI","","html-keyboard-response","48","149439","0.0-1.0-57.0","0","0","89618","","null","","","null","6","NaN","","","","","","","","","","","","","","",""
"","S2","","html-keyboard-response","49","149697","0.0-1.0-58.0","0","0","89618","","null","","","null","6","","NaN","","","","","","","","","","","","","",""
"","response","","html-keyboard-response","50","150109","0.0-1.0-59.0-0.0","0","0","89618","","410","","","75","6","","","1","6","training","adjacent","BC","2","3","P.jpg","Q.jpg","0","1","0","",""
"","feedback","","html-keyboard-response","51","151116","0.0-1.0-60.0-0.0","0","0","89618","","null","","","null","6","","","","","","","","","","","","","","","",""
"","time_out","","html-keyboard-response","52","153122","0.0-1.0-62.0-0.0","0","0","89618","","null","","","null","6","","","","","","","","","","","","","","","",""
"","ITI","","html-keyboard-response","53","154129","0.0-1.0-63.0","0","0","89618","","null","","","null","6","","","","","","","","","","","","","","","NaN",""
"","S1","","html-keyboard-response","54","154385","0.0-1.0-65.0","0","0","89618","","null","","","null","7","","","","","","","","","","","","","","","",""
"","ISI","","html-keyboard-response","55","155391","0.0-1.0-66.0","0","0","89618","","null","","","null","7","NaN","","","","","","","","","","","","","","",""
"","S2","","html-keyboard-response","56","155647","0.0-1.0-67.0","0","0","89618","","null","","","null","7","","NaN","","","","","","","","","","","","","",""
"","response","","html-keyboard-response","57","156049","0.0-1.0-68.0-0.0","0","0","89618","","399","","","68","7","","","1","7","training","adjacent","BA","2","1","P.jpg","L.jpg","1","0","0","",""
"","feedback","","html-keyboard-response","58","157055","0.0-1.0-69.0-0.0","0","0","89618","","null","","","null","7","","","","","","","","","","","","","","","",""
"","time_out","","html-keyboard-response","59","159061","0.0-1.0-71.0-0.0","0","0","89618","","null","","","null","7","","","","","","","","","","","","","","","",""
"","ITI","","html-keyboard-response","60","160068","0.0-1.0-72.0","0","0","89618","","null","","","null","7","","","","","","","","","","","","","","","NaN",""
"","S1","","html-keyboard-response","61","160323","0.0-1.0-74.0","0","0","89618","","null","","","null","8","","","","","","","","","","","","","","","",""
"","ISI","","html-keyboard-response","62","161330","0.0-1.0-75.0","0","0","89618","","null","","","null","8","NaN","","","","","","","","","","","","","","",""
"","S2","","html-keyboard-response","63","161586","0.0-1.0-76.0","0","0","89618","","null","","","null","8","","NaN","","","","","","","","","","","","","",""
"","response","","html-keyboard-response","64","162301","0.0-1.0-77.0-0.0","0","0","89618","","712","","","68","8","","","1","8","training","adjacent","CB","3","2","Q.jpg","P.jpg","1","0","0","",""
"","feedback","","html-keyboard-response","65","163307","0.0-1.0-78.0-0.0","0","0","89618","","null","","","null","8","","","","","","","","","","","","","","","",""
"","time_out","","html-keyboard-response","66","165313","0.0-1.0-80.0-0.0","0","0","89618","","null","","","null","8","","","","","","","","","","","","","","","",""
"","ITI","","html-keyboard-response","67","166319","0.0-1.0-81.0","0","0","89618","","null","","","null","8","","","","","","","","","","","","","","","NaN",""
"","S1","","html-keyboard-response","68","166576","0.0-1.0-83.0","0","0","89618","","null","","","null","9","","","","","","","","","","","","","","","",""
"","ISI","","html-keyboard-response","69","167582","0.0-1.0-84.0","0","0","89618","","null","","","null","9","NaN","","","","","","","","","","","","","","",""
"","S2","","html-keyboard-response","70","167840","0.0-1.0-85.0","0","0","89618","","null","","","null","9","","NaN","","","","","","","","","","","","","",""
"","response","","html-keyboard-response","71","168236","0.0-1.0-86.0-0.0","0","0","89618","","392","","","75","9","","","1","9","training","adjacent","DC","4","3","M.jpg","Q.jpg","0","0","1","",""
"","feedback","","html-keyboard-response","72","169243","0.0-1.0-87.0-0.0","0","0","89618","","null","","","null","9","","","","","","","","","","","","","","","",""
"","ITI","","html-keyboard-response","73","170250","0.0-1.0-90.0","0","0","89618","","null","","","null","9","","","","","","","","","","","","","","","NaN",""
"","S1","","html-keyboard-response","74","170506","0.0-1.0-92.0","0","0","89618","","null","","","null","10","","","","","","","","","","","","","","","",""
"","ISI","","html-keyboard-response","75","171513","0.0-1.0-93.0","0","0","89618","","null","","","null","10","NaN","","","","","","","","","","","","","","",""
"","S2","","html-keyboard-response","76","171768","0.0-1.0-94.0","0","0","89618","","null","","","null","10","","NaN","","","","","","","","","","","","","",""
"","response","","html-keyboard-response","77","172107","0.0-1.0-95.0-0.0","0","0","89618","","337","","","68","10","","","1","10","training","adjacent","AB","1","2","L.jpg","P.jpg","1","1","1","",""
"","feedback","","html-keyboard-response","78","173115","0.0-1.0-96.0-0.0","0","0","89618","","null","","","null","10","","","","","","","","","","","","","","","",""
"","ITI","","html-keyboard-response","79","174122","0.0-1.0-99.0","0","0","89618","","null","","","null","10","","","","","","","","","","","","","","","NaN",""
"","S1","","html-keyboard-response","80","174378","0.0-1.0-101.0","0","0","89618","","null","","","null","11","","","","","","","","","","","","","","","",""
"","ISI","","html-keyboard-response","81","175385","0.0-1.0-102.0","0","0","89618","","null","","","null","11","NaN","","","","","","","","","","","","","","",""
"","S2","","html-keyboard-response","82","175641","0.0-1.0-103.0","0","0","89618","","null","","","null","11","","NaN","","","","","","","","","","","","","",""
"","response","","html-keyboard-response","83","176050","0.0-1.0-104.0-0.0","0","0","89618","","407","","","75","11","","","1","11","training","adjacent","FE","6","5","N.jpg","O.jpg","0","0","1","",""
"","feedback","","html-keyboard-response","84","177054","0.0-1.0-105.0-0.0","0","0","89618","","null","","","null","11","","","","","","","","","","","","","","","",""
"","ITI","","html-keyboard-response","85","178058","0.0-1.0-108.0","0","0","89618","","null","","","null","11","","","","","","","","","","","","","","","NaN",""
"","S1","","html-keyboard-response","86","178314","0.0-1.0-110.0","0","0","89618","","null","","","null","12","","","","","","","","","","","","","","","",""
"","ISI","","html-keyboard-response","87","179320","0.0-1.0-111.0","0","0","89618","","null","","","null","12","NaN","","","","","","","","","","","","","","",""
"","S2","","html-keyboard-response","88","179576","0.0-1.0-112.0","0","0","89618","","null","","","null","12","","NaN","","","","","","","","","","","","","",""
"","response","","html-keyboard-response","89","180036","0.0-1.0-113.0-0.0","0","0","89618","","455","","","68","12","","","1","12","training","adjacent","GF","7","6","R.jpg","N.jpg","1","0","0","",""
"","feedback","","html-keyboard-response","90","181042","0.0-1.0-114.0-0.0","0","0","89618","","null","","","null","12","","","","","","","","","","","","","","","",""
"","time_out","","html-keyboard-response","91","183045","0.0-1.0-116.0-0.0","0","0","89618","","null","","","null","12","","","","","","","","","","","","","","","",""
"","ITI","","html-keyboard-response","92","184049","0.0-1.0-117.0","0","0","89618","","null","","","null","12","","","","","","","","","","","","","","","NaN",""
"","S1","","html-keyboard-response","93","184305","0.0-1.0-119.0","0","0","89618","","null","","","null","13","","","","","","","","","","","","","","","",""
"","ISI","","html-keyboard-response","94","185312","0.0-1.0-120.0","0","0","89618","","null","","","null","13","NaN","","","","","","","","","","","","","","",""
"","S2","","html-keyboard-response","95","185570","0.0-1.0-121.0","0","0","89618","","null","","","null","13","","NaN","","","","","","","","","","","","","",""
"","response","","html-keyboard-response","96","185936","0.0-1.0-122.0-0.0","0","0","89618","","362","","","68","13","","","1","13","training","adjacent","GF","7","6","R.jpg","N.jpg","1","0","0","",""
"","feedback","","html-keyboard-response","97","186940","0.0-1.0-123.0-0.0","0","0","89618","","null","","","null","13","","","","","","","","","","","","","","","",""
"","time_out","","html-keyboard-response","98","188946","0.0-1.0-125.0-0.0","0","0","89618","","null","","","null","13","","","","","","","","","","","","","","","",""
"","ITI","","html-keyboard-response","99","189953","0.0-1.0-126.0","0","0","89618","","null","","","null","13","","","","","","","","","","","","","","","NaN",""
"","S1","","html-keyboard-response","100","190208","0.0-1.0-128.0","0","0","89618","","null","","","null","14","","","","","","","","","","","","","","","",""
"","ISI","","html-keyboard-response","101","191215","0.0-1.0-129.0","0","0","89618","","null","","","null","14","NaN","","","","","","","","","","","","","","",""
"","S2","","html-keyboard-response","102","191471","0.0-1.0-130.0","0","0","89618","","null","","","null","14","","NaN","","","","","","","","","","","","","",""
"","response","","html-keyboard-response","103","191683","0.0-1.0-131.0-0.0","0","0","89618","","209","","","75","14","","","1","14","training","adjacent","BC","2","3","P.jpg","Q.jpg","0","1","0","",""
"","feedback","","html-keyboard-response","104","192690","0.0-1.0-132.0-0.0","0","0","89618","","null","","","null","14","","","","","","","","","","","","","","","",""
"","time_out","","html-keyboard-response","105","194696","0.0-1.0-134.0-0.0","0","0","89618","","null","","","null","14","","","","","","","","","","","","","","","",""
"","ITI","","html-keyboard-response","106","195703","0.0-1.0-135.0","0","0","89618","","null","","","null","14","","","","","","","","","","","","","","","NaN",""
"","S1","","html-keyboard-response","107","195959","0.0-1.0-137.0","0","0","89618","","null","","","null","15","","","","","","","","","","","","","","","",""
"","ISI","","html-keyboard-response","108","196966","0.0-1.0-138.0","0","0","89618","","null","","","null","15","NaN","","","","","","","","","","","","","","",""
"","S2","","html-keyboard-response","109","197224","0.0-1.0-139.0","0","0","89618","","null","","","null","15","","NaN","","","","","","","","","","","","","",""
"","response","","html-keyboard-response","110","197698","0.0-1.0-140.0-0.0","0","0","89618","","471","","","68","15","","","1","15","training","adjacent","FG","6","7","N.jpg","R.jpg","1","1","1","",""
"","feedback","","html-keyboard-response","111","198705","0.0-1.0-141.0-0.0","0","0","89618","","null","","","null","15","","","","","","","","","","","","","","","",""
"","ITI","","html-keyboard-response","112","199712","0.0-1.0-144.0","0","0","89618","","null","","","null","15","","","","","","","","","","","","","","","NaN",""
"","S1","","html-keyboard-response","113","199967","0.0-1.0-146.0","0","0","89618","","null","","","null","16","","","","","","","","","","","","","","","",""
"","ISI","","html-keyboard-response","114","200974","0.0-1.0-147.0","0","0","89618","","null","","","null","16","NaN","","","","","","","","","","","","","","",""
"","S2","","html-keyboard-response","115","201230","0.0-1.0-148.0","0","0","89618","","null","","","null","16","","NaN","","","","","","","","","","","","","",""
"","response","","html-keyboard-response","116","201303","0.0-1.0-149.0-0.0","0","0","89618","","70","","","75","16","","","1","16","training","adjacent","ED","5","4","O.jpg","M.jpg","0","0","1","",""
"","feedback","","html-keyboard-response","117","202309","0.0-1.0-150.0-0.0","0","0","89618","","null","","","null","16","","","","","","","","","","","","","","","",""
"","ITI","","html-keyboard-response","118","203314","0.0-1.0-153.0","0","0","89618","","null","","","null","16","","","","","","","","","","","","","","","NaN",""
"","S1","","html-keyboard-response","119","203569","0.0-1.0-155.0","0","0","89618","","null","","","null","17","","","","","","","","","","","","","","","",""
"","ISI","","html-keyboard-response","120","204577","0.0-1.0-156.0","0","0","89618","","null","","","null","17","NaN","","","","","","","","","","","","","","",""
"","S2","","html-keyboard-response","121","204832","0.0-1.0-157.0","0","0","89618","","null","","","null","17","","NaN","","","","","","","","","","","","","",""
"","response","","html-keyboard-response","122","205041","0.0-1.0-158.0-0.0","0","0","89618","","206","","","68","17","","","1","17","training","adjacent","AB","1","2","L.jpg","P.jpg","1","1","1","",""
"","feedback","","html-keyboard-response","123","206045","0.0-1.0-159.0-0.0","0","0","89618","","null","","","null","17","","","","","","","","","","","","","","","",""
"","ITI","","html-keyboard-response","124","207049","0.0-1.0-162.0","0","0","89618","","null","","","null","17","","","","","","","","","","","","","","","NaN",""
"","S1","","html-keyboard-response","125","207305","0.0-1.0-164.0","0","0","89618","","null","","","null","18","","","","","","","","","","","","","","","",""
"","ISI","","html-keyboard-response","126","208312","0.0-1.0-165.0","0","0","89618","","null","","","null","18","NaN","","","","","","","","","","","","","","",""
"","S2","","html-keyboard-response","127","208568","0.0-1.0-166.0","0","0","89618","","null","","","null","18","","NaN","","","","","","","","","","","","","",""
"","response","","html-keyboard-response","128","208705","0.0-1.0-167.0-0.0","0","0","89618","","134","","","75","18","","","1","18","training","adjacent","EF","5","6","O.jpg","N.jpg","0","1","0","",""
"","feedback","","html-keyboard-response","129","209711","0.0-1.0-168.0-0.0","0","0","89618","","null","","","null","18","","","","","","","","","","","","","","","",""
"","time_out","","html-keyboard-response","130","211717","0.0-1.0-170.0-0.0","0","0","89618","","null","","","null","18","","","","","","","","","","","","","","","",""
"","ITI","","html-keyboard-response","131","212724","0.0-1.0-171.0","0","0","89618","","null","","","null","18","","","","","","","","","","","","","","","NaN",""
"","S1","","html-keyboard-response","132","212977","0.0-1.0-173.0","0","0","89618","","null","","","null","19","","","","","","","","","","","","","","","",""
"","ISI","","html-keyboard-response","133","213984","0.0-1.0-174.0","0","0","89618","","null","","","null","19","NaN","","","","","","","","","","","","","","",""
"","S2","","html-keyboard-response","134","214239","0.0-1.0-175.0","0","0","89618","","null","","","null","19","","NaN","","","","","","","","","","","","","",""
"","response","","html-keyboard-response","135","214251","0.0-1.0-176.0-0.0","0","0","89618","","9","","","68","19","","","1","19","training","adjacent","EF","5","6","O.jpg","N.jpg","1","1","1","",""
"","feedback","","html-keyboard-response","136","215258","0.0-1.0-177.0-0.0","0","0","89618","","null","","","null","19","","","","","","","","","","","","","","","",""
"","ITI","","html-keyboard-response","137","216266","0.0-1.0-180.0","0","0","89618","","null","","","null","19","","","","","","","","","","","","","","","NaN",""
"","S1","","html-keyboard-response","138","216521","0.0-1.0-182.0","0","0","89618","","null","","","null","20","","","","","","","","","","","","","","","",""
"","ISI","","html-keyboard-response","139","217528","0.0-1.0-183.0","0","0","89618","","null","","","null","20","NaN","","","","","","","","","","","","","","",""
"","S2","","html-keyboard-response","140","217784","0.0-1.0-184.0","0","0","89618","","null","","","null","20","","NaN","","","","","","","","","","","","","",""
"","response","","html-keyboard-response","141","217790","0.0-1.0-185.0-0.0","0","0","89618","","1","","","75","20","","","1","20","training","adjacent","CB","3","2","Q.jpg","P.jpg","0","0","1","",""
"","feedback","","html-keyboard-response","142","218797","0.0-1.0-186.0-0.0","0","0","89618","","null","","","null","20","","","","","","","","","","","","","","","",""
"","ITI","","html-keyboard-response","143","219804","0.0-1.0-189.0","0","0","89618","","null","","","null","20","","","","","","","","","","","","","","","NaN",""
"","S1","","html-keyboard-response","144","220059","0.0-1.0-191.0","0","0","89618","","null","","","null","21","","","","","","","","","","","","","","","",""
"","ISI","","html-keyboard-response","145","221066","0.0-1.0-192.0","0","0","89618","","null","","","null","21","NaN","","","","","","","","","","","","","","",""
"","S2","","html-keyboard-response","146","221322","0.0-1.0-193.0","0","0","89618","","null","","","null","21","","NaN","","","","","","","","","","","","","",""
"","response","","html-keyboard-response","147","221489","0.0-1.0-194.0-0.0","0","0","89618","","164","","","75","21","","","1","21","training","adjacent","CD","3","4","Q.jpg","M.jpg","0","1","0","",""
"","feedback","","html-keyboard-response","148","222498","0.0-1.0-195.0-0.0","0","0","89618","","null","","","null","21","","","","","","","","","","","","","","","",""
"","time_out","","html-keyboard-response","149","224503","0.0-1.0-197.0-0.0","0","0","89618","","null","","","null","21","","","","","","","","","","","","","","","",""
"","ITI","","html-keyboard-response","150","225510","0.0-1.0-198.0","0","0","89618","","null","","","null","21","","","","","","","","","","","","","","","NaN",""
"","S1","","html-keyboard-response","151","225766","0.0-1.0-200.0","0","0","89618","","null","","","null","22","","","","","","","","","","","","","","","",""
"","ISI","","html-keyboard-response","152","226773","0.0-1.0-201.0","0","0","89618","","null","","","null","22","NaN","","","","","","","","","","","","","","",""
"","S2","","html-keyboard-response","153","227028","0.0-1.0-202.0","0","0","89618","","null","","","null","22","","NaN","","","","","","","","","","","","","",""
"","response","","html-keyboard-response","154","227133","0.0-1.0-203.0-0.0","0","0","89618","","102","","","75","22","","","1","22","training","adjacent","DC","4","3","M.jpg","Q.jpg","0","0","1","",""
"","feedback","","html-keyboard-response","155","228140","0.0-1.0-204.0-0.0","0","0","89618","","null","","","null","22","","","","","","","","","","","","","","","",""
"","ITI","","html-keyboard-response","156","229147","0.0-1.0-207.0","0","0","89618","","null","","","null","22","","","","","","","","","","","","","","","NaN",""
"","S1","","html-keyboard-response","157","229402","0.0-1.0-209.0","0","0","89618","","null","","","null","23","","","","","","","","","","","","","","","",""
"","ISI","","html-keyboard-response","158","230411","0.0-1.0-210.0","0","0","89618","","null","","","null","23","NaN","","","","","","","","","","","","","","",""
"","S2","","html-keyboard-response","159","230668","0.0-1.0-211.0","0","0","89618","","null","","","null","23","","NaN","","","","","","","","","","","","","",""
"","response","","html-keyboard-response","160","230776","0.0-1.0-212.0-0.0","0","0","89618","","105","","","68","23","","","1","23","training","adjacent","EF","5","6","O.jpg","N.jpg","1","1","1","",""
"","feedback","","html-keyboard-response","161","231783","0.0-1.0-213.0-0.0","0","0","89618","","null","","","null","23","","","","","","","","","","","","","","","",""
"","ITI","","html-keyboard-response","162","232790","0.0-1.0-216.0","0","0","89618","","null","","","null","23","","","","","","","","","","","","","","","NaN",""
"","S1","","html-keyboard-response","163","233043","0.0-1.0-218.0","0","0","89618","","null","","","null","24","","","","","","","","","","","","","","","",""
"","ISI","","html-keyboard-response","164","234046","0.0-1.0-219.0","0","0","89618","","null","","","null","24","NaN","","","","","","","","","","","","","","",""
"","S2","","html-keyboard-response","165","234302","0.0-1.0-220.0","0","0","89618","","null","","","null","24","","NaN","","","","","","","","","","","","","",""
"","response","","html-keyboard-response","166","234391","0.0-1.0-221.0-0.0","0","0","89618","","87","","","75","24","","","1","24","training","adjacent","DE","4","5","M.jpg","O.jpg","0","1","0","",""
"","feedback","","html-keyboard-response","167","235396","0.0-1.0-222.0-0.0","0","0","89618","","null","","","null","24","","","","","","","","","","","","","","","",""
"","time_out","","html-keyboard-response","168","237402","0.0-1.0-224.0-0.0","0","0","89618","","null","","","null","24","","","","","","","","","","","","","","","",""
"","ITI","","html-keyboard-response","169","238410","0.0-1.0-225.0","0","0","89618","","null","","","null","24","","","","","","","","","","","","","","","NaN",""
"","S1","","html-keyboard-response","170","238667","0.0-1.0-227.0","0","0","89618","","null","","","null","25","","","","","","","","","","","","","","","",""
"","ISI","","html-keyboard-response","171","239675","0.0-1.0-228.0","0","0","89618","","null","","","null","25","NaN","","","","","","","","","","","","","","",""
"","S2","","html-keyboard-response","172","239829","0.0-1.0-229.0","0","0","89618","","151","","","68","25","","d","1","25","training","adjacent","DE","4","5","M.jpg","O.jpg","1","1","1","",""
"","feedback","","html-keyboard-response","173","240836","0.0-1.0-231.0-0.0","0","0","89618","","null","","","null","25","","","","","","","","","","","","","","","",""
"","ITI","","html-keyboard-response","174","241843","0.0-1.0-234.0","0","0","89618","","null","","","null","25","","","","","","","","","","","","","","","NaN",""
"","S1","","html-keyboard-response","175","242100","0.0-1.0-236.0","0","0","89618","","null","","","null","26","","","","","","","","","","","","","","","",""
"","ISI","","html-keyboard-response","176","243106","0.0-1.0-237.0","0","0","89618","","690","","","75","26","k","","","","","","","","","","","","","","",""
"","S2","","html-keyboard-response","177","243364","0.0-1.0-238.0","0","0","89618","","null","","","null","26","","NaN","","","","","","","","","","","","","",""
"","response","","html-keyboard-response","178","243513","0.0-1.0-239.0-0.0","0","0","89618","","147","","","75","26","","","1","26","training","adjacent","FG","6","7","N.jpg","R.jpg","0","1","0","",""
"","feedback","","html-keyboard-response","179","244520","0.0-1.0-240.0-0.0","0","0","89618","","null","","","null","26","","","","","","","","","","","","","","","",""
"","time_out","","html-keyboard-response","180","246525","0.0-1.0-242.0-0.0","0","0","89618","","null","","","null","26","","","","","","","","","","","","","","","",""
"","ITI","","html-keyboard-response","181","247533","0.0-1.0-243.0","0","0","89618","","null","","","null","26","","","","","","","","","","","","","","","NaN",""
"","S1","","html-keyboard-response","182","247788","0.0-1.0-245.0","0","0","89618","","null","","","null","27","","","","","","","","","","","","","","","",""
"","ISI","","html-keyboard-response","183","248795","0.0-1.0-246.0","0","0","89618","","36","","","68","27","d","","","","","","","","","","","","","","",""
"","S2","","html-keyboard-response","184","249051","0.0-1.0-247.0","0","0","89618","","null","","","null","27","","NaN","","","","","","","","","","","","","",""
"","response","","html-keyboard-response","185","249226","0.0-1.0-248.0-0.0","0","0","89618","","173","","","68","27","","","1","27","training","adjacent","GF","7","6","R.jpg","N.jpg","1","0","0","",""
"","feedback","","html-keyboard-response","186","250232","0.0-1.0-249.0-0.0","0","0","89618","","null","","","null","27","","","","","","","","","","","","","","","",""
"","time_out","","html-keyboard-response","187","252238","0.0-1.0-251.0-0.0","0","0","89618","","null","","","null","27","","","","","","","","","","","","","","","",""
"","ITI","","html-keyboard-response","188","253245","0.0-1.0-252.0","0","0","89618","","null","","","null","27","","","","","","","","","","","","","","","NaN",""
"","S1","","html-keyboard-response","189","253500","0.0-1.0-254.0","0","0","89618","","null","","","null","28","","","","","","","","","","","","","","","",""
"","ISI","","html-keyboard-response","190","254505","0.0-1.0-255.0","0","0","89618","","295","","","75","28","k","","","","","","","","","","","","","","",""
"","S2","","html-keyboard-response","191","254763","0.0-1.0-256.0","0","0","89618","","null","","","null","28","","NaN","","","","","","","","","","","","","",""
"","response","","html-keyboard-response","192","256354","0.0-1.0-257.0-0.0","0","0","89618","","1588","","","68","28","","","1","28","training","adjacent","EF","5","6","O.jpg","N.jpg","1","1","1","",""
"","feedback","","html-keyboard-response","193","257361","0.0-1.0-258.0-0.0","0","0","89618","","null","","","null","28","","","","","","","","","","","","","","","",""
"","ITI","","html-keyboard-response","194","258367","0.0-1.0-261.0","0","0","89618","","null","","","null","28","","","","","","","","","","","","","","","NaN",""
"","S1","","html-keyboard-response","195","258623","0.0-1.0-263.0","0","0","89618","","null","","","null","29","","","","","","","","","","","","","","","",""
"","ISI","","html-keyboard-response","196","259630","0.0-1.0-264.0","0","0","89618","","null","","","null","29","NaN","","","","","","","","","","","","","","",""
"","S2","","html-keyboard-response","197","259886","0.0-1.0-265.0","0","0","89618","","null","","","null","29","","NaN","","","","","","","","","","","","","",""
"","response","","html-keyboard-response","198","261642","0.0-1.0-266.0-0.0","0","0","89618","","null","","","null","29","","","1","29","training","adjacent","CD","3","4","Q.jpg","M.jpg","NaN","1","0","",""
"","too_slow_prompt","","html-keyboard-response","199","262650","0.0-1.0-268.0-0.0","1","0","89618","","null","","","null","","","","","","","","","","","","","","","","",""
"","time_out","","html-keyboard-response","200","264655","0.0-1.0-269.0-0.0","0","0","89618","","null","","","null","29","","","","","","","","","","","","","","","",""
"","ITI","","html-keyboard-response","201","265662","0.0-1.0-270.0","0","0","89618","","null","","","null","29","","","","","","","","","","","","","","","NaN",""
"","S1","","html-keyboard-response","202","265918","0.0-1.0-272.0","0","0","89618","","null","","","null","30","","","","","","","","","","","","","","","",""
"","ISI","","html-keyboard-response","203","266925","0.0-1.0-273.0","0","0","89618","","null","","","null","30","NaN","","","","","","","","","","","","","","",""
"","S2","","html-keyboard-response","204","267183","0.0-1.0-274.0","0","0","89618","","null","","","null","30","","NaN","","","","","","","","","","","","","",""
"","response","","html-keyboard-response","205","267477","0.0-1.0-275.0-0.0","0","0","89618","","291","","","75","30","","","1","30","training","adjacent","BC","2","3","P.jpg","Q.jpg","0","1","0","",""
"","feedback","","html-keyboard-response","206","268484","0.0-1.0-276.0-0.0","0","0","89618","","null","","","null","30","","","","","","","","","","","","","","","",""
"","time_out","","html-keyboard-response","207","270492","0.0-1.0-278.0-0.0","0","0","89618","","null","","","null","30","","","","","","","","","","","","","","","",""
"","ITI","","html-keyboard-response","208","271500","0.0-1.0-279.0","0","0","89618","","null","","","null","30","","","","","","","","","","","","","","","NaN",""
"","S1","","html-keyboard-response","209","271758","0.0-1.0-281.0","0","0","89618","","null","","","null","31","","","","","","","","","","","","","","","",""
"","ISI","","html-keyboard-response","210","272765","0.0-1.0-282.0","0","0","89618","","null","","","null","31","NaN","","","","","","","","","","","","","","",""
"","S2","","html-keyboard-response","211","273023","0.0-1.0-283.0","0","0","89618","","null","","","null","31","","NaN","","","","","","","","","","","","","",""
"","response","","html-keyboard-response","212","273055","0.0-1.0-284.0-0.0","0","0","89618","","29","","","68","31","","","1","31","training","adjacent","FG","6","7","N.jpg","R.jpg","1","1","1","",""
"","feedback","","html-keyboard-response","213","274060","0.0-1.0-285.0-0.0","0","0","89618","","null","","","null","31","","","","","","","","","","","","","","","",""
"","ITI","","html-keyboard-response","214","275064","0.0-1.0-288.0","0","0","89618","","null","","","null","31","","","","","","","","","","","","","","","NaN",""
"","S1","","html-keyboard-response","215","275319","0.0-1.0-290.0","0","0","89618","","null","","","null","32","","","","","","","","","","","","","","","",""
"","ISI","","html-keyboard-response","216","276326","0.0-1.0-291.0","0","0","89618","","null","","","null","32","NaN","","","","","","","","","","","","","","",""
"","S2","","html-keyboard-response","217","276582","0.0-1.0-292.0","0","0","89618","","null","","","null","32","","NaN","","","","","","","","","","","","","",""
"","response","","html-keyboard-response","218","276647","0.0-1.0-293.0-0.0","0","0","89618","","62","","","75","32","","","1","32","training","adjacent","DC","4","3","M.jpg","Q.jpg","0","0","1","",""
"","feedback","","html-keyboard-response","219","277653","0.0-1.0-294.0-0.0","0","0","89618","","null","","","null","32","","","","","","","","","","","","","","","",""
"","ITI","","html-keyboard-response","220","278660","0.0-1.0-297.0","0","0","89618","","null","","","null","32","","","","","","","","","","","","","","","NaN",""
"","S1","","html-keyboard-response","221","278916","0.0-1.0-299.0","0","0","89618","","null","","","null","33","","","","","","","","","","","","","","","",""
"","ISI","","html-keyboard-response","222","279923","0.0-1.0-300.0","0","0","89618","","null","","","null","33","NaN","","","","","","","","","","","","","","",""
"","S2","","html-keyboard-response","223","280172","0.0-1.0-301.0","0","0","89618","","246","","","68","33","","d","1","33","training","adjacent","CD","3","4","Q.jpg","M.jpg","1","1","1","",""
"","feedback","","html-keyboard-response","224","281181","0.0-1.0-303.0-0.0","0","0","89618","","null","","","null","33","","","","","","","","","","","","","","","",""
"","ITI","","html-keyboard-response","225","282187","0.0-1.0-306.0","0","0","89618","","null","","","null","33","","","","","","","","","","","","","","","NaN",""
"","S1","","html-keyboard-response","226","282442","0.0-1.0-308.0","0","0","89618","","null","","","null","34","","","","","","","","","","","","","","","",""
"","ISI","","html-keyboard-response","227","283449","0.0-1.0-309.0","0","0","89618","","819","","","75","34","k","","","","","","","","","","","","","","",""
"","S2","","html-keyboard-response","228","283705","0.0-1.0-310.0","0","0","89618","","null","","","null","34","","NaN","","","","","","","","","","","","","",""
"","response","","html-keyboard-response","229","284058","0.0-1.0-311.0-0.0","0","0","89618","","349","","","68","34","","","1","34","training","adjacent","AB","1","2","L.jpg","P.jpg","1","1","1","",""
"","feedback","","html-keyboard-response","230","285063","0.0-1.0-312.0-0.0","0","0","89618","","null","","","null","34","","","","","","","","","","","","","","","",""
"","ITI","","html-keyboard-response","231","286070","0.0-1.0-315.0","0","0","89618","","null","","","null","34","","","","","","","","","","","","","","","NaN",""
"","S1","","html-keyboard-response","232","286326","0.0-1.0-317.0","0","0","89618","","null","","","null","35","","","","","","","","","","","","","","","",""
"","ISI","","html-keyboard-response","233","287333","0.0-1.0-318.0","0","0","89618","","954","","","75","35","k","","","","","","","","","","","","","","",""
"","S2","","html-keyboard-response","234","287589","0.0-1.0-319.0","0","0","89618","","null","","","null","35","","NaN","","","","","","","","","","","","","",""
"","response","","html-keyboard-response","235","287832","0.0-1.0-320.0-0.0","0","0","89618","","240","","","75","35","","","1","35","training","adjacent","FE","6","5","N.jpg","O.jpg","0","0","1","",""
"","feedback","","html-keyboard-response","236","288840","0.0-1.0-321.0-0.0","0","0","89618","","null","","","null","35","","","","","","","","","","","","","","","",""
"","ITI","","html-keyboard-response","237","289847","0.0-1.0-324.0","0","0","89618","","null","","","null","35","","","","","","","","","","","","","","","NaN",""
"","S1","","html-keyboard-response","238","290105","0.0-1.0-326.0","0","0","89618","","null","","","null","36","","","","","","","","","","","","","","","",""
"","ISI","","html-keyboard-response","239","291112","0.0-1.0-327.0","0","0","89618","","null","","","null","36","NaN","","","","","","","","","","","","","","",""
"","S2","","html-keyboard-response","240","291368","0.0-1.0-328.0","0","0","89618","","null","","","null","36","","NaN","","","","","","","","","","","","","",""
"","response","","html-keyboard-response","241","291634","0.0-1.0-329.0-0.0","0","0","89618","","263","","","68","36","","","1","36","training","adjacent","BC","2","3","P.jpg","Q.jpg","1","1","1","",""
"","feedback","","html-keyboard-response","242","292642","0.0-1.0-330.0-0.0","0","0","89618","","null","","","null","36","","","","","","","","","","","","","","","",""
"","ITI","","html-keyboard-response","243","293650","0.0-1.0-333.0","0","0","89618","","null","","","null","36","","","","","","","","","","","","","","","NaN",""
"","S1","","html-keyboard-response","244","293908","0.0-1.0-335.0","0","0","89618","","null","","","null","37","","","","","","","","","","","","","","","",""
"","ISI","","html-keyboard-response","245","294915","0.0-1.0-336.0","0","0","89618","","null","","","null","37","NaN","","","","","","","","","","","","","","",""
"","S2","","html-keyboard-response","246","295170","0.0-1.0-337.0","0","0","89618","","null","","","null","37","","NaN","","","","","","","","","","","","","",""
"","response","","html-keyboard-response","247","295204","0.0-1.0-338.0-0.0","0","0","89618","","31","","","75","37","","","1","37","training","adjacent","FG","6","7","N.jpg","R.jpg","0","1","0","",""
"","feedback","","html-keyboard-response","248","296209","0.0-1.0-339.0-0.0","0","0","89618","","null","","","null","37","","","","","","","","","","","","","","","",""
"","time_out","","html-keyboard-response","249","298217","0.0-1.0-341.0-0.0","0","0","89618","","null","","","null","37","","","","","","","","","","","","","","","",""
"","ITI","","html-keyboard-response","250","299222","0.0-1.0-342.0","0","0","89618","","null","","","null","37","","","","","","","","","","","","","","","NaN",""
"","S1","","html-keyboard-response","251","299477","0.0-1.0-344.0","0","0","89618","","null","","","null","38","","","","","","","","","","","","","","","",""
"","ISI","","html-keyboard-response","252","300485","0.0-1.0-345.0","0","0","89618","","642","","","68","38","d","","","","","","","","","","","","","","",""
"","S2","","html-keyboard-response","253","300741","0.0-1.0-346.0","0","0","89618","","null","","","null","38","","NaN","","","","","","","","","","","","","",""
"","response","","html-keyboard-response","254","300881","0.0-1.0-347.0-0.0","0","0","89618","","137","","","68","38","","","1","38","training","adjacent","FE","6","5","N.jpg","O.jpg","1","0","0","",""
"","feedback","","html-keyboard-response","255","301889","0.0-1.0-348.0-0.0","0","0","89618","","null","","","null","38","","","","","","","","","","","","","","","",""
"","time_out","","html-keyboard-response","256","303896","0.0-1.0-350.0-0.0","0","0","89618","","null","","","null","38","","","","","","","","","","","","","","","",""
"","ITI","","html-keyboard-response","257","304902","0.0-1.0-351.0","0","0","89618","","null","","","null","38","","","","","","","","","","","","","","","NaN",""
"","S1","","html-keyboard-response","258","305160","0.0-1.0-353.0","0","0","89618","","null","","","null","39","","","","","","","","","","","","","","","",""
"","ISI","","html-keyboard-response","259","306167","0.0-1.0-354.0","0","0","89618","","181","","","75","39","k","","","","","","","","","","","","","","",""
"","S2","","html-keyboard-response","260","306424","0.0-1.0-355.0","0","0","89618","","null","","","null","39","","NaN","","","","","","","","","","","","","",""
"","response","","html-keyboard-response","261","307191","0.0-1.0-356.0-0.0","0","0","89618","","764","","","68","39","","","1","39","training","adjacent","CB","3","2","Q.jpg","P.jpg","1","0","0","",""
"","feedback","","html-keyboard-response","262","308197","0.0-1.0-357.0-0.0","0","0","89618","","null","","","null","39","","","","","","","","","","","","","","","",""
"","time_out","","html-keyboard-response","263","310203","0.0-1.0-359.0-0.0","0","0","89618","","null","","","null","39","","","","","","","","","","","","","","","",""
"","ITI","","html-keyboard-response","264","311210","0.0-1.0-360.0","0","0","89618","","null","","","null","39","","","","","","","","","","","","","","","NaN",""
"","S1","","html-keyboard-response","265","311466","0.0-1.0-362.0","0","0","89618","","null","","","null","40","","","","","","","","","","","","","","","",""
"","ISI","","html-keyboard-response","266","312472","0.0-1.0-363.0","0","0","89618","","null","","","null","40","NaN","","","","","","","","","","","","","","",""
"","S2","","html-keyboard-response","267","312729","0.0-1.0-364.0","0","0","89618","","null","","","null","40","","NaN","","","","","","","","","","","","","",""
"","response","","html-keyboard-response","268","312810","0.0-1.0-365.0-0.0","0","0","89618","","79","","","75","40","","","1","40","training","adjacent","DE","4","5","M.jpg","O.jpg","0","1","0","",""
"","feedback","","html-keyboard-response","269","313817","0.0-1.0-366.0-0.0","0","0","89618","","null","","","null","40","","","","","","","","","","","","","","","",""
"","time_out","","html-keyboard-response","270","315823","0.0-1.0-368.0-0.0","0","0","89618","","null","","","null","40","","","","","","","","","","","","","","","",""
"","ITI","","html-keyboard-response","271","316829","0.0-1.0-369.0","0","0","89618","","null","","","null","40","","","","","","","","","","","","","","","NaN",""
"","S1","","html-keyboard-response","272","317085","0.0-1.0-371.0","0","0","89618","","null","","","null","41","","","","","","","","","","","","","","","",""
"","ISI","","html-keyboard-response","273","318092","0.0-1.0-372.0","0","0","89618","","null","","","null","41","NaN","","","","","","","","","","","","","","",""
"","S2","","html-keyboard-response","274","318351","0.0-1.0-373.0","0","0","89618","","null","","","null","41","","NaN","","","","","","","","","","","","","",""
"","response","","html-keyboard-response","275","318756","0.0-1.0-374.0-0.0","0","0","89618","","400","","","68","41","","","1","41","training","adjacent","DC","4","3","M.jpg","Q.jpg","1","0","0","",""
"","feedback","","html-keyboard-response","276","319761","0.0-1.0-375.0-0.0","0","0","89618","","null","","","null","41","","","","","","","","","","","","","","","",""
"","time_out","","html-keyboard-response","277","321769","0.0-1.0-377.0-0.0","0","0","89618","","null","","","null","41","","","","","","","","","","","","","","","",""
"","ITI","","html-keyboard-response","278","322774","0.0-1.0-378.0","0","0","89618","","null","","","null","41","","","","","","","","","","","","","","","NaN",""
"","S1","","html-keyboard-response","279","323030","0.0-1.0-380.0","0","0","89618","","null","","","null","42","","","","","","","","","","","","","","","",""
"","ISI","","html-keyboard-response","280","324037","0.0-1.0-381.0","0","0","89618","","null","","","null","42","NaN","","","","","","","","","","","","","","",""
"","S2","","html-keyboard-response","281","324292","0.0-1.0-382.0","0","0","89618","","null","","","null","42","","NaN","","","","","","","","","","","","","",""
"","response","","html-keyboard-response","282","324563","0.0-1.0-383.0-0.0","0","0","89618","","268","","","75","42","","","1","42","training","adjacent","BA","2","1","P.jpg","L.jpg","0","0","1","",""
"","feedback","","html-keyboard-response","283","325570","0.0-1.0-384.0-0.0","0","0","89618","","null","","","null","42","","","","","","","","","","","","","","","",""
"","ITI","","html-keyboard-response","284","326577","0.0-1.0-387.0","0","0","89618","","null","","","null","42","","","","","","","","","","","","","","","NaN",""
"","S1","","html-keyboard-response","285","326832","0.0-1.0-389.0","0","0","89618","","null","","","null","43","","","","","","","","","","","","","","","",""
"","ISI","","html-keyboard-response","286","327840","0.0-1.0-390.0","0","0","89618","","null","","","null","43","NaN","","","","","","","","","","","","","","",""
"","S2","","html-keyboard-response","287","328098","0.0-1.0-391.0","0","0","89618","","null","","","null","43","","NaN","","","","","","","","","","","","","",""
"","response","","html-keyboard-response","288","328304","0.0-1.0-392.0-0.0","0","0","89618","","202","","","68","43","","","1","43","training","adjacent","FE","6","5","N.jpg","O.jpg","1","0","0","",""
"","feedback","","html-keyboard-response","289","329311","0.0-1.0-393.0-0.0","0","0","89618","","null","","","null","43","","","","","","","","","","","","","","","",""
"","time_out","","html-keyboard-response","290","331319","0.0-1.0-395.0-0.0","0","0","89618","","null","","","null","43","","","","","","","","","","","","","","","",""
"","ITI","","html-keyboard-response","291","332326","0.0-1.0-396.0","0","0","89618","","null","","","null","43","","","","","","","","","","","","","","","NaN",""
"","S1","","html-keyboard-response","292","332583","0.0-1.0-398.0","0","0","89618","","null","","","null","44","","","","","","","","","","","","","","","",""
"","ISI","","html-keyboard-response","293","333590","0.0-1.0-399.0","0","0","89618","","562","","","75","44","k","","","","","","","","","","","","","","",""
"","S2","","html-keyboard-response","294","333848","0.0-1.0-400.0","0","0","89618","","null","","","null","44","","NaN","","","","","","","","","","","","","",""
"","response","","html-keyboard-response","295","333857","0.0-1.0-401.0-0.0","0","0","89618","","5","","","75","44","","","1","44","training","adjacent","ED","5","4","O.jpg","M.jpg","0","0","1","",""
"","feedback","","html-keyboard-response","296","334864","0.0-1.0-402.0-0.0","0","0","89618","","null","","","null","44","","","","","","","","","","","","","","","",""
"","ITI","","html-keyboard-response","297","335871","0.0-1.0-405.0","0","0","89618","","null","","","null","44","","","","","","","","","","","","","","","NaN",""
"","S1","","html-keyboard-response","298","336127","0.0-1.0-407.0","0","0","89618","","null","","","null","45","","","","","","","","","","","","","","","",""
"","ISI","","html-keyboard-response","299","337130","0.0-1.0-408.0","0","0","89618","","null","","","null","45","NaN","","","","","","","","","","","","","","",""
"","S2","","html-keyboard-response","300","337386","0.0-1.0-409.0","0","0","89618","","null","","","null","45","","NaN","","","","","","","","","","","","","",""
"","response","","html-keyboard-response","301","337655","0.0-1.0-410.0-0.0","0","0","89618","","266","","","68","45","","","1","45","training","adjacent","GF","7","6","R.jpg","N.jpg","1","0","0","",""
"","feedback","","html-keyboard-response","302","338663","0.0-1.0-411.0-0.0","0","0","89618","","null","","","null","45","","","","","","","","","","","","","","","",""
"","time_out","","html-keyboard-response","303","340669","0.0-1.0-413.0-0.0","0","0","89618","","null","","","null","45","","","","","","","","","","","","","","","",""
"","ITI","","html-keyboard-response","304","341676","0.0-1.0-414.0","0","0","89618","","null","","","null","45","","","","","","","","","","","","","","","NaN",""
"","S1","","html-keyboard-response","305","341934","0.0-1.0-416.0","0","0","89618","","null","","","null","46","","","","","","","","","","","","","","","",""
"","ISI","","html-keyboard-response","306","342939","0.0-1.0-417.0","0","0","89618","","null","","","null","46","NaN","","","","","","","","","","","","","","",""
"","S2","","html-keyboard-response","307","343197","0.0-1.0-418.0","0","0","89618","","null","","","null","46","","NaN","","","","","","","","","","","","","",""
"","response","","html-keyboard-response","308","343319","0.0-1.0-419.0-0.0","0","0","89618","","119","","","75","46","","","1","46","training","adjacent","BA","2","1","P.jpg","L.jpg","0","0","1","",""
"","feedback","","html-keyboard-response","309","344326","0.0-1.0-420.0-0.0","0","0","89618","","null","","","null","46","","","","","","","","","","","","","","","",""
"","ITI","","html-keyboard-response","310","345334","0.0-1.0-423.0","0","0","89618","","null","","","null","46","","","","","","","","","","","","","","","NaN",""
"","S1","","html-keyboard-response","311","345592","0.0-1.0-425.0","0","0","89618","","null","","","null","47","","","","","","","","","","","","","","","",""
"","ISI","","html-keyboard-response","312","346599","0.0-1.0-426.0","0","0","89618","","null","","","null","47","NaN","","","","","","","","","","","","","","",""
"","S2","","html-keyboard-response","313","346855","0.0-1.0-427.0","0","0","89618","","null","","","null","47","","NaN","","","","","","","","","","","","","",""
"","response","","html-keyboard-response","314","347388","0.0-1.0-428.0-0.0","0","0","89618","","530","","","68","47","","","1","47","training","adjacent","AB","1","2","L.jpg","P.jpg","1","1","1","",""
"","feedback","","html-keyboard-response","315","348396","0.0-1.0-429.0-0.0","0","0","89618","","null","","","null","47","","","","","","","","","","","","","","","",""
"","ITI","","html-keyboard-response","316","349403","0.0-1.0-432.0","0","0","89618","","null","","","null","47","","","","","","","","","","","","","","","NaN",""
"","block_over","","html-keyboard-response","317","415848","0.0-1.0-433.0-0.0","0","0","89618","","66441","","","32","47","","","","","","","","","","","","","","","",""
"","S1","","html-keyboard-response","318","416105","0.0-1.0-434.0","0","0","89618","","null","","","null","48","","","","","","","","","","","","","","","",""
"","ISI","","html-keyboard-response","319","417113","0.0-1.0-435.0","0","0","89618","","null","","","null","48","NaN","","","","","","","","","","","","","","",""
"","S2","","html-keyboard-response","320","417371","0.0-1.0-436.0","0","0","89618","","null","","","null","48","","NaN","","","","","","","","","","","","","",""
"","response","","html-keyboard-response","321","418086","0.0-1.0-437.0-0.0","0","0","89618","","712","","","68","48","","","2","48","training","adjacent","BA","2","1","P.jpg","L.jpg","1","0","0","",""
"","feedback","","html-keyboard-response","322","419092","0.0-1.0-438.0-0.0","0","0","89618","","null","","","null","48","","","","","","","","","","","","","","","",""
"","time_out","","html-keyboard-response","323","421098","0.0-1.0-440.0-0.0","0","0","89618","","null","","","null","48","","","","","","","","","","","","","","","",""
"","ITI","","html-keyboard-response","324","422105","0.0-1.0-441.0","0","0","89618","","null","","","null","48","","","","","","","","","","","","","","","NaN",""
"","S1","","html-keyboard-response","325","422361","0.0-1.0-443.0","0","0","89618","","null","","","null","49","","","","","","","","","","","","","","","",""
"","ISI","","html-keyboard-response","326","423368","0.0-1.0-444.0","0","0","89618","","null","","","null","49","NaN","","","","","","","","","","","","","","",""
"","S2","","html-keyboard-response","327","423623","0.0-1.0-445.0","0","0","89618","","null","","","null","49","","NaN","","","","","","","","","","","","","",""
"","response","","html-keyboard-response","328","423820","0.0-1.0-446.0-0.0","0","0","89618","","194","","","75","49","","","2","49","training","adjacent","FG","6","7","N.jpg","R.jpg","0","1","0","",""
"","feedback","","html-keyboard-response","329","424828","0.0-1.0-447.0-0.0","0","0","89618","","null","","","null","49","","","","","","","","","","","","","","","",""
"","time_out","","html-keyboard-response","330","426833","0.0-1.0-449.0-0.0","0","0","89618","","null","","","null","49","","","","","","","","","","","","","","","",""
"","ITI","","html-keyboard-response","331","427840","0.0-1.0-450.0","0","0","89618","","null","","","null","49","","","","","","","","","","","","","","","NaN",""
"","S1","","html-keyboard-response","332","428096","0.0-1.0-452.0","0","0","89618","","null","","","null","50","","","","","","","","","","","","","","","",""
"","ISI","","html-keyboard-response","333","429103","0.0-1.0-453.0","0","0","89618","","null","","","null","50","NaN","","","","","","","","","","","","","","",""
"","S2","","html-keyboard-response","334","429359","0.0-1.0-454.0","0","0","89618","","null","","","null","50","","NaN","","","","","","","","","","","","","",""
"","response","","html-keyboard-response","335","429451","0.0-1.0-455.0-0.0","0","0","89618","","90","","","68","50","","","2","50","training","adjacent","AB","1","2","L.jpg","P.jpg","1","1","1","",""
"","feedback","","html-keyboard-response","336","430458","0.0-1.0-456.0-0.0","0","0","89618","","null","","","null","50","","","","","","","","","","","","","","","",""
"","ITI","","html-keyboard-response","337","431466","0.0-1.0-459.0","0","0","89618","","null","","","null","50","","","","","","","","","","","","","","","NaN",""
"","S1","","html-keyboard-response","338","431723","0.0-1.0-461.0","0","0","89618","","null","","","null","51","","","","","","","","","","","","","","","",""
"","ISI","","html-keyboard-response","339","432730","0.0-1.0-462.0","0","0","89618","","null","","","null","51","NaN","","","","","","","","","","","","","","",""
"","S2","","html-keyboard-response","340","432987","0.0-1.0-463.0","0","0","89618","","null","","","null","51","","NaN","","","","","","","","","","","","","",""
"","response","","html-keyboard-response","341","433059","0.0-1.0-464.0-0.0","0","0","89618","","69","","","75","51","","","2","51","training","adjacent","AB","1","2","L.jpg","P.jpg","0","1","0","",""
"","feedback","","html-keyboard-response","342","434063","0.0-1.0-465.0-0.0","0","0","89618","","null","","","null","51","","","","","","","","","","","","","","","",""
"","time_out","","html-keyboard-response","343","436067","0.0-1.0-467.0-0.0","0","0","89618","","null","","","null","51","","","","","","","","","","","","","","","",""
"","ITI","","html-keyboard-response","344","437071","0.0-1.0-468.0","0","0","89618","","null","","","null","51","","","","","","","","","","","","","","","NaN",""
"","S1","","html-keyboard-response","345","437327","0.0-1.0-470.0","0","0","89618","","null","","","null","52","","","","","","","","","","","","","","","",""
"","ISI","","html-keyboard-response","346","438334","0.0-1.0-471.0","0","0","89618","","null","","","null","52","NaN","","","","","","","","","","","","","","",""
"","S2","","html-keyboard-response","347","438589","0.0-1.0-472.0","0","0","89618","","null","","","null","52","","NaN","","","","","","","","","","","","","",""
"","response","","html-keyboard-response","348","438661","0.0-1.0-473.0-0.0","0","0","89618","","69","","","68","52","","","2","52","training","adjacent","CD","3","4","Q.jpg","M.jpg","1","1","1","",""
"","feedback","","html-keyboard-response","349","439669","0.0-1.0-474.0-0.0","0","0","89618","","null","","","null","52","","","","","","","","","","","","","","","",""
"","ITI","","html-keyboard-response","350","440676","0.0-1.0-477.0","0","0","89618","","null","","","null","52","","","","","","","","","","","","","","","NaN",""
"","S1","","html-keyboard-response","351","440931","0.0-1.0-479.0","0","0","89618","","null","","","null","53","","","","","","","","","","","","","","","",""
"","ISI","","html-keyboard-response","352","441938","0.0-1.0-480.0","0","0","89618","","null","","","null","53","NaN","","","","","","","","","","","","","","",""
"","S2","","html-keyboard-response","353","442192","0.0-1.0-481.0","0","0","89618","","250","","","75","53","","k","2","53","training","adjacent","BC","2","3","P.jpg","Q.jpg","0","1","0","",""
"","feedback","","html-keyboard-response","354","443198","0.0-1.0-483.0-0.0","0","0","89618","","null","","","null","53","","","","","","","","","","","","","","","",""
"","time_out","","html-keyboard-response","355","445204","0.0-1.0-485.0-0.0","0","0","89618","","null","","","null","53","","","","","","","","","","","","","","","",""
"","ITI","","html-keyboard-response","356","446211","0.0-1.0-486.0","0","0","89618","","null","","","null","53","","","","","","","","","","","","","","","NaN",""
"","S1","","html-keyboard-response","357","446467","0.0-1.0-488.0","0","0","89618","","null","","","null","54","","","","","","","","","","","","","","","",""
"","ISI","","html-keyboard-response","358","447474","0.0-1.0-489.0","0","0","89618","","null","","","null","54","NaN","","","","","","","","","","","","","","",""
"","S2","","html-keyboard-response","359","447730","0.0-1.0-490.0","0","0","89618","","null","","","null","54","","NaN","","","","","","","","","","","","","",""
"","response","","html-keyboard-response","360","448066","0.0-1.0-491.0-0.0","0","0","89618","","333","","","68","54","","","2","54","training","adjacent","ED","5","4","O.jpg","M.jpg","1","0","0","",""
"","feedback","","html-keyboard-response","361","449073","0.0-1.0-492.0-0.0","0","0","89618","","null","","","null","54","","","","","","","","","","","","","","","",""
"","time_out","","html-keyboard-response","362","451079","0.0-1.0-494.0-0.0","0","0","89618","","null","","","null","54","","","","","","","","","","","","","","","",""
"","ITI","","html-keyboard-response","363","452085","0.0-1.0-495.0","0","0","89618","","null","","","null","54","","","","","","","","","","","","","","","NaN",""
"","S1","","html-keyboard-response","364","452342","0.0-1.0-497.0","0","0","89618","","null","","","null","55","","","","","","","","","","","","","","","",""
"","ISI","","html-keyboard-response","365","453349","0.0-1.0-498.0","0","0","89618","","null","","","null","55","NaN","","","","","","","","","","","","","","",""
"","S2","","html-keyboard-response","366","453607","0.0-1.0-499.0","0","0","89618","","null","","","null","55","","NaN","","","","","","","","","","","","","",""
"","response","","html-keyboard-response","367","453611","0.0-1.0-500.0-0.0","0","0","89618","","1","","","75","55","","","2","55","training","adjacent","BC","2","3","P.jpg","Q.jpg","0","1","0","",""
"","feedback","","html-keyboard-response","368","454617","0.0-1.0-501.0-0.0","0","0","89618","","null","","","null","55","","","","","","","","","","","","","","","",""
"","time_out","","html-keyboard-response","369","456625","0.0-1.0-503.0-0.0","0","0","89618","","null","","","null","55","","","","","","","","","","","","","","","",""
"","ITI","","html-keyboard-response","370","457632","0.0-1.0-504.0","0","0","89618","","null","","","null","55","","","","","","","","","","","","","","","NaN",""
"","S1","","html-keyboard-response","371","457889","0.0-1.0-506.0","0","0","89618","","null","","","null","56","","","","","","","","","","","","","","","",""
"","ISI","","html-keyboard-response","372","458897","0.0-1.0-507.0","0","0","89618","","null","","","null","56","NaN","","","","","","","","","","","","","","",""
"","S2","","html-keyboard-response","373","459154","0.0-1.0-508.0","0","0","89618","","null","","","null","56","","NaN","","","","","","","","","","","","","",""
"","response","","html-keyboard-response","374","459194","0.0-1.0-509.0-0.0","0","0","89618","","37","","","68","56","","","2","56","training","adjacent","CB","3","2","Q.jpg","P.jpg","1","0","0","",""
"","feedback","","html-keyboard-response","375","460202","0.0-1.0-510.0-0.0","0","0","89618","","null","","","null","56","","","","","","","","","","","","","","","",""
"","time_out","","html-keyboard-response","376","462208","0.0-1.0-512.0-0.0","0","0","89618","","null","","","null","56","","","","","","","","","","","","","","","",""
"","ITI","","html-keyboard-response","377","463215","0.0-1.0-513.0","0","0","89618","","null","","","null","56","","","","","","","","","","","","","","","NaN",""
"","S1","","html-keyboard-response","378","463473","0.0-1.0-515.0","0","0","89618","","null","","","null","57","","","","","","","","","","","","","","","",""
"","ISI","","html-keyboard-response","379","464480","0.0-1.0-516.0","0","0","89618","","null","","","null","57","NaN","","","","","","","","","","","","","","",""
"","S2","","html-keyboard-response","380","464736","0.0-1.0-517.0","0","0","89618","","null","","","null","57","","NaN","","","","","","","","","","","","","",""
"","response","","html-keyboard-response","381","464819","0.0-1.0-518.0-0.0","0","0","89618","","81","","","75","57","","","2","57","training","adjacent","BA","2","1","P.jpg","L.jpg","0","0","1","",""
"","feedback","","html-keyboard-response","382","465828","0.0-1.0-519.0-0.0","0","0","89618","","null","","","null","57","","","","","","","","","","","","","","","",""
"","ITI","","html-keyboard-response","383","466835","0.0-1.0-522.0","0","0","89618","","null","","","null","57","","","","","","","","","","","","","","","NaN",""
"","S1","","html-keyboard-response","384","467093","0.0-1.0-524.0","0","0","89618","","null","","","null","58","","","","","","","","","","","","","","","",""
"","ISI","","html-keyboard-response","385","468100","0.0-1.0-525.0","0","0","89618","","null","","","null","58","NaN","","","","","","","","","","","","","","",""
"","S2","","html-keyboard-response","386","468359","0.0-1.0-526.0","0","0","89618","","null","","","null","58","","NaN","","","","","","","","","","","","","",""
"","response","","html-keyboard-response","387","468609","0.0-1.0-527.0-0.0","0","0","89618","","246","","","68","58","","","2","58","training","adjacent","EF","5","6","O.jpg","N.jpg","1","1","1","",""
"","feedback","","html-keyboard-response","388","469615","0.0-1.0-528.0-0.0","0","0","89618","","null","","","null","58","","","","","","","","","","","","","","","",""
"","ITI","","html-keyboard-response","389","470622","0.0-1.0-531.0","0","0","89618","","null","","","null","58","","","","","","","","","","","","","","","NaN",""
"","S1","","html-keyboard-response","390","470877","0.0-1.0-533.0","0","0","89618","","null","","","null","59","","","","","","","","","","","","","","","",""
"","ISI","","html-keyboard-response","391","471885","0.0-1.0-534.0","0","0","89618","","null","","","null","59","NaN","","","","","","","","","","","","","","",""
"","S2","","html-keyboard-response","392","472140","0.0-1.0-535.0","0","0","89618","","null","","","null","59","","NaN","","","","","","","","","","","","","",""
"","response","","html-keyboard-response","393","472338","0.0-1.0-536.0-0.0","0","0","89618","","195","","","68","59","","","2","59","training","adjacent","FE","6","5","N.jpg","O.jpg","1","0","0","",""
"","feedback","","html-keyboard-response","394","473345","0.0-1.0-537.0-0.0","0","0","89618","","null","","","null","59","","","","","","","","","","","","","","","",""
"","time_out","","html-keyboard-response","395","475352","0.0-1.0-539.0-0.0","0","0","89618","","null","","","null","59","","","","","","","","","","","","","","","",""
"","ITI","","html-keyboard-response","396","476361","0.0-1.0-540.0","0","0","89618","","null","","","null","59","","","","","","","","","","","","","","","NaN",""
"","S1","","html-keyboard-response","397","476617","0.0-1.0-542.0","0","0","89618","","null","","","null","60","","","","","","","","","","","","","","","",""
"","ISI","","html-keyboard-response","398","477624","0.0-1.0-543.0","0","0","89618","","null","","","null","60","NaN","","","","","","","","","","","","","","",""
"","S2","","html-keyboard-response","399","477879","0.0-1.0-544.0","0","0","89618","","null","","","null","60","","NaN","","","","","","","","","","","","","",""
"","response","","html-keyboard-response","400","477959","0.0-1.0-545.0-0.0","0","0","89618","","77","","","75","60","","","2","60","training","adjacent","EF","5","6","O.jpg","N.jpg","0","1","0","",""
"","feedback","","html-keyboard-response","401","478967","0.0-1.0-546.0-0.0","0","0","89618","","null","","","null","60","","","","","","","","","","","","","","","",""
"","time_out","","html-keyboard-response","402","480973","0.0-1.0-548.0-0.0","0","0","89618","","null","","","null","60","","","","","","","","","","","","","","","",""
"","ITI","","html-keyboard-response","403","481980","0.0-1.0-549.0","0","0","89618","","null","","","null","60","","","","","","","","","","","","","","","NaN",""
"","S1","","html-keyboard-response","404","482236","0.0-1.0-551.0","0","0","89618","","null","","","null","61","","","","","","","","","","","","","","","",""
"","ISI","","html-keyboard-response","405","483243","0.0-1.0-552.0","0","0","89618","","null","","","null","61","NaN","","","","","","","","","","","","","","",""
"","S2","","html-keyboard-response","406","483498","0.0-1.0-553.0","0","0","89618","","null","","","null","61","","NaN","","","","","","","","","","","","","",""
"","response","","html-keyboard-response","407","483506","0.0-1.0-554.0-0.0","0","0","89618","","4","","","68","61","","","2","61","training","adjacent","FG","6","7","N.jpg","R.jpg","1","1","1","",""
"","feedback","","html-keyboard-response","408","484514","0.0-1.0-555.0-0.0","0","0","89618","","null","","","null","61","","","","","","","","","","","","","","","",""
"","ITI","","html-keyboard-response","409","485522","0.0-1.0-558.0","0","0","89618","","null","","","null","61","","","","","","","","","","","","","","","NaN",""
"","S1","","html-keyboard-response","410","485777","0.0-1.0-560.0","0","0","89618","","null","","","null","62","","","","","","","","","","","","","","","",""
"","ISI","","html-keyboard-response","411","486784","0.0-1.0-561.0","0","0","89618","","null","","","null","62","NaN","","","","","","","","","","","","","","",""
"","S2","","html-keyboard-response","412","487039","0.0-1.0-562.0","0","0","89618","","null","","","null","62","","NaN","","","","","","","","","","","","","",""
"","response","","html-keyboard-response","413","487080","0.0-1.0-563.0-0.0","0","0","89618","","38","","","75","62","","","2","62","training","adjacent","DC","4","3","M.jpg","Q.jpg","0","0","1","",""
"","feedback","","html-keyboard-response","414","488087","0.0-1.0-564.0-0.0","0","0","89618","","null","","","null","62","","","","","","","","","","","","","","","",""
"","ITI","","html-keyboard-response","415","489095","0.0-1.0-567.0","0","0","89618","","null","","","null","62","","","","","","","","","","","","","","","NaN",""
"","S1","","html-keyboard-response","416","489352","0.0-1.0-569.0","0","0","89618","","null","","","null","63","","","","","","","","","","","","","","","",""
"","ISI","","html-keyboard-response","417","490358","0.0-1.0-570.0","0","0","89618","","null","","","null","63","NaN","","","","","","","","","","","","","","",""
"","S2","","html-keyboard-response","418","490615","0.0-1.0-571.0","0","0","89618","","null","","","null","63","","NaN","","","","","","","","","","","","","",""
"","response","","html-keyboard-response","419","490850","0.0-1.0-572.0-0.0","0","0","89618","","232","","","75","63","","","2","63","training","adjacent","DE","4","5","M.jpg","O.jpg","0","1","0","",""
"","feedback","","html-keyboard-response","420","491859","0.0-1.0-573.0-0.0","0","0","89618","","null","","","null","63","","","","","","","","","","","","","","","",""
"","time_out","","html-keyboard-response","421","493867","0.0-1.0-575.0-0.0","0","0","89618","","null","","","null","63","","","","","","","","","","","","","","","",""
"","ITI","","html-keyboard-response","422","494874","0.0-1.0-576.0","0","0","89618","","null","","","null","63","","","","","","","","","","","","","","","NaN",""
"","S1","","html-keyboard-response","423","495132","0.0-1.0-578.0","0","0","89618","","null","","","null","64","","","","","","","","","","","","","","","",""
"","ISI","","html-keyboard-response","424","496139","0.0-1.0-579.0","0","0","89618","","255","","","68","64","d","","","","","","","","","","","","","","",""
"","S2","","html-keyboard-response","425","496398","0.0-1.0-580.0","0","0","89618","","null","","","null","64","","NaN","","","","","","","","","","","","","",""
"","response","","html-keyboard-response","426","497242","0.0-1.0-581.0-0.0","0","0","89618","","841","","","68","64","","","2","64","training","adjacent","GF","7","6","R.jpg","N.jpg","1","0","0","",""
"","feedback","","html-keyboard-response","427","498250","0.0-1.0-582.0-0.0","0","0","89618","","null","","","null","64","","","","","","","","","","","","","","","",""
"","time_out","","html-keyboard-response","428","500255","0.0-1.0-584.0-0.0","0","0","89618","","null","","","null","64","","","","","","","","","","","","","","","",""
"","ITI","","html-keyboard-response","429","501262","0.0-1.0-585.0","0","0","89618","","null","","","null","64","","","","","","","","","","","","","","","NaN",""
"","S1","","html-keyboard-response","430","501518","0.0-1.0-587.0","0","0","89618","","null","","","null","65","","","","","","","","","","","","","","","",""
"","ISI","","html-keyboard-response","431","502525","0.0-1.0-588.0","0","0","89618","","null","","","null","65","NaN","","","","","","","","","","","","","","",""
"","S2","","html-keyboard-response","432","502781","0.0-1.0-589.0","0","0","89618","","null","","","null","65","","NaN","","","","","","","","","","","","","",""
"","response","","html-keyboard-response","433","502859","0.0-1.0-590.0-0.0","0","0","89618","","75","","","75","65","","","2","65","training","adjacent","CD","3","4","Q.jpg","M.jpg","0","1","0","",""
"","feedback","","html-keyboard-response","434","503866","0.0-1.0-591.0-0.0","0","0","89618","","null","","","null","65","","","","","","","","","","","","","","","",""
"","time_out","","html-keyboard-response","435","505872","0.0-1.0-593.0-0.0","0","0","89618","","null","","","null","65","","","","","","","","","","","","","","","",""
"","ITI","","html-keyboard-response","436","506879","0.0-1.0-594.0","0","0","89618","","null","","","null","65","","","","","","","","","","","","","","","NaN",""
"","S1","","html-keyboard-response","437","507134","0.0-1.0-596.0","0","0","89618","","null","","","null","66","","","","","","","","","","","","","","","",""
"","ISI","","html-keyboard-response","438","508141","0.0-1.0-597.0","0","0","89618","","null","","","null","66","NaN","","","","","","","","","","","","","","",""
"","S2","","html-keyboard-response","439","508396","0.0-1.0-598.0","0","0","89618","","null","","","null","66","","NaN","","","","","","","","","","","","","",""
"","response","","html-keyboard-response","440","508481","0.0-1.0-599.0-0.0","0","0","89618","","82","","","75","66","","","2","66","training","adjacent","FE","6","5","N.jpg","O.jpg","0","0","1","",""
"","feedback","","html-keyboard-response","441","509488","0.0-1.0-600.0-0.0","0","0","89618","","null","","","null","66","","","","","","","","","","","","","","","",""
"","ITI","","html-keyboard-response","442","510495","0.0-1.0-603.0","0","0","89618","","null","","","null","66","","","","","","","","","","","","","","","NaN",""
"","S1","","html-keyboard-response","443","510751","0.0-1.0-605.0","0","0","89618","","null","","","null","67","","","","","","","","","","","","","","","",""
"","ISI","","html-keyboard-response","444","511758","0.0-1.0-606.0","0","0","89618","","null","","","null","67","NaN","","","","","","","","","","","","","","",""
"","S2","","html-keyboard-response","445","512014","0.0-1.0-607.0","0","0","89618","","null","","","null","67","","NaN","","","","","","","","","","","","","",""
"","response","","html-keyboard-response","446","512034","0.0-1.0-608.0-0.0","0","0","89618","","17","","","68","67","","","2","67","training","adjacent","AB","1","2","L.jpg","P.jpg","1","1","1","",""
"","feedback","","html-keyboard-response","447","513041","0.0-1.0-609.0-0.0","0","0","89618","","null","","","null","67","","","","","","","","","","","","","","","",""
"","ITI","","html-keyboard-response","448","514048","0.0-1.0-612.0","0","0","89618","","null","","","null","67","","","","","","","","","","","","","","","NaN",""
"","S1","","html-keyboard-response","449","514304","0.0-1.0-614.0","0","0","89618","","null","","","null","68","","","","","","","","","","","","","","","",""
"","ISI","","html-keyboard-response","450","515311","0.0-1.0-615.0","0","0","89618","","null","","","null","68","NaN","","","","","","","","","","","","","","",""
"","S2","","html-keyboard-response","451","515559","0.0-1.0-616.0","0","0","89618","","245","","","75","68","","k","2","68","training","adjacent","DC","4","3","M.jpg","Q.jpg","0","0","1","",""
"","feedback","","html-keyboard-response","452","516568","0.0-1.0-618.0-0.0","0","0","89618","","null","","","null","68","","","","","","","","","","","","","","","",""
"","ITI","","html-keyboard-response","453","517575","0.0-1.0-621.0","0","0","89618","","null","","","null","68","","","","","","","","","","","","","","","NaN",""
"","S1","","html-keyboard-response","454","517831","0.0-1.0-623.0","0","0","89618","","null","","","null","69","","","","","","","","","","","","","","","",""
"","ISI","","html-keyboard-response","455","518838","0.0-1.0-624.0","0","0","89618","","null","","","null","69","NaN","","","","","","","","","","","","","","",""
"","S2","","html-keyboard-response","456","519093","0.0-1.0-625.0","0","0","89618","","null","","","null","69","","NaN","","","","","","","","","","","","","",""
"","response","","html-keyboard-response","457","519183","0.0-1.0-626.0-0.0","0","0","89618","","87","","","68","69","","","2","69","training","adjacent","AB","1","2","L.jpg","P.jpg","1","1","1","",""
"","feedback","","html-keyboard-response","458","520190","0.0-1.0-627.0-0.0","0","0","89618","","null","","","null","69","","","","","","","","","","","","","","","",""
"","ITI","","html-keyboard-response","459","521198","0.0-1.0-630.0","0","0","89618","","null","","","null","69","","","","","","","","","","","","","","","NaN",""
"","S1","","html-keyboard-response","460","521453","0.0-1.0-632.0","0","0","89618","","null","","","null","70","","","","","","","","","","","","","","","",""
"","ISI","","html-keyboard-response","461","522460","0.0-1.0-633.0","0","0","89618","","null","","","null","70","NaN","","","","","","","","","","","","","","",""
"","S2","","html-keyboard-response","462","522718","0.0-1.0-634.0","0","0","89618","","null","","","null","70","","NaN","","","","","","","","","","","","","",""
"","response","","html-keyboard-response","463","522751","0.0-1.0-635.0-0.0","0","0","89618","","30","","","75","70","","","2","70","training","adjacent","DC","4","3","M.jpg","Q.jpg","0","0","1","",""
"","feedback","","html-keyboard-response","464","523759","0.0-1.0-636.0-0.0","0","0","89618","","null","","","null","70","","","","","","","","","","","","","","","",""
"","ITI","","html-keyboard-response","465","524765","0.0-1.0-639.0","0","0","89618","","null","","","null","70","","","","","","","","","","","","","","","NaN",""
"","S1","","html-keyboard-response","466","525020","0.0-1.0-641.0","0","0","89618","","null","","","null","71","","","","","","","","","","","","","","","",""
"","ISI","","html-keyboard-response","467","526025","0.0-1.0-642.0","0","0","89618","","null","","","null","71","NaN","","","","","","","","","","","","","","",""
"","S2","","html-keyboard-response","468","526280","0.0-1.0-643.0","0","0","89618","","null","","","null","71","","NaN","","","","","","","","","","","","","",""
"","response","","html-keyboard-response","469","526320","0.0-1.0-644.0-0.0","0","0","89618","","37","","","68","71","","","2","71","training","adjacent","FE","6","5","N.jpg","O.jpg","1","0","0","",""
"","feedback","","html-keyboard-response","470","527328","0.0-1.0-645.0-0.0","0","0","89618","","null","","","null","71","","","","","","","","","","","","","","","",""
"","time_out","","html-keyboard-response","471","529337","0.0-1.0-647.0-0.0","0","0","89618","","null","","","null","71","","","","","","","","","","","","","","","",""
"","ITI","","html-keyboard-response","472","530344","0.0-1.0-648.0","0","0","89618","","null","","","null","71","","","","","","","","","","","","","","","NaN",""
"","S1","","html-keyboard-response","473","530600","0.0-1.0-650.0","0","0","89618","","null","","","null","72","","","","","","","","","","","","","","","",""
"","ISI","","html-keyboard-response","474","531607","0.0-1.0-651.0","0","0","89618","","286","","","75","72","k","","","","","","","","","","","","","","",""
"","S2","","html-keyboard-response","475","531865","0.0-1.0-652.0","0","0","89618","","null","","","null","72","","NaN","","","","","","","","","","","","","",""
"","response","","html-keyboard-response","476","532464","0.0-1.0-653.0-0.0","0","0","89618","","596","","","75","72","","","2","72","training","adjacent","BA","2","1","P.jpg","L.jpg","0","0","1","",""
"","feedback","","html-keyboard-response","477","533469","0.0-1.0-654.0-0.0","0","0","89618","","null","","","null","72","","","","","","","","","","","","","","","",""
"","ITI","","html-keyboard-response","478","534477","0.0-1.0-657.0","0","0","89618","","null","","","null","72","","","","","","","","","","","","","","","NaN",""
"","S1","","html-keyboard-response","479","534735","0.0-1.0-659.0","0","0","89618","","null","","","null","73","","","","","","","","","","","","","","","",""
"","ISI","","html-keyboard-response","480","535743","0.0-1.0-660.0","0","0","89618","","null","","","null","73","NaN","","","","","","","","","","","","","","",""
"","S2","","html-keyboard-response","481","536001","0.0-1.0-661.0","0","0","89618","","null","","","null","73","","NaN","","","","","","","","","","","","","",""
"","response","","html-keyboard-response","482","536094","0.0-1.0-662.0-0.0","0","0","89618","","91","","","68","73","","","2","73","training","adjacent","CD","3","4","Q.jpg","M.jpg","1","1","1","",""
"","feedback","","html-keyboard-response","483","537101","0.0-1.0-663.0-0.0","0","0","89618","","null","","","null","73","","","","","","","","","","","","","","","",""
"","ITI","","html-keyboard-response","484","538108","0.0-1.0-666.0","0","0","89618","","null","","","null","73","","","","","","","","","","","","","","","NaN",""
"","S1","","html-keyboard-response","485","538364","0.0-1.0-668.0","0","0","89618","","null","","","null","74","","","","","","","","","","","","","","","",""
"","ISI","","html-keyboard-response","486","539371","0.0-1.0-669.0","0","0","89618","","null","","","null","74","NaN","","","","","","","","","","","","","","",""
"","S2","","html-keyboard-response","487","539629","0.0-1.0-670.0","0","0","89618","","null","","","null","74","","NaN","","","","","","","","","","","","","",""
"","response","","html-keyboard-response","488","539719","0.0-1.0-671.0-0.0","0","0","89618","","87","","","75","74","","","2","74","training","adjacent","ED","5","4","O.jpg","M.jpg","0","0","1","",""
"","feedback","","html-keyboard-response","489","540727","0.0-1.0-672.0-0.0","0","0","89618","","null","","","null","74","","","","","","","","","","","","","","","",""
"","ITI","","html-keyboard-response","490","541733","0.0-1.0-675.0","0","0","89618","","null","","","null","74","","","","","","","","","","","","","","","NaN",""
"","S1","","html-keyboard-response","491","541989","0.0-1.0-677.0","0","0","89618","","null","","","null","75","","","","","","","","","","","","","","","",""
"","ISI","","html-keyboard-response","492","542996","0.0-1.0-678.0","0","0","89618","","null","","","null","75","NaN","","","","","","","","","","","","","","",""
"","S2","","html-keyboard-response","493","543248","0.0-1.0-679.0","0","0","89618","","249","","","68","75","","d","2","75","training","adjacent","DE","4","5","M.jpg","O.jpg","1","1","1","",""
"","feedback","","html-keyboard-response","494","544256","0.0-1.0-681.0-0.0","0","0","89618","","null","","","null","75","","","","","","","","","","","","","","","",""
"","ITI","","html-keyboard-response","495","545263","0.0-1.0-684.0","0","0","89618","","null","","","null","75","","","","","","","","","","","","","","","NaN",""
"","S1","","html-keyboard-response","496","545518","0.0-1.0-686.0","0","0","89618","","null","","","null","76","","","","","","","","","","","","","","","",""
"","ISI","","html-keyboard-response","497","546525","0.0-1.0-687.0","0","0","89618","","null","","","null","76","NaN","","","","","","","","","","","","","","",""
"","S2","","html-keyboard-response","498","546612","0.0-1.0-688.0","0","0","89618","","84","","","75","76","","k","2","76","training","adjacent","DE","4","5","M.jpg","O.jpg","0","1","0","",""
"","feedback","","html-keyboard-response","499","547621","0.0-1.0-690.0-0.0","0","0","89618","","null","","","null","76","","","","","","","","","","","","","","","",""
"","time_out","","html-keyboard-response","500","549629","0.0-1.0-692.0-0.0","0","0","89618","","null","","","null","76","","","","","","","","","","","","","","","",""
"","ITI","","html-keyboard-response","501","550638","0.0-1.0-693.0","0","0","89618","","null","","","null","76","","","","","","","","","","","","","","","NaN",""
"","S1","","html-keyboard-response","502","550894","0.0-1.0-695.0","0","0","89618","","null","","","null","77","","","","","","","","","","","","","","","",""
"","ISI","","html-keyboard-response","503","551902","0.0-1.0-696.0","0","0","89618","","null","","","null","77","NaN","","","","","","","","","","","","","","",""
"","S2","","html-keyboard-response","504","552160","0.0-1.0-697.0","0","0","89618","","null","","","null","77","","NaN","","","","","","","","","","","","","",""
"","response","","html-keyboard-response","505","552361","0.0-1.0-698.0-0.0","0","0","89618","","198","","","68","77","","","2","77","training","adjacent","CB","3","2","Q.jpg","P.jpg","1","0","0","",""
"","feedback","","html-keyboard-response","506","553370","0.0-1.0-699.0-0.0","0","0","89618","","null","","","null","77","","","","","","","","","","","","","","","",""
"","time_out","","html-keyboard-response","507","555376","0.0-1.0-701.0-0.0","0","0","89618","","null","","","null","77","","","","","","","","","","","","","","","",""
"","ITI","","html-keyboard-response","508","556383","0.0-1.0-702.0","0","0","89618","","null","","","null","77","","","","","","","","","","","","","","","NaN",""
"","S1","","html-keyboard-response","509","556639","0.0-1.0-704.0","0","0","89618","","null","","","null","78","","","","","","","","","","","","","","","",""
"","ISI","","html-keyboard-response","510","557646","0.0-1.0-705.0","0","0","89618","","null","","","null","78","NaN","","","","","","","","","","","","","","",""
"","S2","","html-keyboard-response","511","557898","0.0-1.0-706.0","0","0","89618","","249","","","75","78","","k","2","78","training","adjacent","GF","7","6","R.jpg","N.jpg","0","0","1","",""
"","feedback","","html-keyboard-response","512","558905","0.0-1.0-708.0-0.0","0","0","89618","","null","","","null","78","","","","","","","","","","","","","","","",""
"","ITI","","html-keyboard-response","513","559913","0.0-1.0-711.0","0","0","89618","","null","","","null","78","","","","","","","","","","","","","","","NaN",""
"","S1","","html-keyboard-response","514","560170","0.0-1.0-713.0","0","0","89618","","null","","","null","79","","","","","","","","","","","","","","","",""
"","ISI","","html-keyboard-response","515","561176","0.0-1.0-714.0","0","0","89618","","null","","","null","79","NaN","","","","","","","","","","","","","","",""
"","S2","","html-keyboard-response","516","561434","0.0-1.0-715.0","0","0","89618","","null","","","null","79","","NaN","","","","","","","","","","","","","",""
"","response","","html-keyboard-response","517","561844","0.0-1.0-716.0-0.0","0","0","89618","","407","","","68","79","","","2","79","training","adjacent","GF","7","6","R.jpg","N.jpg","1","0","0","",""
"","feedback","","html-keyboard-response","518","562850","0.0-1.0-717.0-0.0","0","0","89618","","null","","","null","79","","","","","","","","","","","","","","","",""
"","time_out","","html-keyboard-response","519","564856","0.0-1.0-719.0-0.0","0","0","89618","","null","","","null","79","","","","","","","","","","","","","","","",""
"","ITI","","html-keyboard-response","520","565864","0.0-1.0-720.0","0","0","89618","","null","","","null","79","","","","","","","","","","","","","","","NaN",""
"","S1","","html-keyboard-response","521","566122","0.0-1.0-722.0","0","0","89618","","null","","","null","80","","","","","","","","","","","","","","","",""
"","ISI","","html-keyboard-response","522","567129","0.0-1.0-723.0","0","0","89618","","null","","","null","80","NaN","","","","","","","","","","","","","","",""
"","S2","","html-keyboard-response","523","567378","0.0-1.0-724.0","0","0","89618","","246","","","75","80","","k","2","80","training","adjacent","BA","2","1","P.jpg","L.jpg","0","0","1","",""
"","feedback","","html-keyboard-response","524","568387","0.0-1.0-726.0-0.0","0","0","89618","","null","","","null","80","","","","","","","","","","","","","","","",""
"","ITI","","html-keyboard-response","525","569395","0.0-1.0-729.0","0","0","89618","","null","","","null","80","","","","","","","","","","","","","","","NaN",""
"","S1","","html-keyboard-response","526","569653","0.0-1.0-731.0","0","0","89618","","null","","","null","81","","","","","","","","","","","","","","","",""
"","ISI","","html-keyboard-response","527","570660","0.0-1.0-732.0","0","0","89618","","null","","","null","81","NaN","","","","","","","","","","","","","","",""
"","S2","","html-keyboard-response","528","570916","0.0-1.0-733.0","0","0","89618","","null","","","null","81","","NaN","","","","","","","","","","","","","",""
"","response","","html-keyboard-response","529","571499","0.0-1.0-734.0-0.0","0","0","89618","","580","","","68","81","","","2","81","training","adjacent","BC","2","3","P.jpg","Q.jpg","1","1","1","",""
"","feedback","","html-keyboard-response","530","572507","0.0-1.0-735.0-0.0","0","0","89618","","null","","","null","81","","","","","","","","","","","","","","","",""
"","ITI","","html-keyboard-response","531","573514","0.0-1.0-738.0","0","0","89618","","null","","","null","81","","","","","","","","","","","","","","","NaN",""
"","S1","","html-keyboard-response","532","573769","0.0-1.0-740.0","0","0","89618","","null","","","null","82","","","","","","","","","","","","","","","",""
"","ISI","","html-keyboard-response","533","574774","0.0-1.0-741.0","0","0","89618","","null","","","null","82","NaN","","","","","","","","","","","","","","",""
"","S2","","html-keyboard-response","534","575031","0.0-1.0-742.0","0","0","89618","","null","","","null","82","","NaN","","","","","","","","","","","","","",""
"","response","","html-keyboard-response","535","575156","0.0-1.0-743.0-0.0","0","0","89618","","122","","","75","82","","","2","82","training","adjacent","CB","3","2","Q.jpg","P.jpg","0","0","1","",""
"","feedback","","html-keyboard-response","536","576165","0.0-1.0-744.0-0.0","0","0","89618","","null","","","null","82","","","","","","","","","","","","","","","",""
"","ITI","","html-keyboard-response","537","577172","0.0-1.0-747.0","0","0","89618","","null","","","null","82","","","","","","","","","","","","","","","NaN",""
"","S1","","html-keyboard-response","538","577427","0.0-1.0-749.0","0","0","89618","","null","","","null","83","","","","","","","","","","","","","","","",""
"","ISI","","html-keyboard-response","539","578435","0.0-1.0-750.0","0","0","89618","","null","","","null","83","NaN","","","","","","","","","","","","","","",""
"","S2","","html-keyboard-response","540","578693","0.0-1.0-751.0","0","0","89618","","null","","","null","83","","NaN","","","","","","","","","","","","","",""
"","response","","html-keyboard-response","541","578951","0.0-1.0-752.0-0.0","0","0","89618","","255","","","68","83","","","2","83","training","adjacent","ED","5","4","O.jpg","M.jpg","1","0","0","",""
"","feedback","","html-keyboard-response","542","579958","0.0-1.0-753.0-0.0","0","0","89618","","null","","","null","83","","","","","","","","","","","","","","","",""
"","time_out","","html-keyboard-response","543","581967","0.0-1.0-755.0-0.0","0","0","89618","","null","","","null","83","","","","","","","","","","","","","","","",""
"","ITI","","html-keyboard-response","544","582974","0.0-1.0-756.0","0","0","89618","","null","","","null","83","","","","","","","","","","","","","","","NaN",""
"","S1","","html-keyboard-response","545","583230","0.0-1.0-758.0","0","0","89618","","null","","","null","84","","","","","","","","","","","","","","","",""
"","ISI","","html-keyboard-response","546","584237","0.0-1.0-759.0","0","0","89618","","16","","","75","84","k","","","","","","","","","","","","","","",""
"","S2","","html-keyboard-response","547","584492","0.0-1.0-760.0","0","0","89618","","null","","","null","84","","NaN","","","","","","","","","","","","","",""
"","response","","html-keyboard-response","548","585910","0.0-1.0-761.0-0.0","0","0","89618","","1415","","","68","84","","","2","84","training","adjacent","EF","5","6","O.jpg","N.jpg","1","1","1","",""
"","feedback","","html-keyboard-response","549","586916","0.0-1.0-762.0-0.0","0","0","89618","","null","","","null","84","","","","","","","","","","","","","","","",""
"","ITI","","html-keyboard-response","550","587923","0.0-1.0-765.0","0","0","89618","","null","","","null","84","","","","","","","","","","","","","","","NaN",""
"","S1","","html-keyboard-response","551","588179","0.0-1.0-767.0","0","0","89618","","null","","","null","85","","","","","","","","","","","","","","","",""
"","ISI","","html-keyboard-response","552","589186","0.0-1.0-768.0","0","0","89618","","null","","","null","85","NaN","","","","","","","","","","","","","","",""
"","S2","","html-keyboard-response","553","589444","0.0-1.0-769.0","0","0","89618","","null","","","null","85","","NaN","","","","","","","","","","","","","",""
"","response","","html-keyboard-response","554","589610","0.0-1.0-770.0-0.0","0","0","89618","","163","","","75","85","","","2","85","training","adjacent","ED","5","4","O.jpg","M.jpg","0","0","1","",""
"","feedback","","html-keyboard-response","555","590617","0.0-1.0-771.0-0.0","0","0","89618","","null","","","null","85","","","","","","","","","","","","","","","",""
"","ITI","","html-keyboard-response","556","591624","0.0-1.0-774.0","0","0","89618","","null","","","null","85","","","","","","","","","","","","","","","NaN",""
"","S1","","html-keyboard-response","557","591881","0.0-1.0-776.0","0","0","89618","","null","","","null","86","","","","","","","","","","","","","","","",""
"","ISI","","html-keyboard-response","558","592887","0.0-1.0-777.0","0","0","89618","","null","","","null","86","NaN","","","","","","","","","","","","","","",""
"","S2","","html-keyboard-response","559","593144","0.0-1.0-778.0","0","0","89618","","null","","","null","86","","NaN","","","","","","","","","","","","","",""
"","response","","html-keyboard-response","560","593415","0.0-1.0-779.0-0.0","0","0","89618","","268","","","68","86","","","2","86","training","adjacent","CB","3","2","Q.jpg","P.jpg","1","0","0","",""
"","feedback","","html-keyboard-response","561","594422","0.0-1.0-780.0-0.0","0","0","89618","","null","","","null","86","","","","","","","","","","","","","","","",""
"","time_out","","html-keyboard-response","562","596431","0.0-1.0-782.0-0.0","0","0","89618","","null","","","null","86","","","","","","","","","","","","","","","",""
"","ITI","","html-keyboard-response","563","597438","0.0-1.0-783.0","0","0","89618","","null","","","null","86","","","","","","","","","","","","","","","NaN",""
"","S1","","html-keyboard-response","564","597694","0.0-1.0-785.0","0","0","89618","","null","","","null","87","","","","","","","","","","","","","","","",""
"","ISI","","html-keyboard-response","565","598696","0.0-1.0-786.0","0","0","89618","","9","","","75","87","k","","","","","","","","","","","","","","",""
"","S2","","html-keyboard-response","566","598953","0.0-1.0-787.0","0","0","89618","","null","","","null","87","","NaN","","","","","","","","","","","","","",""
"","response","","html-keyboard-response","567","599694","0.0-1.0-788.0-0.0","0","0","89618","","738","","","75","87","","","2","87","training","adjacent","CD","3","4","Q.jpg","M.jpg","0","1","0","",""
"","feedback","","html-keyboard-response","568","600700","0.0-1.0-789.0-0.0","0","0","89618","","null","","","null","87","","","","","","","","","","","","","","","",""
"","time_out","","html-keyboard-response","569","602709","0.0-1.0-791.0-0.0","0","0","89618","","null","","","null","87","","","","","","","","","","","","","","","",""
"","ITI","","html-keyboard-response","570","603716","0.0-1.0-792.0","0","0","89618","","null","","","null","87","","","","","","","","","","","","","","","NaN",""
"","S1","","html-keyboard-response","571","603974","0.0-1.0-794.0","0","0","89618","","null","","","null","88","","","","","","","","","","","","","","","",""
"","ISI","","html-keyboard-response","572","604982","0.0-1.0-795.0","0","0","89618","","null","","","null","88","NaN","","","","","","","","","","","","","","",""
"","S2","","html-keyboard-response","573","605240","0.0-1.0-796.0","0","0","89618","","null","","","null","88","","NaN","","","","","","","","","","","","","",""
"","response","","html-keyboard-response","574","605348","0.0-1.0-797.0-0.0","0","0","89618","","105","","","68","88","","","2","88","training","adjacent","FG","6","7","N.jpg","R.jpg","1","1","1","",""
"","feedback","","html-keyboard-response","575","606355","0.0-1.0-798.0-0.0","0","0","89618","","null","","","null","88","","","","","","","","","","","","","","","",""
"","ITI","","html-keyboard-response","576","607362","0.0-1.0-801.0","0","0","89618","","null","","","null","88","","","","","","","","","","","","","","","NaN",""
"","S1","","html-keyboard-response","577","607620","0.0-1.0-803.0","0","0","89618","","null","","","null","89","","","","","","","","","","","","","","","",""
"","ISI","","html-keyboard-response","578","608628","0.0-1.0-804.0","0","0","89618","","null","","","null","89","NaN","","","","","","","","","","","","","","",""
"","S2","","html-keyboard-response","579","608886","0.0-1.0-805.0","0","0","89618","","null","","","null","89","","NaN","","","","","","","","","","","","","",""
"","response","","html-keyboard-response","580","608957","0.0-1.0-806.0-0.0","0","0","89618","","68","","","75","89","","","2","89","training","adjacent","DC","4","3","M.jpg","Q.jpg","0","0","1","",""
"","feedback","","html-keyboard-response","581","609966","0.0-1.0-807.0-0.0","0","0","89618","","null","","","null","89","","","","","","","","","","","","","","","",""
