"success","ttype","start_time","trial_type","trial_index","time_elapsed","internal_node_id","warning","missed_checkup","PID","view_history","rt","responses","repeat_instructions","key_press","index","keypress_isi","keypress_S2","block","trial_num","phase","group_type","pair_type","S1_stim","S2_stim","S1_img","S2_img","S1_chosen","S1_higher","accuracy","keypress_iti","total_bonus_tally"
"true","full_screen","d08032022hr1921","fullscreen","0","2312","0.0-0.0","0","0","90103","","","","","","","","","","","","","","","","","","","","","",""
"","instructions","","instructions","1","4147","0.0-1.0-0.0-0.0","0","0","90103","[{""page_index"":0,""viewing_time"":1368},{""page_index"":1,""viewing_time"":150},{""page_index"":2,""viewing_time"":158},{""page_index"":3,""viewing_time"":158}]","1834","","","","","","","","","","","","","","","","","","","",""
"","comprehension_check","","survey-multi-choice","2","11401","0.0-1.0-0.0-1.0","0","0","90103","","7250","{""Q0"":""True"",""Q1"":""K"",""Q2"":""Once the second image appears and while the screen 'MAKE A CHOICE' is shown"",""Q3"":""Green mark"",""Q4"":""either D or K""}","0","","","","","","","","","","","","","","","","","",""
"","start_exp","","html-keyboard-response","3","12155","0.0-1.0-1.0","0","0","90103","","751","","","32","","","","","","","","","","","","","","","","",""
"","S1","","html-keyboard-response","4","12413","0.0-1.0-2.0","0","0","90103","","null","","","null","0","","","","","","","","","","","","","","","",""
"","ISI","","html-keyboard-response","5","12519","0.0-1.0-3.0","0","0","90103","","null","","","null","0","NaN","","","","","","","","","","","","","","",""
"","S2","","html-keyboard-response","6","12775","0.0-1.0-4.0","0","0","90103","","null","","","null","0","","NaN","","","","","","","","","","","","","",""
"","response","","html-keyboard-response","7","13059","0.0-1.0-5.0-0.0","0","0","90103","","282","","","75","0","","","1","0","training","adjacent","DE","4","5","N.jpg","Q.jpg","1","1","1","",""
"","feedback","","html-keyboard-response","8","13161","0.0-1.0-6.0-0.0","0","0","90103","","null","","","null","0","","","","","","","","","","","","","","","",""
"","ITI","","html-keyboard-response","9","13666","0.0-1.0-9.0","0","0","90103","","null","","","null","0","","","","","","","","","","","","","","","NaN",""
"","S1","","html-keyboard-response","10","13922","0.0-1.0-11.0","0","0","90103","","null","","","null","1","","","","","","","","","","","","","","","",""
"","ISI","","html-keyboard-response","11","14029","0.0-1.0-12.0","0","0","90103","","null","","","null","1","NaN","","","","","","","","","","","","","","",""
"","S2","","html-keyboard-response","12","14256","0.0-1.0-13.0","0","0","90103","","225","","","75","1","","k","1","1","training","adjacent","FE","6","5","M.jpg","Q.jpg","1","0","0","",""
"","feedback","","html-keyboard-response","13","14358","0.0-1.0-15.0-0.0","0","0","90103","","null","","","null","1","","","","","","","","","","","","","","","",""
"","time_out","","html-keyboard-response","14","14462","0.0-1.0-17.0-0.0","0","0","90103","","null","","","null","1","","","","","","","","","","","","","","","",""
"","ITI","","html-keyboard-response","15","14966","0.0-1.0-18.0","0","0","90103","","91","","","75","1","","","","","","","","","","","","","","","k",""
"","S1","","html-keyboard-response","16","15220","0.0-1.0-20.0","0","0","90103","","null","","","null","2","","","","","","","","","","","","","","","",""
"","ISI","","html-keyboard-response","17","15325","0.0-1.0-21.0","0","0","90103","","null","","","null","2","NaN","","","","","","","","","","","","","","",""
"","S2","","html-keyboard-response","18","15371","0.0-1.0-22.0","0","0","90103","","45","","","75","2","","k","1","2","training","adjacent","AB","1","2","P.jpg","R.jpg","1","1","1","",""
"","feedback","","html-keyboard-response","19","15477","0.0-1.0-24.0-0.0","0","0","90103","","null","","","null","2","","","","","","","","","","","","","","","",""
"","ITI","","html-keyboard-response","20","15980","0.0-1.0-27.0","0","0","90103","","68","","","75","2","","","","","","","","","","","","","","","k",""
"","S1","","html-keyboard-response","21","16234","0.0-1.0-29.0","0","0","90103","","null","","","null","3","","","","","","","","","","","","","","","",""
"","ISI","","html-keyboard-response","22","16337","0.0-1.0-30.0","0","0","90103","","null","","","null","3","NaN","","","","","","","","","","","","","","",""
"","S2","","html-keyboard-response","23","16377","0.0-1.0-31.0","0","0","90103","","38","","","75","3","","k","1","3","training","adjacent","BC","2","3","R.jpg","L.jpg","1","1","1","",""
"","feedback","","html-keyboard-response","24","16482","0.0-1.0-33.0-0.0","0","0","90103","","null","","","null","3","","","","","","","","","","","","","","","",""
"","ITI","","html-keyboard-response","25","16983","0.0-1.0-36.0","0","0","90103","","51","","","75","3","","","","","","","","","","","","","","","k",""
"","S1","","html-keyboard-response","26","17239","0.0-1.0-38.0","0","0","90103","","null","","","null","4","","","","","","","","","","","","","","","",""
"","ISI","","html-keyboard-response","27","17341","0.0-1.0-39.0","0","0","90103","","null","","","null","4","NaN","","","","","","","","","","","","","","",""
"","S2","","html-keyboard-response","28","17363","0.0-1.0-40.0","0","0","90103","","21","","","75","4","","k","1","4","training","adjacent","CB","3","2","L.jpg","R.jpg","1","0","0","",""
"","feedback","","html-keyboard-response","29","17469","0.0-1.0-42.0-0.0","0","0","90103","","null","","","null","4","","","","","","","","","","","","","","","",""
"","time_out","","html-keyboard-response","30","17573","0.0-1.0-44.0-0.0","0","0","90103","","null","","","null","4","","","","","","","","","","","","","","","",""
"","ITI","","html-keyboard-response","31","18078","0.0-1.0-45.0","0","0","90103","","126","","","75","4","","","","","","","","","","","","","","","k",""
"","S1","","html-keyboard-response","32","18332","0.0-1.0-47.0","0","0","90103","","null","","","null","5","","","","","","","","","","","","","","","",""
"","ISI","","html-keyboard-response","33","18434","0.0-1.0-48.0","0","0","90103","","79","","","75","5","k","","","","","","","","","","","","","","",""
"","S2","","html-keyboard-response","34","18580","0.0-1.0-49.0","0","0","90103","","144","","","75","5","","k","1","5","training","adjacent","GF","7","6","O.jpg","M.jpg","1","0","0","",""
"","feedback","","html-keyboard-response","35","18683","0.0-1.0-51.0-0.0","0","0","90103","","null","","","null","5","","","","","","","","","","","","","","","",""
"","time_out","","html-keyboard-response","36","18786","0.0-1.0-53.0-0.0","0","0","90103","","null","","","null","5","","","","","","","","","","","","","","","",""
"","ITI","","html-keyboard-response","37","19291","0.0-1.0-54.0","0","0","90103","","140","","","75","5","","","","","","","","","","","","","","","k",""
"","S1","","html-keyboard-response","38","19543","0.0-1.0-56.0","0","0","90103","","null","","","null","6","","","","","","","","","","","","","","","",""
"","ISI","","html-keyboard-response","39","19650","0.0-1.0-57.0","0","0","90103","","73","","","75","6","k","","","","","","","","","","","","","","",""
"","S2","","html-keyboard-response","40","19806","0.0-1.0-58.0","0","0","90103","","154","","","75","6","","k","1","6","training","adjacent","CD","3","4","L.jpg","N.jpg","1","1","1","",""
"","feedback","","html-keyboard-response","41","19908","0.0-1.0-60.0-0.0","0","0","90103","","null","","","null","6","","","","","","","","","","","","","","","",""
"","ITI","","html-keyboard-response","42","20413","0.0-1.0-63.0","0","0","90103","","61","","","75","6","","","","","","","","","","","","","","","k",""
"","S1","","html-keyboard-response","43","20666","0.0-1.0-65.0","0","0","90103","","null","","","null","7","","","","","","","","","","","","","","","",""
"","ISI","","html-keyboard-response","44","20770","0.0-1.0-66.0","0","0","90103","","23","","","75","7","k","","","","","","","","","","","","","","",""
"","S2","","html-keyboard-response","45","20859","0.0-1.0-67.0","0","0","90103","","87","","","75","7","","k","1","7","training","adjacent","FG","6","7","M.jpg","O.jpg","1","1","1","",""
"","feedback","","html-keyboard-response","46","20962","0.0-1.0-69.0-0.0","0","0","90103","","null","","","null","7","","","","","","","","","","","","","","","",""
"","ITI","","html-keyboard-response","47","21466","0.0-1.0-72.0","0","0","90103","","60","","","75","7","","","","","","","","","","","","","","","k",""
"","S1","","html-keyboard-response","48","21722","0.0-1.0-74.0","0","0","90103","","null","","","null","8","","","","","","","","","","","","","","","",""
"","ISI","","html-keyboard-response","49","21825","0.0-1.0-75.0","0","0","90103","","29","","","75","8","k","","","","","","","","","","","","","","",""
"","S2","","html-keyboard-response","50","21937","0.0-1.0-76.0","0","0","90103","","110","","","75","8","","k","1","8","training","adjacent","BA","2","1","R.jpg","P.jpg","1","0","0","",""
"","feedback","","html-keyboard-response","51","22039","0.0-1.0-78.0-0.0","0","0","90103","","null","","","null","8","","","","","","","","","","","","","","","",""
"","time_out","","html-keyboard-response","52","22146","0.0-1.0-80.0-0.0","0","0","90103","","null","","","null","8","","","","","","","","","","","","","","","",""
"","ITI","","html-keyboard-response","53","22648","0.0-1.0-81.0","0","0","90103","","137","","","75","8","","","","","","","","","","","","","","","k",""
"","S1","","html-keyboard-response","54","22906","0.0-1.0-83.0","0","0","90103","","null","","","null","9","","","","","","","","","","","","","","","",""
"","ISI","","html-keyboard-response","55","23010","0.0-1.0-84.0","0","0","90103","","null","","","null","9","NaN","","","","","","","","","","","","","","",""
"","S2","","html-keyboard-response","56","23024","0.0-1.0-85.0","0","0","90103","","12","","","75","9","","k","1","9","training","adjacent","EF","5","6","Q.jpg","M.jpg","1","1","1","",""
"","feedback","","html-keyboard-response","57","23125","0.0-1.0-87.0-0.0","0","0","90103","","null","","","null","9","","","","","","","","","","","","","","","",""
"","ITI","","html-keyboard-response","58","23629","0.0-1.0-90.0","0","0","90103","","101","","","75","9","","","","","","","","","","","","","","","k",""
"","S1","","html-keyboard-response","59","23884","0.0-1.0-92.0","0","0","90103","","null","","","null","10","","","","","","","","","","","","","","","",""
"","ISI","","html-keyboard-response","60","23986","0.0-1.0-93.0","0","0","90103","","null","","","null","10","NaN","","","","","","","","","","","","","","",""
"","S2","","html-keyboard-response","61","24242","0.0-1.0-94.0","0","0","90103","","null","","","null","10","","NaN","","","","","","","","","","","","","",""
"","response","","html-keyboard-response","62","24397","0.0-1.0-95.0-0.0","0","0","90103","","154","","","75","10","","","1","10","training","adjacent","DC","4","3","N.jpg","L.jpg","1","0","0","",""
"","feedback","","html-keyboard-response","63","24498","0.0-1.0-96.0-0.0","0","0","90103","","null","","","null","10","","","","","","","","","","","","","","","",""
"","time_out","","html-keyboard-response","64","24604","0.0-1.0-98.0-0.0","0","0","90103","","null","","","null","10","","","","","","","","","","","","","","","",""
"","ITI","","html-keyboard-response","65","25105","0.0-1.0-99.0","0","0","90103","","162","","","75","10","","","","","","","","","","","","","","","k",""
"","S1","","html-keyboard-response","66","25362","0.0-1.0-101.0","0","0","90103","","null","","","null","11","","","","","","","","","","","","","","","",""
"","ISI","","html-keyboard-response","67","25465","0.0-1.0-102.0","0","0","90103","","34","","","75","11","k","","","","","","","","","","","","","","",""
"","S2","","html-keyboard-response","68","25609","0.0-1.0-103.0","0","0","90103","","142","","","75","11","","k","1","11","training","adjacent","ED","5","4","Q.jpg","N.jpg","1","0","0","",""
"","feedback","","html-keyboard-response","69","25711","0.0-1.0-105.0-0.0","0","0","90103","","null","","","null","11","","","","","","","","","","","","","","","",""
"","time_out","","html-keyboard-response","70","25815","0.0-1.0-107.0-0.0","0","0","90103","","null","","","null","11","","","","","","","","","","","","","","","",""
"","ITI","","html-keyboard-response","71","26320","0.0-1.0-108.0","0","0","90103","","181","","","75","11","","","","","","","","","","","","","","","k",""
"","block_over","","html-keyboard-response","72","34407","0.0-1.0-109.0-0.0","0","0","90103","","8086","","","32","11","","","","","","","","","","","","","","","",""
"","S1","","html-keyboard-response","73","34664","0.0-1.0-110.0","0","0","90103","","null","","","null","12","","","","","","","","","","","","","","","",""
"","ISI","","html-keyboard-response","74","34770","0.0-1.0-111.0","0","0","90103","","null","","","null","12","NaN","","","","","","","","","","","","","","",""
"","S2","","html-keyboard-response","75","35023","0.0-1.0-112.0","0","0","90103","","null","","","null","12","","NaN","","","","","","","","","","","","","",""
"","response","","html-keyboard-response","76","35128","0.0-1.0-113.0-0.0","0","0","90103","","104","","","75","12","","","2","12","training","adjacent","BA","2","1","R.jpg","P.jpg","1","0","0","",""
"","feedback","","html-keyboard-response","77","35230","0.0-1.0-114.0-0.0","0","0","90103","","null","","","null","12","","","","","","","","","","","","","","","",""
"","time_out","","html-keyboard-response","78","35336","0.0-1.0-116.0-0.0","0","0","90103","","null","","","null","12","","","","","","","","","","","","","","","",""
"","ITI","","html-keyboard-response","79","35842","0.0-1.0-117.0","0","0","90103","","102","","","75","12","","","","","","","","","","","","","","","k",""
"","S1","","html-keyboard-response","80","36095","0.0-1.0-119.0","0","0","90103","","null","","","null","13","","","","","","","","","","","","","","","",""
"","ISI","","html-keyboard-response","81","36200","0.0-1.0-120.0","0","0","90103","","56","","","75","13","k","","","","","","","","","","","","","","",""
"","S2","","html-keyboard-response","82","36315","0.0-1.0-121.0","0","0","90103","","113","","","75","13","","k","2","13","training","adjacent","FE","6","5","M.jpg","Q.jpg","1","0","0","",""
"","feedback","","html-keyboard-response","83","36419","0.0-1.0-123.0-0.0","0","0","90103","","null","","","null","13","","","","","","","","","","","","","","","",""
"","time_out","","html-keyboard-response","84","36524","0.0-1.0-125.0-0.0","0","0","90103","","null","","","null","13","","","","","","","","","","","","","","","",""
"","ITI","","html-keyboard-response","85","37026","0.0-1.0-126.0","0","0","90103","","111","","","75","13","","","","","","","","","","","","","","","k",""
"","S1","","html-keyboard-response","86","37280","0.0-1.0-128.0","0","0","90103","","null","","","null","14","","","","","","","","","","","","","","","",""
"","ISI","","html-keyboard-response","87","37381","0.0-1.0-129.0","0","0","90103","","null","","","null","14","NaN","","","","","","","","","","","","","","",""
"","S2","","html-keyboard-response","88","37438","0.0-1.0-130.0","0","0","90103","","55","","","75","14","","k","2","14","training","adjacent","GF","7","6","O.jpg","M.jpg","1","0","0","",""
"","feedback","","html-keyboard-response","89","37543","0.0-1.0-132.0-0.0","0","0","90103","","null","","","null","14","","","","","","","","","","","","","","","",""
"","time_out","","html-keyboard-response","90","37645","0.0-1.0-134.0-0.0","0","0","90103","","null","","","null","14","","","","","","","","","","","","","","","",""
"","ITI","","html-keyboard-response","91","38147","0.0-1.0-135.0","0","0","90103","","110","","","75","14","","","","","","","","","","","","","","","k",""
"","S1","","html-keyboard-response","92","38402","0.0-1.0-137.0","0","0","90103","","null","","","null","15","","","","","","","","","","","","","","","",""
"","ISI","","html-keyboard-response","93","38509","0.0-1.0-138.0","0","0","90103","","18","","","75","15","k","","","","","","","","","","","","","","",""
"","S2","","html-keyboard-response","94","38585","0.0-1.0-139.0","0","0","90103","","74","","","75","15","","k","2","15","training","adjacent","FG","6","7","M.jpg","O.jpg","1","1","1","",""
"","feedback","","html-keyboard-response","95","38687","0.0-1.0-141.0-0.0","0","0","90103","","null","","","null","15","","","","","","","","","","","","","","","",""
"","ITI","","html-keyboard-response","96","39190","0.0-1.0-144.0","0","0","90103","","60","","","75","15","","","","","","","","","","","","","","","k",""
"","S1","","html-keyboard-response","97","39443","0.0-1.0-146.0","0","0","90103","","null","","","null","16","","","","","","","","","","","","","","","",""
"","ISI","","html-keyboard-response","98","39549","0.0-1.0-147.0","0","0","90103","","null","","","null","16","NaN","","","","","","","","","","","","","","",""
"","S2","","html-keyboard-response","99","39598","0.0-1.0-148.0","0","0","90103","","47","","","75","16","","k","2","16","training","adjacent","DC","4","3","N.jpg","L.jpg","1","0","0","",""
"","feedback","","html-keyboard-response","100","39703","0.0-1.0-150.0-0.0","0","0","90103","","null","","","null","16","","","","","","","","","","","","","","","",""
"","time_out","","html-keyboard-response","101","39804","0.0-1.0-152.0-0.0","0","0","90103","","null","","","null","16","","","","","","","","","","","","","","","",""
"","ITI","","html-keyboard-response","102","40307","0.0-1.0-153.0","0","0","90103","","109","","","75","16","","","","","","","","","","","","","","","k",""
"","S1","","html-keyboard-response","103","40562","0.0-1.0-155.0","0","0","90103","","null","","","null","17","","","","","","","","","","","","","","","",""
"","ISI","","html-keyboard-response","104","40663","0.0-1.0-156.0","0","0","90103","","42","","","75","17","k","","","","","","","","","","","","","","",""
"","S2","","html-keyboard-response","105","40767","0.0-1.0-157.0","0","0","90103","","102","","","75","17","","k","2","17","training","adjacent","ED","5","4","Q.jpg","N.jpg","1","0","0","",""
"","feedback","","html-keyboard-response","106","40872","0.0-1.0-159.0-0.0","0","0","90103","","null","","","null","17","","","","","","","","","","","","","","","",""
"","time_out","","html-keyboard-response","107","40978","0.0-1.0-161.0-0.0","0","0","90103","","null","","","null","17","","","","","","","","","","","","","","","",""
"","ITI","","html-keyboard-response","108","41485","0.0-1.0-162.0","0","0","90103","","105","","","75","17","","","","","","","","","","","","","","","k",""
"","S1","","html-keyboard-response","109","41739","0.0-1.0-164.0","0","0","90103","","null","","","null","18","","","","","","","","","","","","","","","",""
"","ISI","","html-keyboard-response","110","41843","0.0-1.0-165.0","0","0","90103","","43","","","75","18","k","","","","","","","","","","","","","","",""
"","S2","","html-keyboard-response","111","41939","0.0-1.0-166.0","0","0","90103","","95","","","75","18","","k","2","18","training","adjacent","AB","1","2","P.jpg","R.jpg","1","1","1","",""
"","feedback","","html-keyboard-response","112","42042","0.0-1.0-168.0-0.0","0","0","90103","","null","","","null","18","","","","","","","","","","","","","","","",""
"","ITI","","html-keyboard-response","113","42547","0.0-1.0-171.0","0","0","90103","","61","","","75","18","","","","","","","","","","","","","","","k",""
"","S1","","html-keyboard-response","114","42803","0.0-1.0-173.0","0","0","90103","","null","","","null","19","","","","","","","","","","","","","","","",""
"","ISI","","html-keyboard-response","115","42909","0.0-1.0-174.0","0","0","90103","","2","","","75","19","k","","","","","","","","","","","","","","",""
"","S2","","html-keyboard-response","116","42951","0.0-1.0-175.0","0","0","90103","","41","","","75","19","","k","2","19","training","adjacent","CD","3","4","L.jpg","N.jpg","1","1","1","",""
"","feedback","","html-keyboard-response","117","43055","0.0-1.0-177.0-0.0","0","0","90103","","null","","","null","19","","","","","","","","","","","","","","","",""
"","ITI","","html-keyboard-response","118","43560","0.0-1.0-180.0","0","0","90103","","61","","","75","19","","","","","","","","","","","","","","","k",""
"","S1","","html-keyboard-response","119","43815","0.0-1.0-182.0","0","0","90103","","null","","","null","20","","","","","","","","","","","","","","","",""
"","ISI","","html-keyboard-response","120","43921","0.0-1.0-183.0","0","0","90103","","33","","","75","20","k","","","","","","","","","","","","","","",""
"","S2","","html-keyboard-response","121","44035","0.0-1.0-184.0","0","0","90103","","112","","","75","20","","k","2","20","training","adjacent","BC","2","3","R.jpg","L.jpg","1","1","1","",""
"","feedback","","html-keyboard-response","122","44137","0.0-1.0-186.0-0.0","0","0","90103","","null","","","null","20","","","","","","","","","","","","","","","",""
"","ITI","","html-keyboard-response","123","44643","0.0-1.0-189.0","0","0","90103","","57","","","75","20","","","","","","","","","","","","","","","k",""
"","S1","","html-keyboard-response","124","44899","0.0-1.0-191.0","0","0","90103","","null","","","null","21","","","","","","","","","","","","","","","",""
"","ISI","","html-keyboard-response","125","45005","0.0-1.0-192.0","0","0","90103","","25","","","75","21","k","","","","","","","","","","","","","","",""
"","S2","","html-keyboard-response","126","45105","0.0-1.0-193.0","0","0","90103","","97","","","75","21","","k","2","21","training","adjacent","DE","4","5","N.jpg","Q.jpg","1","1","1","",""
"","feedback","","html-keyboard-response","127","45208","0.0-1.0-195.0-0.0","0","0","90103","","null","","","null","21","","","","","","","","","","","","","","","",""
"","ITI","","html-keyboard-response","128","45715","0.0-1.0-198.0","0","0","90103","","65","","","75","21","","","","","","","","","","","","","","","k",""
"","S1","","html-keyboard-response","129","45971","0.0-1.0-200.0","0","0","90103","","null","","","null","22","","","","","","","","","","","","","","","",""
"","ISI","","html-keyboard-response","130","46077","0.0-1.0-201.0","0","0","90103","","null","","","null","22","NaN","","","","","","","","","","","","","","",""
"","S2","","html-keyboard-response","131","46102","0.0-1.0-202.0","0","0","90103","","23","","","75","22","","k","2","22","training","adjacent","EF","5","6","Q.jpg","M.jpg","1","1","1","",""
"","feedback","","html-keyboard-response","132","46204","0.0-1.0-204.0-0.0","0","0","90103","","null","","","null","22","","","","","","","","","","","","","","","",""
"","ITI","","html-keyboard-response","133","46707","0.0-1.0-207.0","0","0","90103","","87","","","75","22","","","","","","","","","","","","","","","k",""
"","S1","","html-keyboard-response","134","46960","0.0-1.0-209.0","0","0","90103","","null","","","null","23","","","","","","","","","","","","","","","",""
"","ISI","","html-keyboard-response","135","47062","0.0-1.0-210.0","0","0","90103","","null","","","null","23","NaN","","","","","","","","","","","","","","",""
"","S2","","html-keyboard-response","136","47139","0.0-1.0-211.0","0","0","90103","","76","","","75","23","","k","2","23","training","adjacent","CB","3","2","L.jpg","R.jpg","1","0","0","",""
"","feedback","","html-keyboard-response","137","47242","0.0-1.0-213.0-0.0","0","0","90103","","null","","","null","23","","","","","","","","","","","","","","","",""
"","time_out","","html-keyboard-response","138","47345","0.0-1.0-215.0-0.0","0","0","90103","","null","","","null","23","","","","","","","","","","","","","","","",""
"","ITI","","html-keyboard-response","139","47848","0.0-1.0-216.0","0","0","90103","","311","","","75","23","","","","","","","","","","","","","","","k",""
"","block_over","","html-keyboard-response","140","48924","0.0-1.0-217.0-0.0","0","0","90103","","1075","","","32","23","","","","","","","","","","","","","","","",""
"","S1","","html-keyboard-response","141","49181","0.0-1.0-218.0","0","0","90103","","null","","","null","24","","","","","","","","","","","","","","","",""
"","ISI","","html-keyboard-response","142","49286","0.0-1.0-219.0","0","0","90103","","null","","","null","24","NaN","","","","","","","","","","","","","","",""
"","S2","","html-keyboard-response","143","49304","0.0-1.0-220.0","0","0","90103","","17","","","75","24","","k","3","24","training","adjacent","DE","4","5","N.jpg","Q.jpg","1","1","1","",""
"","feedback","","html-keyboard-response","144","49409","0.0-1.0-222.0-0.0","0","0","90103","","null","","","null","24","","","","","","","","","","","","","","","",""
"","ITI","","html-keyboard-response","145","49910","0.0-1.0-225.0","0","0","90103","","71","","","75","24","","","","","","","","","","","","","","","k",""
"","S1","","html-keyboard-response","146","50162","0.0-1.0-227.0","0","0","90103","","null","","","null","25","","","","","","","","","","","","","","","",""
"","ISI","","html-keyboard-response","147","50267","0.0-1.0-228.0","0","0","90103","","23","","","75","25","k","","","","","","","","","","","","","","",""
"","S2","","html-keyboard-response","148","50353","0.0-1.0-229.0","0","0","90103","","84","","","75","25","","k","3","25","training","adjacent","FG","6","7","M.jpg","O.jpg","1","1","1","",""
"","feedback","","html-keyboard-response","149","50455","0.0-1.0-231.0-0.0","0","0","90103","","null","","","null","25","","","","","","","","","","","","","","","",""
"","ITI","","html-keyboard-response","150","50957","0.0-1.0-234.0","0","0","90103","","57","","","75","25","","","","","","","","","","","","","","","k",""
"","S1","","html-keyboard-response","151","51213","0.0-1.0-236.0","0","0","90103","","null","","","null","26","","","","","","","","","","","","","","","",""
"","ISI","","html-keyboard-response","152","51320","0.0-1.0-237.0","0","0","90103","","16","","","75","26","k","","","","","","","","","","","","","","",""
"","S2","","html-keyboard-response","153","51407","0.0-1.0-238.0","0","0","90103","","86","","","75","26","","k","3","26","training","adjacent","ED","5","4","Q.jpg","N.jpg","1","0","0","",""
"","feedback","","html-keyboard-response","154","51511","0.0-1.0-240.0-0.0","0","0","90103","","null","","","null","26","","","","","","","","","","","","","","","",""
"","time_out","","html-keyboard-response","155","51613","0.0-1.0-242.0-0.0","0","0","90103","","null","","","null","26","","","","","","","","","","","","","","","",""
"","ITI","","html-keyboard-response","156","52115","0.0-1.0-243.0","0","0","90103","","179","","","75","26","","","","","","","","","","","","","","","k",""
"","S1","","html-keyboard-response","157","52371","0.0-1.0-245.0","0","0","90103","","null","","","null","27","","","","","","","","","","","","","","","",""
"","ISI","","html-keyboard-response","158","52474","0.0-1.0-246.0","0","0","90103","","34","","","75","27","k","","","","","","","","","","","","","","",""
"","S2","","html-keyboard-response","159","52584","0.0-1.0-247.0","0","0","90103","","107","","","75","27","","k","3","27","training","adjacent","CB","3","2","L.jpg","R.jpg","1","0","0","",""
"","feedback","","html-keyboard-response","160","52686","0.0-1.0-249.0-0.0","0","0","90103","","null","","","null","27","","","","","","","","","","","","","","","",""
"","time_out","","html-keyboard-response","161","52791","0.0-1.0-251.0-0.0","0","0","90103","","null","","","null","27","","","","","","","","","","","","","","","",""
"","ITI","","html-keyboard-response","162","53295","0.0-1.0-252.0","0","0","90103","","null","","","null","27","","","","","","","","","","","","","","","NaN",""
"","S1","","html-keyboard-response","163","53549","0.0-1.0-254.0","0","0","90103","","null","","","null","28","","","","","","","","","","","","","","","",""
"","ISI","","html-keyboard-response","164","53651","0.0-1.0-255.0","0","0","90103","","28","","","75","28","k","","","","","","","","","","","","","","",""
"","S2","","html-keyboard-response","165","53768","0.0-1.0-256.0","0","0","90103","","114","","","75","28","","k","3","28","training","adjacent","GF","7","6","O.jpg","M.jpg","1","0","0","",""
"","feedback","","html-keyboard-response","166","53871","0.0-1.0-258.0-0.0","0","0","90103","","null","","","null","28","","","","","","","","","","","","","","","",""
"","time_out","","html-keyboard-response","167","53976","0.0-1.0-260.0-0.0","0","0","90103","","null","","","null","28","","","","","","","","","","","","","","","",""
"","ITI","","html-keyboard-response","168","54478","0.0-1.0-261.0","0","0","90103","","185","","","75","28","","","","","","","","","","","","","","","k",""
"","S1","","html-keyboard-response","169","54733","0.0-1.0-263.0","0","0","90103","","null","","","null","29","","","","","","","","","","","","","","","",""
"","ISI","","html-keyboard-response","170","54838","0.0-1.0-264.0","0","0","90103","","41","","","75","29","k","","","","","","","","","","","","","","",""
"","S2","","html-keyboard-response","171","54967","0.0-1.0-265.0","0","0","90103","","127","","","75","29","","k","3","29","training","adjacent","EF","5","6","Q.jpg","M.jpg","1","1","1","",""
"","feedback","","html-keyboard-response","172","55071","0.0-1.0-267.0-0.0","0","0","90103","","null","","","null","29","","","","","","","","","","","","","","","",""
"","ITI","","html-keyboard-response","173","55575","0.0-1.0-270.0","0","0","90103","","90","","","75","29","","","","","","","","","","","","","","","k",""
"","S1","","html-keyboard-response","174","55832","0.0-1.0-272.0","0","0","90103","","null","","","null","30","","","","","","","","","","","","","","","",""
"","ISI","","html-keyboard-response","175","55939","0.0-1.0-273.0","0","0","90103","","null","","","null","30","NaN","","","","","","","","","","","","","","",""
"","S2","","html-keyboard-response","176","55981","0.0-1.0-274.0","0","0","90103","","40","","","75","30","","k","3","30","training","adjacent","BC","2","3","R.jpg","L.jpg","1","1","1","",""
"","feedback","","html-keyboard-response","177","56086","0.0-1.0-276.0-0.0","0","0","90103","","null","","","null","30","","","","","","","","","","","","","","","",""
"","ITI","","html-keyboard-response","178","56589","0.0-1.0-279.0","0","0","90103","","76","","","75","30","","","","","","","","","","","","","","","k",""
"","S1","","html-keyboard-response","179","56846","0.0-1.0-281.0","0","0","90103","","null","","","null","31","","","","","","","","","","","","","","","",""
"","ISI","","html-keyboard-response","180","56951","0.0-1.0-282.0","0","0","90103","","null","","","null","31","NaN","","","","","","","","","","","","","","",""
"","S2","","html-keyboard-response","181","56989","0.0-1.0-283.0","0","0","90103","","36","","","75","31","","k","3","31","training","adjacent","CD","3","4","L.jpg","N.jpg","1","1","1","",""
"","feedback","","html-keyboard-response","182","57091","0.0-1.0-285.0-0.0","0","0","90103","","null","","","null","31","","","","","","","","","","","","","","","",""
"","ITI","","html-keyboard-response","183","57597","0.0-1.0-288.0","0","0","90103","","99","","","75","31","","","","","","","","","","","","","","","k",""
"","S1","","html-keyboard-response","184","57854","0.0-1.0-290.0","0","0","90103","","null","","","null","32","","","","","","","","","","","","","","","",""
"","ISI","","html-keyboard-response","185","57960","0.0-1.0-291.0","0","0","90103","","26","","","75","32","k","","","","","","","","","","","","","","",""
"","S2","","html-keyboard-response","186","58071","0.0-1.0-292.0","0","0","90103","","109","","","75","32","","k","3","32","training","adjacent","FE","6","5","M.jpg","Q.jpg","1","0","0","",""
"","feedback","","html-keyboard-response","187","58173","0.0-1.0-294.0-0.0","0","0","90103","","null","","","null","32","","","","","","","","","","","","","","","",""
"","time_out","","html-keyboard-response","188","58280","0.0-1.0-296.0-0.0","0","0","90103","","null","","","null","32","","","","","","","","","","","","","","","",""
"","ITI","","html-keyboard-response","189","58782","0.0-1.0-297.0","0","0","90103","","212","","","75","32","","","","","","","","","","","","","","","k",""
"","S1","","html-keyboard-response","190","59038","0.0-1.0-299.0","0","0","90103","","null","","","null","33","","","","","","","","","","","","","","","",""
"","ISI","","html-keyboard-response","191","59144","0.0-1.0-300.0","0","0","90103","","null","","","null","33","NaN","","","","","","","","","","","","","","",""
"","S2","","html-keyboard-response","192","59179","0.0-1.0-301.0","0","0","90103","","33","","","75","33","","k","3","33","training","adjacent","BA","2","1","R.jpg","P.jpg","1","0","0","",""
"","feedback","","html-keyboard-response","193","59282","0.0-1.0-303.0-0.0","0","0","90103","","null","","","null","33","","","","","","","","","","","","","","","",""
"","time_out","","html-keyboard-response","194","59384","0.0-1.0-305.0-0.0","0","0","90103","","null","","","null","33","","","","","","","","","","","","","","","",""
"","ITI","","html-keyboard-response","195","59891","0.0-1.0-306.0","0","0","90103","","356","","","75","33","","","","","","","","","","","","","","","k",""
"","S1","","html-keyboard-response","196","60146","0.0-1.0-308.0","0","0","90103","","null","","","null","34","","","","","","","","","","","","","","","",""
"","ISI","","html-keyboard-response","197","60248","0.0-1.0-309.0","0","0","90103","","25","","","75","34","k","","","","","","","","","","","","","","",""
"","S2","","html-keyboard-response","198","60347","0.0-1.0-310.0","0","0","90103","","98","","","75","34","","k","3","34","training","adjacent","DC","4","3","N.jpg","L.jpg","1","0","0","",""
"","feedback","","html-keyboard-response","199","60450","0.0-1.0-312.0-0.0","0","0","90103","","null","","","null","34","","","","","","","","","","","","","","","",""
"","time_out","","html-keyboard-response","200","60552","0.0-1.0-314.0-0.0","0","0","90103","","null","","","null","34","","","","","","","","","","","","","","","",""
"","ITI","","html-keyboard-response","201","61053","0.0-1.0-315.0","0","0","90103","","155","","","75","34","","","","","","","","","","","","","","","k",""
"","S1","","html-keyboard-response","202","61310","0.0-1.0-317.0","0","0","90103","","null","","","null","35","","","","","","","","","","","","","","","",""
"","ISI","","html-keyboard-response","203","61413","0.0-1.0-318.0","0","0","90103","","null","","","null","35","NaN","","","","","","","","","","","","","","",""
"","S2","","html-keyboard-response","204","61481","0.0-1.0-319.0","0","0","90103","","66","","","75","35","","k","3","35","training","adjacent","AB","1","2","P.jpg","R.jpg","1","1","1","",""
"","feedback","","html-keyboard-response","205","61587","0.0-1.0-321.0-0.0","0","0","90103","","null","","","null","35","","","","","","","","","","","","","","","",""
"","ITI","","html-keyboard-response","206","62094","0.0-1.0-324.0","0","0","90103","","83","","","75","35","","","","","","","","","","","","","","","k",""
"","block_over","","html-keyboard-response","207","63369","0.0-1.0-325.0-0.0","0","0","90103","","1273","","","32","35","","","","","","","","","","","","","","","",""
"","S1","","html-keyboard-response","208","63621","0.0-1.0-326.0","0","0","90103","","null","","","null","36","","","","","","","","","","","","","","","",""
"","ISI","","html-keyboard-response","209","63725","0.0-1.0-327.0","0","0","90103","","38","","","75","36","k","","","","","","","","","","","","","","",""
"","S2","","html-keyboard-response","210","63870","0.0-1.0-328.0","0","0","90103","","143","","","75","36","","k","4","36","test","non_adjacent","EB","5","2","Q.jpg","R.jpg","1","0","0","",""
"","feedback","","html-keyboard-response","211","63972","0.0-1.0-330.0-0.0","0","0","90103","","null","","","null","36","","","","","","","","","","","","","","","",""
"","time_out","","html-keyboard-response","212","64078","0.0-1.0-332.0-0.0","0","0","90103","","null","","","null","36","","","","","","","","","","","","","","","",""
"","ITI","","html-keyboard-response","213","64580","0.0-1.0-333.0","0","0","90103","","164","","","75","36","","","","","","","","","","","","","","","k",""
"","S1","","html-keyboard-response","214","64835","0.0-1.0-335.0","0","0","90103","","null","","","null","37","","","","","","","","","","","","","","","",""
"","ISI","","html-keyboard-response","215","64936","0.0-1.0-336.0","0","0","90103","","36","","","75","37","k","","","","","","","","","","","","","","",""
"","S2","","html-keyboard-response","216","65101","0.0-1.0-337.0","0","0","90103","","163","","","75","37","","k","4","37","test","adjacent","AB","1","2","P.jpg","R.jpg","1","1","1","",""
"","feedback","","html-keyboard-response","217","65203","0.0-1.0-339.0-0.0","0","0","90103","","null","","","null","37","","","","","","","","","","","","","","","",""
"","ITI","","html-keyboard-response","218","65710","0.0-1.0-342.0","0","0","90103","","81","","","75","37","","","","","","","","","","","","","","","k",""
"","S1","","html-keyboard-response","219","65966","0.0-1.0-344.0","0","0","90103","","null","","","null","38","","","","","","","","","","","","","","","",""
"","ISI","","html-keyboard-response","220","66072","0.0-1.0-345.0","0","0","90103","","null","","","null","38","NaN","","","","","","","","","","","","","","",""
"","S2","","html-keyboard-response","221","66328","0.0-1.0-346.0","0","0","90103","","null","","","null","38","","NaN","","","","","","","","","","","","","",""
"","response","","html-keyboard-response","222","66835","0.0-1.0-347.0-0.0","0","0","90103","","null","","","null","38","","","4","38","test","non_adjacent","GB","7","2","O.jpg","R.jpg","NaN","0","0","",""
"","too_slow_prompt","","html-keyboard-response","223","67838","0.0-1.0-349.0-0.0","1","0","90103","","null","","","null","","","","","","","","","","","","","","","","",""
"","time_out","","html-keyboard-response","224","67944","0.0-1.0-350.0-0.0","0","0","90103","","null","","","null","38","","","","","","","","","","","","","","","",""
"","ITI","","html-keyboard-response","225","68451","0.0-1.0-351.0","0","0","90103","","237","","","75","38","","","","","","","","","","","","","","","k",""
"","S1","","html-keyboard-response","226","68707","0.0-1.0-353.0","0","0","90103","","null","","","null","39","","","","","","","","","","","","","","","",""
"","ISI","","html-keyboard-response","227","68814","0.0-1.0-354.0","0","0","90103","","73","","","75","39","k","","","","","","","","","","","","","","",""
"","S2","","html-keyboard-response","228","68989","0.0-1.0-355.0","0","0","90103","","173","","","75","39","","k","4","39","test","non_adjacent","DB","4","2","N.jpg","R.jpg","1","0","0","",""
"","feedback","","html-keyboard-response","229","69091","0.0-1.0-357.0-0.0","0","0","90103","","null","","","null","39","","","","","","","","","","","","","","","",""
"","time_out","","html-keyboard-response","230","69193","0.0-1.0-359.0-0.0","0","0","90103","","null","","","null","39","","","","","","","","","","","","","","","",""
"","ITI","","html-keyboard-response","231","69695","0.0-1.0-360.0","0","0","90103","","177","","","75","39","","","","","","","","","","","","","","","k",""
"","S1","","html-keyboard-response","232","69948","0.0-1.0-362.0","0","0","90103","","null","","","null","40","","","","","","","","","","","","","","","",""
"","ISI","","html-keyboard-response","233","70054","0.0-1.0-363.0","0","0","90103","","null","","","null","40","NaN","","","","","","","","","","","","","","",""
"","S2","","html-keyboard-response","234","70097","0.0-1.0-364.0","0","0","90103","","42","","","75","40","","k","4","40","test","non_adjacent","AD","1","4","P.jpg","N.jpg","1","1","1","",""
"","feedback","","html-keyboard-response","235","70200","0.0-1.0-366.0-0.0","0","0","90103","","null","","","null","40","","","","","","","","","","","","","","","",""
"","ITI","","html-keyboard-response","236","70706","0.0-1.0-369.0","0","0","90103","","109","","","75","40","","","","","","","","","","","","","","","k",""
"","S1","","html-keyboard-response","237","70961","0.0-1.0-371.0","0","0","90103","","null","","","null","41","","","","","","","","","","","","","","","",""
"","ISI","","html-keyboard-response","238","71065","0.0-1.0-372.0","0","0","90103","","null","","","null","41","NaN","","","","","","","","","","","","","","",""
"","S2","","html-keyboard-response","239","71321","0.0-1.0-373.0","0","0","90103","","null","","","null","41","","NaN","","","","","","","","","","","","","",""
"","response","","html-keyboard-response","240","71452","0.0-1.0-374.0-0.0","0","0","90103","","129","","","75","41","","","4","41","test","non_adjacent","FB","6","2","M.jpg","R.jpg","1","0","0","",""
"","feedback","","html-keyboard-response","241","71555","0.0-1.0-375.0-0.0","0","0","90103","","null","","","null","41","","","","","","","","","","","","","","","",""
"","time_out","","html-keyboard-response","242","71658","0.0-1.0-377.0-0.0","0","0","90103","","null","","","null","41","","","","","","","","","","","","","","","",""
"","ITI","","html-keyboard-response","243","72163","0.0-1.0-378.0","0","0","90103","","65","","","75","41","","","","","","","","","","","","","","","k",""
"","S1","","html-keyboard-response","244","72416","0.0-1.0-380.0","0","0","90103","","null","","","null","42","","","","","","","","","","","","","","","",""
"","ISI","","html-keyboard-response","245","72521","0.0-1.0-381.0","0","0","90103","","30","","","75","42","k","","","","","","","","","","","","","","",""
"","S2","","html-keyboard-response","246","72662","0.0-1.0-382.0","0","0","90103","","139","","","75","42","","k","4","42","test","non_adjacent","EC","5","3","Q.jpg","L.jpg","1","0","0","",""
"","feedback","","html-keyboard-response","247","72766","0.0-1.0-384.0-0.0","0","0","90103","","null","","","null","42","","","","","","","","","","","","","","","",""
"","time_out","","html-keyboard-response","248","72873","0.0-1.0-386.0-0.0","0","0","90103","","null","","","null","42","","","","","","","","","","","","","","","",""
"","ITI","","html-keyboard-response","249","73379","0.0-1.0-387.0","0","0","90103","","156","","","75","42","","","","","","","","","","","","","","","k",""
"","S1","","html-keyboard-response","250","73635","0.0-1.0-389.0","0","0","90103","","null","","","null","43","","","","","","","","","","","","","","","",""
"","ISI","","html-keyboard-response","251","73741","0.0-1.0-390.0","0","0","90103","","26","","","75","43","k","","","","","","","","","","","","","","",""
"","S2","","html-keyboard-response","252","73998","0.0-1.0-391.0","0","0","90103","","null","","","null","43","","NaN","","","","","","","","","","","","","",""
"","response","","html-keyboard-response","253","74391","0.0-1.0-392.0-0.0","0","0","90103","","392","","","75","43","","","4","43","test","non_adjacent","DA","4","1","N.jpg","P.jpg","1","0","0","",""
"","feedback","","html-keyboard-response","254","74493","0.0-1.0-393.0-0.0","0","0","90103","","null","","","null","43","","","","","","","","","","","","","","","",""
"","time_out","","html-keyboard-response","255","74595","0.0-1.0-395.0-0.0","0","0","90103","","null","","","null","43","","","","","","","","","","","","","","","",""
"","ITI","","html-keyboard-response","256","75099","0.0-1.0-396.0","0","0","90103","","175","","","75","43","","","","","","","","","","","","","","","k",""
"","S1","","html-keyboard-response","257","75353","0.0-1.0-398.0","0","0","90103","","null","","","null","44","","","","","","","","","","","","","","","",""
"","ISI","","html-keyboard-response","258","75454","0.0-1.0-399.0","0","0","90103","","12","","","75","44","k","","","","","","","","","","","","","","",""
"","S2","","html-keyboard-response","259","75538","0.0-1.0-400.0","0","0","90103","","82","","","75","44","","k","4","44","test","non_adjacent","GC","7","3","O.jpg","L.jpg","1","0","0","",""
"","feedback","","html-keyboard-response","260","75640","0.0-1.0-402.0-0.0","0","0","90103","","null","","","null","44","","","","","","","","","","","","","","","",""
"","time_out","","html-keyboard-response","261","75742","0.0-1.0-404.0-0.0","0","0","90103","","null","","","null","44","","","","","","","","","","","","","","","",""
"","ITI","","html-keyboard-response","262","76248","0.0-1.0-405.0","0","0","90103","","159","","","75","44","","","","","","","","","","","","","","","k",""
"","S1","","html-keyboard-response","263","76500","0.0-1.0-407.0","0","0","90103","","null","","","null","45","","","","","","","","","","","","","","","",""
"","ISI","","html-keyboard-response","264","76606","0.0-1.0-408.0","0","0","90103","","null","","","null","45","NaN","","","","","","","","","","","","","","",""
"","S2","","html-keyboard-response","265","76671","0.0-1.0-409.0","0","0","90103","","63","","","75","45","","k","4","45","test","adjacent","BA","2","1","R.jpg","P.jpg","1","0","0","",""
"","feedback","","html-keyboard-response","266","76777","0.0-1.0-411.0-0.0","0","0","90103","","null","","","null","45","","","","","","","","","","","","","","","",""
"","time_out","","html-keyboard-response","267","76879","0.0-1.0-413.0-0.0","0","0","90103","","null","","","null","45","","","","","","","","","","","","","","","",""
"","ITI","","html-keyboard-response","268","77384","0.0-1.0-414.0","0","0","90103","","152","","","75","45","","","","","","","","","","","","","","","k",""
"","S1","","html-keyboard-response","269","77641","0.0-1.0-416.0","0","0","90103","","null","","","null","46","","","","","","","","","","","","","","","",""
"","ISI","","html-keyboard-response","270","77747","0.0-1.0-417.0","0","0","90103","","null","","","null","46","NaN","","","","","","","","","","","","","","",""
"","S2","","html-keyboard-response","271","77777","0.0-1.0-418.0","0","0","90103","","29","","","75","46","","k","4","46","test","non_adjacent","CA","3","1","L.jpg","P.jpg","1","0","0","",""
"","feedback","","html-keyboard-response","272","77883","0.0-1.0-420.0-0.0","0","0","90103","","null","","","null","46","","","","","","","","","","","","","","","",""
"","time_out","","html-keyboard-response","273","77987","0.0-1.0-422.0-0.0","0","0","90103","","null","","","null","46","","","","","","","","","","","","","","","",""
"","ITI","","html-keyboard-response","274","78494","0.0-1.0-423.0","0","0","90103","","153","","","75","46","","","","","","","","","","","","","","","k",""
"","S1","","html-keyboard-response","275","78750","0.0-1.0-425.0","0","0","90103","","null","","","null","47","","","","","","","","","","","","","","","",""
"","ISI","","html-keyboard-response","276","78857","0.0-1.0-426.0","0","0","90103","","null","","","null","47","NaN","","","","","","","","","","","","","","",""
"","S2","","html-keyboard-response","277","78883","0.0-1.0-427.0","0","0","90103","","24","","","75","47","","k","4","47","test","non_adjacent","BD","2","4","R.jpg","N.jpg","1","1","1","",""
"","feedback","","html-keyboard-response","278","78986","0.0-1.0-429.0-0.0","0","0","90103","","null","","","null","47","","","","","","","","","","","","","","","",""
"","ITI","","html-keyboard-response","279","79491","0.0-1.0-432.0","0","0","90103","","80","","","75","47","","","","","","","","","","","","","","","k",""
"","S1","","html-keyboard-response","280","79746","0.0-1.0-434.0","0","0","90103","","null","","","null","48","","","","","","","","","","","","","","","",""
"","ISI","","html-keyboard-response","281","79848","0.0-1.0-435.0","0","0","90103","","97","","","75","48","k","","","","","","","","","","","","","","",""
"","S2","","html-keyboard-response","282","80039","0.0-1.0-436.0","0","0","90103","","189","","","75","48","","k","4","48","test","adjacent","CD","3","4","L.jpg","N.jpg","1","1","1","",""
"","feedback","","html-keyboard-response","283","80142","0.0-1.0-438.0-0.0","0","0","90103","","null","","","null","48","","","","","","","","","","","","","","","",""
"","ITI","","html-keyboard-response","284","80649","0.0-1.0-441.0","0","0","90103","","107","","","75","48","","","","","","","","","","","","","","","k",""
"","S1","","html-keyboard-response","285","80904","0.0-1.0-443.0","0","0","90103","","null","","","null","49","","","","","","","","","","","","","","","",""
"","ISI","","html-keyboard-response","286","81008","0.0-1.0-444.0","0","0","90103","","null","","","null","49","NaN","","","","","","","","","","","","","","",""
"","S2","","html-keyboard-response","287","81057","0.0-1.0-445.0","0","0","90103","","47","","","75","49","","k","4","49","test","non_adjacent","FC","6","3","M.jpg","L.jpg","1","0","0","",""
"","feedback","","html-keyboard-response","288","81160","0.0-1.0-447.0-0.0","0","0","90103","","null","","","null","49","","","","","","","","","","","","","","","",""
"","time_out","","html-keyboard-response","289","81261","0.0-1.0-449.0-0.0","0","0","90103","","null","","","null","49","","","","","","","","","","","","","","","",""
"","ITI","","html-keyboard-response","290","81763","0.0-1.0-450.0","0","0","90103","","208","","","75","49","","","","","","","","","","","","","","","k",""
"","S1","","html-keyboard-response","291","82018","0.0-1.0-452.0","0","0","90103","","null","","","null","50","","","","","","","","","","","","","","","",""
"","ISI","","html-keyboard-response","292","82121","0.0-1.0-453.0","0","0","90103","","64","","","75","50","k","","","","","","","","","","","","","","",""
"","S2","","html-keyboard-response","293","82291","0.0-1.0-454.0","0","0","90103","","168","","","75","50","","k","4","50","test","non_adjacent","GA","7","1","O.jpg","P.jpg","1","0","0","",""
"","feedback","","html-keyboard-response","294","82393","0.0-1.0-456.0-0.0","0","0","90103","","null","","","null","50","","","","","","","","","","","","","","","",""
"","time_out","","html-keyboard-response","295","82499","0.0-1.0-458.0-0.0","0","0","90103","","null","","","null","50","","","","","","","","","","","","","","","",""
"","ITI","","html-keyboard-response","296","83003","0.0-1.0-459.0","0","0","90103","","3","","","75","50","","","","","","","","","","","","","","","k",""
"","S1","","html-keyboard-response","297","83259","0.0-1.0-461.0","0","0","90103","","null","","","null","51","","","","","","","","","","","","","","","",""
"","ISI","","html-keyboard-response","298","83362","0.0-1.0-462.0","0","0","90103","","89","","","75","51","k","","","","","","","","","","","","","","",""
"","S2","","html-keyboard-response","299","83571","0.0-1.0-463.0","0","0","90103","","207","","","75","51","","k","4","51","test","non_adjacent","EA","5","1","Q.jpg","P.jpg","1","0","0","",""
"","feedback","","html-keyboard-response","300","83673","0.0-1.0-465.0-0.0","0","0","90103","","null","","","null","51","","","","","","","","","","","","","","","",""
"","time_out","","html-keyboard-response","301","83779","0.0-1.0-467.0-0.0","0","0","90103","","null","","","null","51","","","","","","","","","","","","","","","",""
"","ITI","","html-keyboard-response","302","84286","0.0-1.0-468.0","0","0","90103","","13","","","75","51","","","","","","","","","","","","","","","k",""
"","S1","","html-keyboard-response","303","84542","0.0-1.0-470.0","0","0","90103","","null","","","null","52","","","","","","","","","","","","","","","",""
"","ISI","","html-keyboard-response","304","84644","0.0-1.0-471.0","0","0","90103","","null","","","null","52","NaN","","","","","","","","","","","","","","",""
"","S2","","html-keyboard-response","305","84672","0.0-1.0-472.0","0","0","90103","","26","","","75","52","","k","4","52","test","non_adjacent","AC","1","3","P.jpg","L.jpg","1","1","1","",""
"","feedback","","html-keyboard-response","306","84773","0.0-1.0-474.0-0.0","0","0","90103","","null","","","null","52","","","","","","","","","","","","","","","",""
"","ITI","","html-keyboard-response","307","85279","0.0-1.0-477.0","0","0","90103","","115","","","75","52","","","","","","","","","","","","","","","k",""
"","S1","","html-keyboard-response","308","85533","0.0-1.0-479.0","0","0","90103","","null","","","null","53","","","","","","","","","","","","","","","",""
"","ISI","","html-keyboard-response","309","85638","0.0-1.0-480.0","0","0","90103","","26","","","75","53","k","","","","","","","","","","","","","","",""
"","S2","","html-keyboard-response","310","85778","0.0-1.0-481.0","0","0","90103","","139","","","75","53","","k","4","53","test","adjacent","CB","3","2","L.jpg","R.jpg","1","0","0","",""
"","feedback","","html-keyboard-response","311","85882","0.0-1.0-483.0-0.0","0","0","90103","","null","","","null","53","","","","","","","","","","","","","","","",""
"","time_out","","html-keyboard-response","312","85988","0.0-1.0-485.0-0.0","0","0","90103","","null","","","null","53","","","","","","","","","","","","","","","",""
"","ITI","","html-keyboard-response","313","86494","0.0-1.0-486.0","0","0","90103","","13","","","75","53","","","","","","","","","","","","","","","k",""
"","S1","","html-keyboard-response","314","86747","0.0-1.0-488.0","0","0","90103","","null","","","null","54","","","","","","","","","","","","","","","",""
"","ISI","","html-keyboard-response","315","86852","0.0-1.0-489.0","0","0","90103","","null","","","null","54","NaN","","","","","","","","","","","","","","",""
"","S2","","html-keyboard-response","316","86915","0.0-1.0-490.0","0","0","90103","","61","","","75","54","","k","4","54","test","non_adjacent","FA","6","1","M.jpg","P.jpg","1","0","0","",""
"","feedback","","html-keyboard-response","317","87020","0.0-1.0-492.0-0.0","0","0","90103","","null","","","null","54","","","","","","","","","","","","","","","",""
"","time_out","","html-keyboard-response","318","87123","0.0-1.0-494.0-0.0","0","0","90103","","null","","","null","54","","","","","","","","","","","","","","","",""
"","ITI","","html-keyboard-response","319","87629","0.0-1.0-495.0","0","0","90103","","24","","","75","54","","","","","","","","","","","","","","","k",""
"","S1","","html-keyboard-response","320","87886","0.0-1.0-497.0","0","0","90103","","null","","","null","55","","","","","","","","","","","","","","","",""
"","ISI","","html-keyboard-response","321","87992","0.0-1.0-498.0","0","0","90103","","null","","","null","55","NaN","","","","","","","","","","","","","","",""
"","S2","","html-keyboard-response","322","87997","0.0-1.0-499.0","0","0","90103","","2","","","75","55","","k","4","55","test","adjacent","BC","2","3","R.jpg","L.jpg","1","1","1","",""
"","feedback","","html-keyboard-response","323","88100","0.0-1.0-501.0-0.0","0","0","90103","","null","","","null","55","","","","","","","","","","","","","","","",""
"","ITI","","html-keyboard-response","324","88604","0.0-1.0-504.0","0","0","90103","","157","","","75","55","","","","","","","","","","","","","","","k",""
"","S1","","html-keyboard-response","325","88857","0.0-1.0-506.0","0","0","90103","","null","","","null","56","","","","","","","","","","","","","","","",""
"","ISI","","html-keyboard-response","326","88964","0.0-1.0-507.0","0","0","90103","","null","","","null","56","NaN","","","","","","","","","","","","","","",""
"","S2","","html-keyboard-response","327","88987","0.0-1.0-508.0","0","0","90103","","22","","","75","56","","k","4","56","test","adjacent","DC","4","3","N.jpg","L.jpg","1","0","0","",""
"","feedback","","html-keyboard-response","328","89090","0.0-1.0-510.0-0.0","0","0","90103","","null","","","null","56","","","","","","","","","","","","","","","",""
"","time_out","","html-keyboard-response","329","89192","0.0-1.0-512.0-0.0","0","0","90103","","null","","","null","56","","","","","","","","","","","","","","","",""
"","ITI","","html-keyboard-response","330","89697","0.0-1.0-513.0","0","0","90103","","247","","","75","56","","","","","","","","","","","","","","","k",""
"","block_over","","html-keyboard-response","331","91064","0.0-1.0-514.0-0.0","0","0","90103","","1365","","","32","56","","","","","","","","","","","","","","","",""
"","S1","","html-keyboard-response","332","91320","0.0-1.0-515.0","0","0","90103","","null","","","null","57","","","","","","","","","","","","","","","",""
"","ISI","","html-keyboard-response","333","91421","0.0-1.0-516.0","0","0","90103","","31","","","75","57","k","","","","","","","","","","","","","","",""
"","S2","","html-keyboard-response","334","91604","0.0-1.0-517.0","0","0","90103","","181","","","75","57","","k","5","57","test","non_adjacent","BF","2","6","R.jpg","M.jpg","1","1","1","",""
"","feedback","","html-keyboard-response","335","91706","0.0-1.0-519.0-0.0","0","0","90103","","null","","","null","57","","","","","","","","","","","","","","","",""
"","ITI","","html-keyboard-response","336","92211","0.0-1.0-522.0","0","0","90103","","108","","","75","57","","","","","","","","","","","","","","","k",""
"","S1","","html-keyboard-response","337","92468","0.0-1.0-524.0","0","0","90103","","null","","","null","58","","","","","","","","","","","","","","","",""
"","ISI","","html-keyboard-response","338","92574","0.0-1.0-525.0","0","0","90103","","73","","","75","58","k","","","","","","","","","","","","","","",""
"","S2","","html-keyboard-response","339","92713","0.0-1.0-526.0","0","0","90103","","137","","","75","58","","k","5","58","test","non_adjacent","BG","2","7","R.jpg","O.jpg","1","1","1","",""
"","feedback","","html-keyboard-response","340","92816","0.0-1.0-528.0-0.0","0","0","90103","","null","","","null","58","","","","","","","","","","","","","","","",""
"","ITI","","html-keyboard-response","341","93321","0.0-1.0-531.0","0","0","90103","","79","","","75","58","","","","","","","","","","","","","","","k",""
"","S1","","html-keyboard-response","342","93577","0.0-1.0-533.0","0","0","90103","","null","","","null","59","","","","","","","","","","","","","","","",""
"","ISI","","html-keyboard-response","343","93684","0.0-1.0-534.0","0","0","90103","","54","","","75","59","k","","","","","","","","","","","","","","",""
"","S2","","html-keyboard-response","344","93827","0.0-1.0-535.0","0","0","90103","","139","","","75","59","","k","5","59","test","non_adjacent","DG","4","7","N.jpg","O.jpg","1","1","1","",""
"","feedback","","html-keyboard-response","345","93931","0.0-1.0-537.0-0.0","0","0","90103","","null","","","null","59","","","","","","","","","","","","","","","",""
"","ITI","","html-keyboard-response","346","94435","0.0-1.0-540.0","0","0","90103","","83","","","75","59","","","","","","","","","","","","","","","k",""
"","S1","","html-keyboard-response","347","94687","0.0-1.0-542.0","0","0","90103","","null","","","null","60","","","","","","","","","","","","","","","",""
"","ISI","","html-keyboard-response","348","94789","0.0-1.0-543.0","0","0","90103","","97","","","75","60","k","","","","","","","","","","","","","","",""
"","S2","","html-keyboard-response","349","94982","0.0-1.0-544.0","0","0","90103","","191","","","75","60","","k","5","60","test","adjacent","ED","5","4","Q.jpg","N.jpg","1","0","0","",""
"","feedback","","html-keyboard-response","350","95086","0.0-1.0-546.0-0.0","0","0","90103","","null","","","null","60","","","","","","","","","","","","","","","",""
"","time_out","","html-keyboard-response","351","95192","0.0-1.0-548.0-0.0","0","0","90103","","null","","","null","60","","","","","","","","","","","","","","","",""
"","ITI","","html-keyboard-response","352","95694","0.0-1.0-549.0","0","0","90103","","183","","","75","60","","","","","","","","","","","","","","","k",""
"","S1","","html-keyboard-response","353","95949","0.0-1.0-551.0","0","0","90103","","null","","","null","61","","","","","","","","","","","","","","","",""
"","ISI","","html-keyboard-response","354","96052","0.0-1.0-552.0","0","0","90103","","null","","","null","61","NaN","","","","","","","","","","","","","","",""
"","S2","","html-keyboard-response","355","96139","0.0-1.0-553.0","0","0","90103","","86","","","75","61","","k","5","61","test","non_adjacent","CG","3","7","L.jpg","O.jpg","1","1","1","",""
"","feedback","","html-keyboard-response","356","96241","0.0-1.0-555.0-0.0","0","0","90103","","null","","","null","61","","","","","","","","","","","","","","","",""
"","ITI","","html-keyboard-response","357","96745","0.0-1.0-558.0","0","0","90103","","95","","","75","61","","","","","","","","","","","","","","","k",""
"","S1","","html-keyboard-response","358","97001","0.0-1.0-560.0","0","0","90103","","null","","","null","62","","","","","","","","","","","","","","","",""
"","ISI","","html-keyboard-response","359","97106","0.0-1.0-561.0","0","0","90103","","null","","","null","62","NaN","","","","","","","","","","","","","","",""
"","S2","","html-keyboard-response","360","97183","0.0-1.0-562.0","0","0","90103","","75","","","75","62","","k","5","62","test","non_adjacent","CF","3","6","L.jpg","M.jpg","1","1","1","",""
"","feedback","","html-keyboard-response","361","97287","0.0-1.0-564.0-0.0","0","0","90103","","null","","","null","62","","","","","","","","","","","","","","","",""
"","ITI","","html-keyboard-response","362","97790","0.0-1.0-567.0","0","0","90103","","86","","","75","62","","","","","","","","","","","","","","","k",""
"","S1","","html-keyboard-response","363","98046","0.0-1.0-569.0","0","0","90103","","null","","","null","63","","","","","","","","","","","","","","","",""
"","ISI","","html-keyboard-response","364","98152","0.0-1.0-570.0","0","0","90103","","null","","","null","63","NaN","","","","","","","","","","","","","","",""
"","S2","","html-keyboard-response","365","98202","0.0-1.0-571.0","0","0","90103","","48","","","75","63","","k","5","63","test","non_adjacent","AE","1","5","P.jpg","Q.jpg","1","1","1","",""
"","feedback","","html-keyboard-response","366","98305","0.0-1.0-573.0-0.0","0","0","90103","","null","","","null","63","","","","","","","","","","","","","","","",""
"","ITI","","html-keyboard-response","367","98809","0.0-1.0-576.0","0","0","90103","","99","","","75","63","","","","","","","","","","","","","","","k",""
"","S1","","html-keyboard-response","368","99065","0.0-1.0-578.0","0","0","90103","","null","","","null","64","","","","","","","","","","","","","","","",""
"","ISI","","html-keyboard-response","369","99171","0.0-1.0-579.0","0","0","90103","","null","","","null","64","NaN","","","","","","","","","","","","","","",""
"","S2","","html-keyboard-response","370","99428","0.0-1.0-580.0","0","0","90103","","null","","","null","64","","NaN","","","","","","","","","","","","","",""
"","response","","html-keyboard-response","371","99454","0.0-1.0-581.0-0.0","0","0","90103","","25","","","75","64","","","5","64","test","non_adjacent","BE","2","5","R.jpg","Q.jpg","1","1","1","",""
"","feedback","","html-keyboard-response","372","99561","0.0-1.0-582.0-0.0","0","0","90103","","null","","","null","64","","","","","","","","","","","","","","","",""
"","ITI","","html-keyboard-response","373","100068","0.0-1.0-585.0","0","0","90103","","124","","","75","64","","","","","","","","","","","","","","","k",""
"","S1","","html-keyboard-response","374","100324","0.0-1.0-587.0","0","0","90103","","null","","","null","65","","","","","","","","","","","","","","","",""
"","ISI","","html-keyboard-response","375","100430","0.0-1.0-588.0","0","0","90103","","null","","","null","65","NaN","","","","","","","","","","","","","","",""
"","S2","","html-keyboard-response","376","100467","0.0-1.0-589.0","0","0","90103","","34","","","75","65","","k","5","65","test","non_adjacent","CE","3","5","L.jpg","Q.jpg","1","1","1","",""
"","feedback","","html-keyboard-response","377","100570","0.0-1.0-591.0-0.0","0","0","90103","","null","","","null","65","","","","","","","","","","","","","","","",""
"","ITI","","html-keyboard-response","378","101076","0.0-1.0-594.0","0","0","90103","","88","","","75","65","","","","","","","","","","","","","","","k",""
"","S1","","html-keyboard-response","379","101331","0.0-1.0-596.0","0","0","90103","","null","","","null","66","","","","","","","","","","","","","","","",""
"","ISI","","html-keyboard-response","380","101438","0.0-1.0-597.0","0","0","90103","","null","","","null","66","NaN","","","","","","","","","","","","","","",""
"","S2","","html-keyboard-response","381","101477","0.0-1.0-598.0","0","0","90103","","37","","","75","66","","k","5","66","test","non_adjacent","AG","1","7","P.jpg","O.jpg","1","1","1","",""
"","feedback","","html-keyboard-response","382","101579","0.0-1.0-600.0-0.0","0","0","90103","","null","","","null","66","","","","","","","","","","","","","","","",""
"","ITI","","html-keyboard-response","383","102084","0.0-1.0-603.0","0","0","90103","","119","","","75","66","","","","","","","","","","","","","","","k",""
"","S1","","html-keyboard-response","384","102340","0.0-1.0-605.0","0","0","90103","","null","","","null","67","","","","","","","","","","","","","","","",""
"","ISI","","html-keyboard-response","385","102446","0.0-1.0-606.0","0","0","90103","","41","","","75","67","k","","","","","","","","","","","","","","",""
"","S2","","html-keyboard-response","386","102621","0.0-1.0-607.0","0","0","90103","","173","","","75","67","","k","5","67","test","adjacent","FG","6","7","M.jpg","O.jpg","1","1","1","",""
"","feedback","","html-keyboard-response","387","102727","0.0-1.0-609.0-0.0","0","0","90103","","null","","","null","67","","","","","","","","","","","","","","","",""
"","ITI","","html-keyboard-response","388","103229","0.0-1.0-612.0","0","0","90103","","393","","","75","67","","","","","","","","","","","","","","","k",""
"","S1","","html-keyboard-response","389","103481","0.0-1.0-614.0","0","0","90103","","null","","","null","68","","","","","","","","","","","","","","","",""
"","ISI","","html-keyboard-response","390","103583","0.0-1.0-615.0","0","0","90103","","null","","","null","68","NaN","","","","","","","","","","","","","","",""
"","S2","","html-keyboard-response","391","103715","0.0-1.0-616.0","0","0","90103","","130","","","75","68","","k","5","68","test","non_adjacent","GD","7","4","O.jpg","N.jpg","1","0","0","",""
"","feedback","","html-keyboard-response","392","103817","0.0-1.0-618.0-0.0","0","0","90103","","null","","","null","68","","","","","","","","","","","","","","","",""
"","time_out","","html-keyboard-response","393","103924","0.0-1.0-620.0-0.0","0","0","90103","","null","","","null","68","","","","","","","","","","","","","","","",""
"","ITI","","html-keyboard-response","394","104430","0.0-1.0-621.0","0","0","90103","","10","","","75","68","","","","","","","","","","","","","","","k",""
"","S1","","html-keyboard-response","395","104686","0.0-1.0-623.0","0","0","90103","","null","","","null","69","","","","","","","","","","","","","","","",""
"","ISI","","html-keyboard-response","396","104793","0.0-1.0-624.0","0","0","90103","","null","","","null","69","NaN","","","","","","","","","","","","","","",""
"","S2","","html-keyboard-response","397","104838","0.0-1.0-625.0","0","0","90103","","43","","","75","69","","k","5","69","test","non_adjacent","EG","5","7","Q.jpg","O.jpg","1","1","1","",""
"","feedback","","html-keyboard-response","398","104941","0.0-1.0-627.0-0.0","0","0","90103","","null","","","null","69","","","","","","","","","","","","","","","",""
"","ITI","","html-keyboard-response","399","105444","0.0-1.0-630.0","0","0","90103","","109","","","75","69","","","","","","","","","","","","","","","k",""
"","S1","","html-keyboard-response","400","105700","0.0-1.0-632.0","0","0","90103","","null","","","null","70","","","","","","","","","","","","","","","",""
"","ISI","","html-keyboard-response","401","105806","0.0-1.0-633.0","0","0","90103","","null","","","null","70","NaN","","","","","","","","","","","","","","",""
"","S2","","html-keyboard-response","402","105818","0.0-1.0-634.0","0","0","90103","","11","","","75","70","","k","5","70","test","adjacent","EF","5","6","Q.jpg","M.jpg","1","1","1","",""
"","feedback","","html-keyboard-response","403","105922","0.0-1.0-636.0-0.0","0","0","90103","","null","","","null","70","","","","","","","","","","","","","","","",""
"","ITI","","html-keyboard-response","404","106430","0.0-1.0-639.0","0","0","90103","","223","","","75","70","","","","","","","","","","","","","","","k",""
"","S1","","html-keyboard-response","405","106682","0.0-1.0-641.0","0","0","90103","","null","","","null","71","","","","","","","","","","","","","","","",""
"","ISI","","html-keyboard-response","406","106784","0.0-1.0-642.0","0","0","90103","","null","","","null","71","NaN","","","","","","","","","","","","","","",""
"","S2","","html-keyboard-response","407","106887","0.0-1.0-643.0","0","0","90103","","101","","","75","71","","k","5","71","test","adjacent","GF","7","6","O.jpg","M.jpg","1","0","0","",""
"","feedback","","html-keyboard-response","408","106991","0.0-1.0-645.0-0.0","0","0","90103","","null","","","null","71","","","","","","","","","","","","","","","",""
"","time_out","","html-keyboard-response","409","107097","0.0-1.0-647.0-0.0","0","0","90103","","null","","","null","71","","","","","","","","","","","","","","","",""
"","ITI","","html-keyboard-response","410","107599","0.0-1.0-648.0","0","0","90103","","224","","","75","71","","","","","","","","","","","","","","","k",""
"","S1","","html-keyboard-response","411","107854","0.0-1.0-650.0","0","0","90103","","null","","","null","72","","","","","","","","","","","","","","","",""
"","ISI","","html-keyboard-response","412","107960","0.0-1.0-651.0","0","0","90103","","13","","","75","72","k","","","","","","","","","","","","","","",""
"","S2","","html-keyboard-response","413","108089","0.0-1.0-652.0","0","0","90103","","127","","","75","72","","k","5","72","test","non_adjacent","GE","7","5","O.jpg","Q.jpg","1","0","0","",""
"","feedback","","html-keyboard-response","414","108191","0.0-1.0-654.0-0.0","0","0","90103","","null","","","null","72","","","","","","","","","","","","","","","",""
"","time_out","","html-keyboard-response","415","108296","0.0-1.0-656.0-0.0","0","0","90103","","null","","","null","72","","","","","","","","","","","","","","","",""
"","ITI","","html-keyboard-response","416","108799","0.0-1.0-657.0","0","0","90103","","8","","","75","72","","","","","","","","","","","","","","","k",""
"","S1","","html-keyboard-response","417","109055","0.0-1.0-659.0","0","0","90103","","null","","","null","73","","","","","","","","","","","","","","","",""
"","ISI","","html-keyboard-response","418","109157","0.0-1.0-660.0","0","0","90103","","99","","","75","73","k","","","","","","","","","","","","","","",""
"","S2","","html-keyboard-response","419","109373","0.0-1.0-661.0","0","0","90103","","216","","","75","73","","k","5","73","test","adjacent","DE","4","5","N.jpg","Q.jpg","1","1","1","",""
"","feedback","","html-keyboard-response","420","109476","0.0-1.0-663.0-0.0","0","0","90103","","null","","","null","73","","","","","","","","","","","","","","","",""
"","ITI","","html-keyboard-response","421","109982","0.0-1.0-666.0","0","0","90103","","75","","","75","73","","","","","","","","","","","","","","","k",""
"","S1","","html-keyboard-response","422","110237","0.0-1.0-668.0","0","0","90103","","null","","","null","74","","","","","","","","","","","","","","","",""
"","ISI","","html-keyboard-response","423","110340","0.0-1.0-669.0","0","0","90103","","null","","","null","74","NaN","","","","","","","","","","","","","","",""
"","S2","","html-keyboard-response","424","110502","0.0-1.0-670.0","0","0","90103","","160","","","75","74","","k","5","74","test","non_adjacent","FD","6","4","M.jpg","N.jpg","1","0","0","",""
"","feedback","","html-keyboard-response","425","110605","0.0-1.0-672.0-0.0","0","0","90103","","null","","","null","74","","","","","","","","","","","","","","","",""
"","time_out","","html-keyboard-response","426","110708","0.0-1.0-674.0-0.0","0","0","90103","","null","","","null","74","","","","","","","","","","","","","","","",""
"","ITI","","html-keyboard-response","427","111215","0.0-1.0-675.0","0","0","90103","","25","","","75","74","","","","","","","","","","","","","","","k",""
"","S1","","html-keyboard-response","428","111470","0.0-1.0-677.0","0","0","90103","","null","","","null","75","","","","","","","","","","","","","","","",""
"","ISI","","html-keyboard-response","429","111575","0.0-1.0-678.0","0","0","90103","","32","","","75","75","k","","","","","","","","","","","","","","",""
"","S2","","html-keyboard-response","430","111728","0.0-1.0-679.0","0","0","90103","","150","","","75","75","","k","5","75","test","non_adjacent","DF","4","6","N.jpg","M.jpg","1","1","1","",""
"","feedback","","html-keyboard-response","431","111831","0.0-1.0-681.0-0.0","0","0","90103","","null","","","null","75","","","","","","","","","","","","","","","",""
"","ITI","","html-keyboard-response","432","112334","0.0-1.0-684.0","0","0","90103","","null","","","null","75","","","","","","","","","","","","","","","NaN",""
"","S1","","html-keyboard-response","433","112591","0.0-1.0-686.0","0","0","90103","","null","","","null","76","","","","","","","","","","","","","","","",""
"","ISI","","html-keyboard-response","434","112697","0.0-1.0-687.0","0","0","90103","","null","","","null","76","NaN","","","","","","","","","","","","","","",""
"","S2","","html-keyboard-response","435","112732","0.0-1.0-688.0","0","0","90103","","32","","","75","76","","k","5","76","test","adjacent","FE","6","5","M.jpg","Q.jpg","1","0","0","",""
"","feedback","","html-keyboard-response","436","112836","0.0-1.0-690.0-0.0","0","0","90103","","null","","","null","76","","","","","","","","","","","","","","","",""
"","time_out","","html-keyboard-response","437","112938","0.0-1.0-692.0-0.0","0","0","90103","","null","","","null","76","","","","","","","","","","","","","","","",""
"","ITI","","html-keyboard-response","438","113440","0.0-1.0-693.0","0","0","90103","","187","","","75","76","","","","","","","","","","","","","","","k",""
"","S1","","html-keyboard-response","439","113696","0.0-1.0-695.0","0","0","90103","","null","","","null","77","","","","","","","","","","","","","","","",""
"","ISI","","html-keyboard-response","440","113801","0.0-1.0-696.0","0","0","90103","","null","","","null","77","NaN","","","","","","","","","","","","","","",""
"","S2","","html-keyboard-response","441","113879","0.0-1.0-697.0","0","0","90103","","76","","","75","77","","k","5","77","test","non_adjacent","AF","1","6","P.jpg","M.jpg","1","1","1","",""
"","feedback","","html-keyboard-response","442","113982","0.0-1.0-699.0-0.0","0","0","90103","","null","","","null","77","","","","","","","","","","","","","","","",""
"","ITI","","html-keyboard-response","443","114487","0.0-1.0-702.0","0","0","90103","","100","","","75","77","","","","","","","","","","","","","","","k",""
"","block_over","","html-keyboard-response","444","115443","0.0-1.0-703.0-0.0","0","0","90103","","954","","","32","77","","","","","","","","","","","","","","","",""
"","S1","","html-keyboard-response","445","115695","0.0-1.0-704.0","0","0","90103","","null","","","null","78","","","","","","","","","","","","","","","",""
"","ISI","","html-keyboard-response","446","115801","0.0-1.0-705.0","0","0","90103","","45","","","75","78","k","","","","","","","","","","","","","","",""
"","S2","","html-keyboard-response","447","115954","0.0-1.0-706.0","0","0","90103","","150","","","75","78","","k","6","78","test","non_adjacent","EC","5","3","Q.jpg","L.jpg","1","0","0","",""
"","feedback","","html-keyboard-response","448","116056","0.0-1.0-708.0-0.0","0","0","90103","","null","","","null","78","","","","","","","","","","","","","","","",""
"","time_out","","html-keyboard-response","449","116158","0.0-1.0-710.0-0.0","0","0","90103","","null","","","null","78","","","","","","","","","","","","","","","",""
"","ITI","","html-keyboard-response","450","116660","0.0-1.0-711.0","0","0","90103","","250","","","75","78","","","","","","","","","","","","","","","k",""
"","S1","","html-keyboard-response","451","116912","0.0-1.0-713.0","0","0","90103","","null","","","null","79","","","","","","","","","","","","","","","",""
"","ISI","","html-keyboard-response","452","117017","0.0-1.0-714.0","0","0","90103","","74","","","75","79","k","","","","","","","","","","","","","","",""
"","S2","","html-keyboard-response","453","117165","0.0-1.0-715.0","0","0","90103","","147","","","75","79","","k","6","79","test","non_adjacent","AC","1","3","P.jpg","L.jpg","1","1","1","",""
"","feedback","","html-keyboard-response","454","117268","0.0-1.0-717.0-0.0","0","0","90103","","null","","","null","79","","","","","","","","","","","","","","","",""
"","ITI","","html-keyboard-response","455","117774","0.0-1.0-720.0","0","0","90103","","152","","","75","79","","","","","","","","","","","","","","","k",""
"","S1","","html-keyboard-response","456","118030","0.0-1.0-722.0","0","0","90103","","null","","","null","80","","","","","","","","","","","","","","","",""
"","ISI","","html-keyboard-response","457","118137","0.0-1.0-723.0","0","0","90103","","null","","","null","80","NaN","","","","","","","","","","","","","","",""
"","S2","","html-keyboard-response","458","118231","0.0-1.0-724.0","0","0","90103","","92","","","75","80","","k","6","80","test","adjacent","AB","1","2","P.jpg","R.jpg","1","1","1","",""
"","feedback","","html-keyboard-response","459","118335","0.0-1.0-726.0-0.0","0","0","90103","","null","","","null","80","","","","","","","","","","","","","","","",""
"","ITI","","html-keyboard-response","460","118841","0.0-1.0-729.0","0","0","90103","","98","","","75","80","","","","","","","","","","","","","","","k",""
"","S1","","html-keyboard-response","461","119097","0.0-1.0-731.0","0","0","90103","","null","","","null","81","","","","","","","","","","","","","","","",""
"","ISI","","html-keyboard-response","462","119204","0.0-1.0-732.0","0","0","90103","","54","","","75","81","k","","","","","","","","","","","","","","",""
"","S2","","html-keyboard-response","463","119334","0.0-1.0-733.0","0","0","90103","","129","","","75","81","","k","6","81","test","adjacent","CB","3","2","L.jpg","R.jpg","1","0","0","",""
"","feedback","","html-keyboard-response","464","119439","0.0-1.0-735.0-0.0","0","0","90103","","null","","","null","81","","","","","","","","","","","","","","","",""
"","time_out","","html-keyboard-response","465","119545","0.0-1.0-737.0-0.0","0","0","90103","","null","","","null","81","","","","","","","","","","","","","","","",""
"","ITI","","html-keyboard-response","466","120052","0.0-1.0-738.0","0","0","90103","","156","","","75","81","","","","","","","","","","","","","","","k",""
"","S1","","html-keyboard-response","467","120306","0.0-1.0-740.0","0","0","90103","","null","","","null","82","","","","","","","","","","","","","","","",""
"","ISI","","html-keyboard-response","468","120407","0.0-1.0-741.0","0","0","90103","","5","","","75","82","k","","","","","","","","","","","","","","",""
"","S2","","html-keyboard-response","469","120514","0.0-1.0-742.0","0","0","90103","","107","","","75","82","","k","6","82","test","adjacent","BC","2","3","R.jpg","L.jpg","1","1","1","",""
"","feedback","","html-keyboard-response","470","120616","0.0-1.0-744.0-0.0","0","0","90103","","null","","","null","82","","","","","","","","","","","","","","","",""
"","ITI","","html-keyboard-response","471","121118","0.0-1.0-747.0","0","0","90103","","78","","","75","82","","","","","","","","","","","","","","","k",""
"","S1","","html-keyboard-response","472","121374","0.0-1.0-749.0","0","0","90103","","null","","","null","83","","","","","","","","","","","","","","","",""
"","ISI","","html-keyboard-response","473","121478","0.0-1.0-750.0","0","0","90103","","null","","","null","83","NaN","","","","","","","","","","","","","","",""
"","S2","","html-keyboard-response","474","121505","0.0-1.0-751.0","0","0","90103","","26","","","75","83","","k","6","83","test","adjacent","CD","3","4","L.jpg","N.jpg","1","1","1","",""
"","feedback","","html-keyboard-response","475","121610","0.0-1.0-753.0-0.0","0","0","90103","","null","","","null","83","","","","","","","","","","","","","","","",""
"","ITI","","html-keyboard-response","476","122116","0.0-1.0-756.0","0","0","90103","","68","","","75","83","","","","","","","","","","","","","","","k",""
"","S1","","html-keyboard-response","477","122369","0.0-1.0-758.0","0","0","90103","","null","","","null","84","","","","","","","","","","","","","","","",""
"","ISI","","html-keyboard-response","478","122473","0.0-1.0-759.0","0","0","90103","","52","","","75","84","k","","","","","","","","","","","","","","",""
"","S2","","html-keyboard-response","479","122614","0.0-1.0-760.0","0","0","90103","","140","","","75","84","","k","6","84","test","adjacent","DC","4","3","N.jpg","L.jpg","1","0","0","",""
"","feedback","","html-keyboard-response","480","122716","0.0-1.0-762.0-0.0","0","0","90103","","null","","","null","84","","","","","","","","","","","","","","","",""
"","time_out","","html-keyboard-response","481","122823","0.0-1.0-764.0-0.0","0","0","90103","","null","","","null","84","","","","","","","","","","","","","","","",""
"","ITI","","html-keyboard-response","482","123327","0.0-1.0-765.0","0","0","90103","","156","","","75","84","","","","","","","","","","","","","","","k",""
"","S1","","html-keyboard-response","483","123580","0.0-1.0-767.0","0","0","90103","","null","","","null","85","","","","","","","","","","","","","","","",""
"","ISI","","html-keyboard-response","484","123683","0.0-1.0-768.0","0","0","90103","","null","","","null","85","NaN","","","","","","","","","","","","","","",""
"","S2","","html-keyboard-response","485","123756","0.0-1.0-769.0","0","0","90103","","72","","","75","85","","k","6","85","test","non_adjacent","EB","5","2","Q.jpg","R.jpg","1","0","0","",""
"","feedback","","html-keyboard-response","486","123858","0.0-1.0-771.0-0.0","0","0","90103","","null","","","null","85","","","","","","","","","","","","","","","",""
"","time_out","","html-keyboard-response","487","123961","0.0-1.0-773.0-0.0","0","0","90103","","null","","","null","85","","","","","","","","","","","","","","","",""
"","ITI","","html-keyboard-response","488","124462","0.0-1.0-774.0","0","0","90103","","169","","","75","85","","","","","","","","","","","","","","","k",""
"","S1","","html-keyboard-response","489","124716","0.0-1.0-776.0","0","0","90103","","null","","","null","86","","","","","","","","","","","","","","","",""
"","ISI","","html-keyboard-response","490","124823","0.0-1.0-777.0","0","0","90103","","null","","","null","86","NaN","","","","","","","","","","","","","","",""
"","S2","","html-keyboard-response","491","124872","0.0-1.0-778.0","0","0","90103","","47","","","75","86","","k","6","86","test","adjacent","BA","2","1","R.jpg","P.jpg","1","0","0","",""
"","feedback","","html-keyboard-response","492","124975","0.0-1.0-780.0-0.0","0","0","90103","","null","","","null","86","","","","","","","","","","","","","","","",""
"","time_out","","html-keyboard-response","493","125077","0.0-1.0-782.0-0.0","0","0","90103","","null","","","null","86","","","","","","","","","","","","","","","",""
"","ITI","","html-keyboard-response","494","125582","0.0-1.0-783.0","0","0","90103","","177","","","75","86","","","","","","","","","","","","","","","k",""
"","S1","","html-keyboard-response","495","125839","0.0-1.0-785.0","0","0","90103","","null","","","null","87","","","","","","","","","","","","","","","",""
"","ISI","","html-keyboard-response","496","125942","0.0-1.0-786.0","0","0","90103","","82","","","75","87","k","","","","","","","","","","","","","","",""
"","S2","","html-keyboard-response","497","126142","0.0-1.0-787.0","0","0","90103","","198","","","75","87","","k","6","87","test","non_adjacent","FC","6","3","M.jpg","L.jpg","1","0","0","",""
"","feedback","","html-keyboard-response","498","126249","0.0-1.0-789.0-0.0","0","0","90103","","null","","","null","87","","","","","","","","","","","","","","","",""
"","time_out","","html-keyboard-response","499","126355","0.0-1.0-791.0-0.0","0","0","90103","","null","","","null","87","","","","","","","","","","","","","","","",""
"","ITI","","html-keyboard-response","500","126857","0.0-1.0-792.0","0","0","90103","","198","","","75","87","","","","","","","","","","","","","","","k",""
"","S1","","html-keyboard-response","501","127114","0.0-1.0-794.0","0","0","90103","","null","","","null","88","","","","","","","","","","","","","","","",""
"","ISI","","html-keyboard-response","502","127217","0.0-1.0-795.0","0","0","90103","","null","","","null","88","NaN","","","","","","","","","","","","","","",""
"","S2","","html-keyboard-response","503","127296","0.0-1.0-796.0","0","0","90103","","78","","","75","88","","k","6","88","test","non_adjacent","GB","7","2","O.jpg","R.jpg","1","0","0","",""
"","feedback","","html-keyboard-response","504","127401","0.0-1.0-798.0-0.0","0","0","90103","","null","","","null","88","","","","","","","","","","","","","","","",""
"","time_out","","html-keyboard-response","505","127508","0.0-1.0-800.0-0.0","0","0","90103","","null","","","null","88","","","","","","","","","","","","","","","",""
"","ITI","","html-keyboard-response","506","128010","0.0-1.0-801.0","0","0","90103","","173","","","75","88","","","","","","","","","","","","","","","k",""
"","S1","","html-keyboard-response","507","128265","0.0-1.0-803.0","0","0","90103","","null","","","null","89","","","","","","","","","","","","","","","",""
"","ISI","","html-keyboard-response","508","128371","0.0-1.0-804.0","0","0","90103","","82","","","75","89","k","","","","","","","","","","","","","","",""
"","S2","","html-keyboard-response","509","128555","0.0-1.0-805.0","0","0","90103","","182","","","75","89","","k","6","89","test","non_adjacent","DB","4","2","N.jpg","R.jpg","1","0","0","",""
"","feedback","","html-keyboard-response","510","128660","0.0-1.0-807.0-0.0","0","0","90103","","null","","","null","89","","","","","","","","","","","","","","","",""
"","time_out","","html-keyboard-response","511","128767","0.0-1.0-809.0-0.0","0","0","90103","","null","","","null","89","","","","","","","","","","","","","","","",""
"","ITI","","html-keyboard-response","512","129273","0.0-1.0-810.0","0","0","90103","","194","","","75","89","","","","","","","","","","","","","","","k",""
"","S1","","html-keyboard-response","513","129529","0.0-1.0-812.0","0","0","90103","","null","","","null","90","","","","","","","","","","","","","","","",""
"","ISI","","html-keyboard-response","514","129630","0.0-1.0-813.0","0","0","90103","","null","","","null","90","NaN","","","","","","","","","","","","","","",""
"","S2","","html-keyboard-response","515","129730","0.0-1.0-814.0","0","0","90103","","98","","","75","90","","k","6","90","test","non_adjacent","AD","1","4","P.jpg","N.jpg","1","1","1","",""
"","feedback","","html-keyboard-response","516","129833","0.0-1.0-816.0-0.0","0","0","90103","","null","","","null","90","","","","","","","","","","","","","","","",""
"","ITI","","html-keyboard-response","517","130338","0.0-1.0-819.0","0","0","90103","","101","","","75","90","","","","","","","","","","","","","","","k",""
"","S1","","html-keyboard-response","518","130591","0.0-1.0-821.0","0","0","90103","","null","","","null","91","","","","","","","","","","","","","","","",""
"","ISI","","html-keyboard-response","519","130697","0.0-1.0-822.0","0","0","90103","","42","","","75","91","k","","","","","","","","","","","","","","",""
"","S2","","html-keyboard-response","520","130844","0.0-1.0-823.0","0","0","90103","","145","","","75","91","","k","6","91","test","non_adjacent","CA","3","1","L.jpg","P.jpg","1","0","0","",""
"","feedback","","html-keyboard-response","521","130946","0.0-1.0-825.0-0.0","0","0","90103","","null","","","null","91","","","","","","","","","","","","","","","",""
"","time_out","","html-keyboard-response","522","131049","0.0-1.0-827.0-0.0","0","0","90103","","null","","","null","91","","","","","","","","","","","","","","","",""
"","ITI","","html-keyboard-response","523","131554","0.0-1.0-828.0","0","0","90103","","10","","","75","91","","","","","","","","","","","","","","","k",""
"","S1","","html-keyboard-response","524","131809","0.0-1.0-830.0","0","0","90103","","null","","","null","92","","","","","","","","","","","","","","","",""
"","ISI","","html-keyboard-response","525","131913","0.0-1.0-831.0","0","0","90103","","null","","","null","92","NaN","","","","","","","","","","","","","","",""
"","S2","","html-keyboard-response","526","132033","0.0-1.0-832.0","0","0","90103","","118","","","75","92","","k","6","92","test","non_adjacent","DA","4","1","N.jpg","P.jpg","1","0","0","",""
"","feedback","","html-keyboard-response","527","132136","0.0-1.0-834.0-0.0","0","0","90103","","null","","","null","92","","","","","","","","","","","","","","","",""
"","time_out","","html-keyboard-response","528","132239","0.0-1.0-836.0-0.0","0","0","90103","","null","","","null","92","","","","","","","","","","","","","","","",""
"","ITI","","html-keyboard-response","529","132744","0.0-1.0-837.0","0","0","90103","","22","","","75","92","","","","","","","","","","","","","","","k",""
"","S1","","html-keyboard-response","530","132996","0.0-1.0-839.0","0","0","90103","","null","","","null","93","","","","","","","","","","","","","","","",""
"","ISI","","html-keyboard-response","531","133103","0.0-1.0-840.0","0","0","90103","","null","","","null","93","NaN","","","","","","","","","","","","","","",""
"","S2","","html-keyboard-response","532","133139","0.0-1.0-841.0","0","0","90103","","34","","","75","93","","k","6","93","test","non_adjacent","EA","5","1","Q.jpg","P.jpg","1","0","0","",""
"","feedback","","html-keyboard-response","533","133246","0.0-1.0-843.0-0.0","0","0","90103","","null","","","null","93","","","","","","","","","","","","","","","",""
"","time_out","","html-keyboard-response","534","133352","0.0-1.0-845.0-0.0","0","0","90103","","null","","","null","93","","","","","","","","","","","","","","","",""
"","ITI","","html-keyboard-response","535","133855","0.0-1.0-846.0","0","0","90103","","186","","","75","93","","","","","","","","","","","","","","","k",""
"","S1","","html-keyboard-response","536","134111","0.0-1.0-848.0","0","0","90103","","null","","","null","94","","","","","","","","","","","","","","","",""
"","ISI","","html-keyboard-response","537","134214","0.0-1.0-849.0","0","0","90103","","95","","","75","94","k","","","","","","","","","","","","","","",""
"","S2","","html-keyboard-response","538","134435","0.0-1.0-850.0","0","0","90103","","219","","","75","94","","k","6","94","test","non_adjacent","GC","7","3","O.jpg","L.jpg","1","0","0","",""
"","feedback","","html-keyboard-response","539","134538","0.0-1.0-852.0-0.0","0","0","90103","","null","","","null","94","","","","","","","","","","","","","","","",""
"","time_out","","html-keyboard-response","540","134642","0.0-1.0-854.0-0.0","0","0","90103","","null","","","null","94","","","","","","","","","","","","","","","",""
"","ITI","","html-keyboard-response","541","135146","0.0-1.0-855.0","0","0","90103","","16","","","75","94","","","","","","","","","","","","","","","k",""
"","S1","","html-keyboard-response","542","135402","0.0-1.0-857.0","0","0","90103","","null","","","null","95","","","","","","","","","","","","","","","",""
"","ISI","","html-keyboard-response","543","135508","0.0-1.0-858.0","0","0","90103","","null","","","null","95","NaN","","","","","","","","","","","","","","",""
"","S2","","html-keyboard-response","544","135609","0.0-1.0-859.0","0","0","90103","","99","","","75","95","","k","6","95","test","non_adjacent","BD","2","4","R.jpg","N.jpg","1","1","1","",""
"","feedback","","html-keyboard-response","545","135713","0.0-1.0-861.0-0.0","0","0","90103","","null","","","null","95","","","","","","","","","","","","","","","",""
"","ITI","","html-keyboard-response","546","136217","0.0-1.0-864.0","0","0","90103","","115","","","75","95","","","","","","","","","","","","","","","k",""
"","S1","","html-keyboard-response","547","136473","0.0-1.0-866.0","0","0","90103","","null","","","null","96","","","","","","","","","","","","","","","",""
"","ISI","","html-keyboard-response","548","136575","0.0-1.0-867.0","0","0","90103","","null","","","null","96","NaN","","","","","","","","","","","","","","",""
"","S2","","html-keyboard-response","549","136659","0.0-1.0-868.0","0","0","90103","","83","","","75","96","","k","6","96","test","non_adjacent","FB","6","2","M.jpg","R.jpg","1","0","0","",""
"","feedback","","html-keyboard-response","550","136762","0.0-1.0-870.0-0.0","0","0","90103","","null","","","null","96","","","","","","","","","","","","","","","",""
"","time_out","","html-keyboard-response","551","136868","0.0-1.0-872.0-0.0","0","0","90103","","null","","","null","96","","","","","","","","","","","","","","","",""
"","ITI","","html-keyboard-response","552","137375","0.0-1.0-873.0","0","0","90103","","213","","","75","96","","","","","","","","","","","","","","","k",""
"","S1","","html-keyboard-response","553","137632","0.0-1.0-875.0","0","0","90103","","null","","","null","97","","","","","","","","","","","","","","","",""
"","ISI","","html-keyboard-response","554","137737","0.0-1.0-876.0","0","0","90103","","null","","","null","97","NaN","","","","","","","","","","","","","","",""
"","S2","","html-keyboard-response","555","137795","0.0-1.0-877.0","0","0","90103","","56","","","75","97","","k","6","97","test","non_adjacent","FA","6","1","M.jpg","P.jpg","1","0","0","",""
"","feedback","","html-keyboard-response","556","137897","0.0-1.0-879.0-0.0","0","0","90103","","null","","","null","97","","","","","","","","","","","","","","","",""
"","time_out","","html-keyboard-response","557","138001","0.0-1.0-881.0-0.0","0","0","90103","","null","","","null","97","","","","","","","","","","","","","","","",""
"","ITI","","html-keyboard-response","558","138506","0.0-1.0-882.0","0","0","90103","","10","","","75","97","","","","","","","","","","","","","","","k",""
"","S1","","html-keyboard-response","559","138763","0.0-1.0-884.0","0","0","90103","","null","","","null","98","","","","","","","","","","","","","","","",""
"","ISI","","html-keyboard-response","560","138869","0.0-1.0-885.0","0","0","90103","","null","","","null","98","NaN","","","","","","","","","","","","","","",""
"","S2","","html-keyboard-response","561","138898","0.0-1.0-886.0","0","0","90103","","27","","","75","98","","k","6","98","test","non_adjacent","GA","7","1","O.jpg","P.jpg","1","0","0","",""
"","feedback","","html-keyboard-response","562","139001","0.0-1.0-888.0-0.0","0","0","90103","","null","","","null","98","","","","","","","","","","","","","","","",""
"","time_out","","html-keyboard-response","563","139109","0.0-1.0-890.0-0.0","0","0","90103","","null","","","null","98","","","","","","","","","","","","","","","",""
"","ITI","","html-keyboard-response","564","139615","0.0-1.0-891.0","0","0","90103","","16","","","75","98","","","","","","","","","","","","","","","k",""
"","block_over","","html-keyboard-response","565","140732","0.0-1.0-892.0-0.0","0","0","90103","","1114","","","32","98","","","","","","","","","","","","","","","",""
"","S1","","html-keyboard-response","566","140986","0.0-1.0-893.0","0","0","90103","","null","","","null","99","","","","","","","","","","","","","","","",""
"","ISI","","html-keyboard-response","567","141092","0.0-1.0-894.0","0","0","90103","","61","","","75","99","k","","","","","","","","","","","","","","",""
"","S2","","html-keyboard-response","568","141289","0.0-1.0-895.0","0","0","90103","","194","","","75","99","","k","7","99","test","non_adjacent","CG","3","7","L.jpg","O.jpg","1","1","1","",""
"","feedback","","html-keyboard-response","569","141391","0.0-1.0-897.0-0.0","0","0","90103","","null","","","null","99","","","","","","","","","","","","","","","",""
"","ITI","","html-keyboard-response","570","141897","0.0-1.0-900.0","0","0","90103","","96","","","75","99","","","","","","","","","","","","","","","k",""
"","S1","","html-keyboard-response","571","142154","0.0-1.0-902.0","0","0","90103","","null","","","null","100","","","","","","","","","","","","","","","",""
"","ISI","","html-keyboard-response","572","142258","0.0-1.0-903.0","0","0","90103","","null","","","null","100","NaN","","","","","","","","","","","","","","",""
"","S2","","html-keyboard-response","573","142362","0.0-1.0-904.0","0","0","90103","","102","","","75","100","","k","7","100","test","adjacent","DE","4","5","N.jpg","Q.jpg","1","1","1","",""
"","feedback","","html-keyboard-response","574","142465","0.0-1.0-906.0-0.0","0","0","90103","","null","","","null","100","","","","","","","","","","","","","","","",""
"","ITI","","html-keyboard-response","575","142968","0.0-1.0-909.0","0","0","90103","","108","","","75","100","","","","","","","","","","","","","","","k",""
"","S1","","html-keyboard-response","576","143223","0.0-1.0-911.0","0","0","90103","","null","","","null","101","","","","","","","","","","","","","","","",""
"","ISI","","html-keyboard-response","577","143325","0.0-1.0-912.0","0","0","90103","","null","","","null","101","NaN","","","","","","","","","","","","","","",""
"","S2","","html-keyboard-response","578","143347","0.0-1.0-913.0","0","0","90103","","20","","","75","101","","k","7","101","test","non_adjacent","DG","4","7","N.jpg","O.jpg","1","1","1","",""
"","feedback","","html-keyboard-response","579","143450","0.0-1.0-915.0-0.0","0","0","90103","","null","","","null","101","","","","","","","","","","","","","","","",""
"","ITI","","html-keyboard-response","580","143953","0.0-1.0-918.0","0","0","90103","","117","","","75","101","","","","","","","","","","","","","","","k",""
"","S1","","html-keyboard-response","581","144207","0.0-1.0-920.0","0","0","90103","","null","","","null","102","","","","","","","","","","","","","","","",""
"","ISI","","html-keyboard-response","582","144309","0.0-1.0-921.0","0","0","90103","","null","","","null","102","NaN","","","","","","","","","","","","","","",""
"","S2","","html-keyboard-response","583","144324","0.0-1.0-922.0","0","0","90103","","12","","","75","102","","k","7","102","test","non_adjacent","CE","3","5","L.jpg","Q.jpg","1","1","1","",""
"","feedback","","html-keyboard-response","584","144428","0.0-1.0-924.0-0.0","0","0","90103","","null","","","null","102","","","","","","","","","","","","","","","",""
"","ITI","","html-keyboard-response","585","144932","0.0-1.0-927.0","0","0","90103","","108","","","75","102","","","","","","","","","","","","","","","k",""
"","S1","","html-keyboard-response","586","145188","0.0-1.0-929.0","0","0","90103","","null","","","null","103","","","","","","","","","","","","","","","",""
"","ISI","","html-keyboard-response","587","145292","0.0-1.0-930.0","0","0","90103","","59","","","75","103","k","","","","","","","","","","","","","","",""
"","S2","","html-keyboard-response","588","145473","0.0-1.0-931.0","0","0","90103","","179","","","75","103","","k","7","103","test","non_adjacent","FD","6","4","M.jpg","N.jpg","1","0","0","",""
"","feedback","","html-keyboard-response","589","145578","0.0-1.0-933.0-0.0","0","0","90103","","null","","","null","103","","","","","","","","","","","","","","","",""
"","time_out","","html-keyboard-response","590","145683","0.0-1.0-935.0-0.0","0","0","90103","","null","","","null","103","","","","","","","","","","","","","","","",""
"","ITI","","html-keyboard-response","591","146186","0.0-1.0-936.0","0","0","90103","","1","","","75","103","","","","","","","","","","","","","","","k",""
