"success","ttype","start_time","trial_type","trial_index","time_elapsed","internal_node_id","warning","missed_checkup","PID","view_history","rt","responses","repeat_instructions","key_press","index","keypress_isi","keypress_S2","block","trial_num","phase","group_type","pair_type","S1_stim","S2_stim","S1_img","S2_img","S1_chosen","S1_higher","accuracy","keypress_iti","total_bonus_tally"
"true","full_screen","d04062023hr1732","fullscreen","0","57968","0.0-0.0","0","0","29535","","","","","","","","","","","","","","","","","","","","","",""
"","instructions","","instructions","1","226393","0.0-1.0-0.0-0.0","0","0","29535","[{""page_index"":0,""viewing_time"":48456},{""page_index"":1,""viewing_time"":102429},{""page_index"":2,""viewing_time"":14852},{""page_index"":3,""viewing_time"":2662}]","168407","","","","","","","","","","","","","","","","","","","",""
"","comprehension_check","","survey-multi-choice","2","269691","0.0-1.0-0.0-1.0","0","0","29535","","43250","{""Q0"":""True"",""Q1"":""K"",""Q2"":""Only when the screen 'MAKE A CHOICE' is shown"",""Q3"":""Green mark"",""Q4"":""either D or K""}","1","","","","","","","","","","","","","","","","","",""
"","missed_instruction_checkup","","html-keyboard-response","3","274307","0.0-1.0-0.0-2.0-0.0","0","1","29535","","4597","","","32","","","","","","","","","","","","","","","","",""
"","instructions","","instructions","4","291851","0.0-1.0-0.1-0.1","0","0","29535","[{""page_index"":0,""viewing_time"":3826},{""page_index"":1,""viewing_time"":1835},{""page_index"":2,""viewing_time"":2045},{""page_index"":1,""viewing_time"":7534},{""page_index"":2,""viewing_time"":907},{""page_index"":3,""viewing_time"":1379}]","17528","","","","","","","","","","","","","","","","","","","",""
"","comprehension_check","","survey-multi-choice","5","305444","0.0-1.0-0.1-1.1","0","0","29535","","13546","{""Q0"":""True"",""Q1"":""K"",""Q2"":""Once the second image appears and while the screen 'MAKE A CHOICE' is shown"",""Q3"":""Green mark"",""Q4"":""either D or K""}","0","","","","","","","","","","","","","","","","","",""
"","start_exp","","html-keyboard-response","6","308457","0.0-1.0-1.0","0","0","29535","","2993","","","32","","","","","","","","","","","","","","","","",""
"","S1","","html-keyboard-response","7","308622","0.0-1.0-2.0","0","0","29535","","null","","","null","0","","","","","","","","","","","","","","","",""
"","ISI","","html-keyboard-response","8","310636","0.0-1.0-3.0","0","0","29535","","null","","","null","0","NaN","","","","","","","","","","","","","","",""
"","S2","","html-keyboard-response","9","310799","0.0-1.0-4.0","0","0","29535","","null","","","null","0","","NaN","","","","","","","","","","","","","",""
"","response","","html-keyboard-response","10","312663","0.0-1.0-5.0-0.0","0","0","29535","","null","","","null","0","","","1","0","training","adjacent","FG","6","7","P.jpg","Q.jpg","NaN","1","0","",""
"","too_slow_prompt","","html-keyboard-response","11","313679","0.0-1.0-7.0-0.0","1","0","29535","","null","","","null","","","","","","","","","","","","","","","","",""
"","time_out","","html-keyboard-response","12","315694","0.0-1.0-8.0-0.0","0","0","29535","","null","","","null","0","","","","","","","","","","","","","","","",""
"","ITI","","html-keyboard-response","13","316706","0.0-1.0-9.0","0","0","29535","","null","","","null","0","","","","","","","","","","","","","","","NaN",""
"","S1","","html-keyboard-response","14","316869","0.0-1.0-11.0","0","0","29535","","null","","","null","1","","","","","","","","","","","","","","","",""
"","ISI","","html-keyboard-response","15","318880","0.0-1.0-12.0","0","0","29535","","896","","","68","1","d","","","","","","","","","","","","","","",""
"","S2","","html-keyboard-response","16","319049","0.0-1.0-13.0","0","0","29535","","null","","","null","1","","NaN","","","","","","","","","","","","","",""
"","response","","html-keyboard-response","17","320446","0.0-1.0-14.0-0.0","0","0","29535","","1383","","","75","1","","","1","1","training","adjacent","FE","6","5","P.jpg","N.jpg","1","0","0","",""
"","feedback","","html-keyboard-response","18","321463","0.0-1.0-15.0-0.0","0","0","29535","","null","","","null","1","","","","","","","","","","","","","","","",""
"","time_out","","html-keyboard-response","19","323479","0.0-1.0-17.0-0.0","0","0","29535","","null","","","null","1","","","","","","","","","","","","","","","",""
"","ITI","","html-keyboard-response","20","324494","0.0-1.0-18.0","0","0","29535","","null","","","null","1","","","","","","","","","","","","","","","NaN",""
"","S1","","html-keyboard-response","21","324655","0.0-1.0-20.0","0","0","29535","","null","","","null","2","","","","","","","","","","","","","","","",""
"","ISI","","html-keyboard-response","22","326667","0.0-1.0-21.0","0","0","29535","","1077","","","75","2","k","","","","","","","","","","","","","","",""
"","S2","","html-keyboard-response","23","326831","0.0-1.0-22.0","0","0","29535","","null","","","null","2","","NaN","","","","","","","","","","","","","",""
"","response","","html-keyboard-response","24","327885","0.0-1.0-23.0-0.0","0","0","29535","","1041","","","75","2","","","1","2","training","adjacent","DE","4","5","L.jpg","N.jpg","1","1","1","",""
"","feedback","","html-keyboard-response","25","328901","0.0-1.0-24.0-0.0","0","0","29535","","null","","","null","2","","","","","","","","","","","","","","","",""
"","ITI","","html-keyboard-response","26","329913","0.0-1.0-27.0","0","0","29535","","null","","","null","2","","","","","","","","","","","","","","","NaN",""
"","S1","","html-keyboard-response","27","330074","0.0-1.0-29.0","0","0","29535","","null","","","null","3","","","","","","","","","","","","","","","",""
"","ISI","","html-keyboard-response","28","332081","0.0-1.0-30.0","0","0","29535","","null","","","null","3","NaN","","","","","","","","","","","","","","",""
"","S2","","html-keyboard-response","29","332248","0.0-1.0-31.0","0","0","29535","","null","","","null","3","","NaN","","","","","","","","","","","","","",""
"","response","","html-keyboard-response","30","333785","0.0-1.0-32.0-0.0","0","0","29535","","1528","","","75","3","","","1","3","training","adjacent","CB","3","2","O.jpg","R.jpg","1","0","0","",""
"","feedback","","html-keyboard-response","31","334796","0.0-1.0-33.0-0.0","0","0","29535","","null","","","null","3","","","","","","","","","","","","","","","",""
"","time_out","","html-keyboard-response","32","336805","0.0-1.0-35.0-0.0","0","0","29535","","null","","","null","3","","","","","","","","","","","","","","","",""
"","ITI","","html-keyboard-response","33","337813","0.0-1.0-36.0","0","0","29535","","null","","","null","3","","","","","","","","","","","","","","","NaN",""
"","S1","","html-keyboard-response","34","337972","0.0-1.0-38.0","0","0","29535","","null","","","null","4","","","","","","","","","","","","","","","",""
"","ISI","","html-keyboard-response","35","339980","0.0-1.0-39.0","0","0","29535","","null","","","null","4","NaN","","","","","","","","","","","","","","",""
"","S2","","html-keyboard-response","36","340139","0.0-1.0-40.0","0","0","29535","","null","","","null","4","","NaN","","","","","","","","","","","","","",""
"","response","","html-keyboard-response","37","341242","0.0-1.0-41.0-0.0","0","0","29535","","1096","","","75","4","","","1","4","training","adjacent","BC","2","3","R.jpg","O.jpg","1","1","1","",""
"","feedback","","html-keyboard-response","38","342254","0.0-1.0-42.0-0.0","0","0","29535","","null","","","null","4","","","","","","","","","","","","","","","",""
"","ITI","","html-keyboard-response","39","343264","0.0-1.0-45.0","0","0","29535","","null","","","null","4","","","","","","","","","","","","","","","NaN",""
"","S1","","html-keyboard-response","40","343425","0.0-1.0-47.0","0","0","29535","","null","","","null","5","","","","","","","","","","","","","","","",""
"","ISI","","html-keyboard-response","41","345435","0.0-1.0-48.0","0","0","29535","","null","","","null","5","NaN","","","","","","","","","","","","","","",""
"","S2","","html-keyboard-response","42","345600","0.0-1.0-49.0","0","0","29535","","null","","","null","5","","NaN","","","","","","","","","","","","","",""
"","response","","html-keyboard-response","43","347259","0.0-1.0-50.0-0.0","0","0","29535","","1646","","","68","5","","","1","5","training","adjacent","DC","4","3","L.jpg","O.jpg","0","0","1","",""
"","feedback","","html-keyboard-response","44","348274","0.0-1.0-51.0-0.0","0","0","29535","","null","","","null","5","","","","","","","","","","","","","","","",""
"","ITI","","html-keyboard-response","45","349288","0.0-1.0-54.0","0","0","29535","","null","","","null","5","","","","","","","","","","","","","","","NaN",""
"","S1","","html-keyboard-response","46","349450","0.0-1.0-56.0","0","0","29535","","null","","","null","6","","","","","","","","","","","","","","","",""
"","ISI","","html-keyboard-response","47","351462","0.0-1.0-57.0","0","0","29535","","null","","","null","6","NaN","","","","","","","","","","","","","","",""
"","S2","","html-keyboard-response","48","351625","0.0-1.0-58.0","0","0","29535","","null","","","null","6","","NaN","","","","","","","","","","","","","",""
"","response","","html-keyboard-response","49","353081","0.0-1.0-59.0-0.0","0","0","29535","","1445","","","75","6","","","1","6","training","adjacent","GF","7","6","Q.jpg","P.jpg","1","0","0","",""
"","feedback","","html-keyboard-response","50","354095","0.0-1.0-60.0-0.0","0","0","29535","","null","","","null","6","","","","","","","","","","","","","","","",""
"","time_out","","html-keyboard-response","51","356111","0.0-1.0-62.0-0.0","0","0","29535","","null","","","null","6","","","","","","","","","","","","","","","",""
"","ITI","","html-keyboard-response","52","357124","0.0-1.0-63.0","0","0","29535","","null","","","null","6","","","","","","","","","","","","","","","NaN",""
"","S1","","html-keyboard-response","53","357286","0.0-1.0-65.0","0","0","29535","","null","","","null","7","","","","","","","","","","","","","","","",""
"","ISI","","html-keyboard-response","54","359297","0.0-1.0-66.0","0","0","29535","","null","","","null","7","NaN","","","","","","","","","","","","","","",""
"","S2","","html-keyboard-response","55","359459","0.0-1.0-67.0","0","0","29535","","null","","","null","7","","NaN","","","","","","","","","","","","","",""
"","response","","html-keyboard-response","56","360268","0.0-1.0-68.0-0.0","0","0","29535","","798","","","68","7","","","1","7","training","adjacent","FE","6","5","P.jpg","N.jpg","0","0","1","",""
"","feedback","","html-keyboard-response","57","361281","0.0-1.0-69.0-0.0","0","0","29535","","null","","","null","7","","","","","","","","","","","","","","","",""
"","ITI","","html-keyboard-response","58","362292","0.0-1.0-72.0","0","0","29535","","null","","","null","7","","","","","","","","","","","","","","","NaN",""
"","S1","","html-keyboard-response","59","362454","0.0-1.0-74.0","0","0","29535","","null","","","null","8","","","","","","","","","","","","","","","",""
"","ISI","","html-keyboard-response","60","364466","0.0-1.0-75.0","0","0","29535","","null","","","null","8","NaN","","","","","","","","","","","","","","",""
"","S2","","html-keyboard-response","61","364629","0.0-1.0-76.0","0","0","29535","","null","","","null","8","","NaN","","","","","","","","","","","","","",""
"","response","","html-keyboard-response","62","365500","0.0-1.0-77.0-0.0","0","0","29535","","860","","","68","8","","","1","8","training","adjacent","BC","2","3","R.jpg","O.jpg","0","1","0","",""
"","feedback","","html-keyboard-response","63","366516","0.0-1.0-78.0-0.0","0","0","29535","","null","","","null","8","","","","","","","","","","","","","","","",""
"","time_out","","html-keyboard-response","64","368530","0.0-1.0-80.0-0.0","0","0","29535","","null","","","null","8","","","","","","","","","","","","","","","",""
"","ITI","","html-keyboard-response","65","369544","0.0-1.0-81.0","0","0","29535","","null","","","null","8","","","","","","","","","","","","","","","NaN",""
"","S1","","html-keyboard-response","66","369708","0.0-1.0-83.0","0","0","29535","","null","","","null","9","","","","","","","","","","","","","","","",""
"","ISI","","html-keyboard-response","67","371720","0.0-1.0-84.0","0","0","29535","","null","","","null","9","NaN","","","","","","","","","","","","","","",""
"","S2","","html-keyboard-response","68","371883","0.0-1.0-85.0","0","0","29535","","null","","","null","9","","NaN","","","","","","","","","","","","","",""
"","response","","html-keyboard-response","69","372496","0.0-1.0-86.0-0.0","0","0","29535","","603","","","75","9","","","1","9","training","adjacent","BC","2","3","R.jpg","O.jpg","1","1","1","",""
"","feedback","","html-keyboard-response","70","373511","0.0-1.0-87.0-0.0","0","0","29535","","null","","","null","9","","","","","","","","","","","","","","","",""
"","ITI","","html-keyboard-response","71","374531","0.0-1.0-90.0","0","0","29535","","null","","","null","9","","","","","","","","","","","","","","","NaN",""
"","S1","","html-keyboard-response","72","374697","0.0-1.0-92.0","0","0","29535","","null","","","null","10","","","","","","","","","","","","","","","",""
"","ISI","","html-keyboard-response","73","376711","0.0-1.0-93.0","0","0","29535","","null","","","null","10","NaN","","","","","","","","","","","","","","",""
"","S2","","html-keyboard-response","74","376878","0.0-1.0-94.0","0","0","29535","","null","","","null","10","","NaN","","","","","","","","","","","","","",""
"","response","","html-keyboard-response","75","377600","0.0-1.0-95.0-0.0","0","0","29535","","708","","","75","10","","","1","10","training","adjacent","DE","4","5","L.jpg","N.jpg","1","1","1","",""
"","feedback","","html-keyboard-response","76","378615","0.0-1.0-96.0-0.0","0","0","29535","","null","","","null","10","","","","","","","","","","","","","","","",""
"","ITI","","html-keyboard-response","77","379629","0.0-1.0-99.0","0","0","29535","","null","","","null","10","","","","","","","","","","","","","","","NaN",""
"","S1","","html-keyboard-response","78","379793","0.0-1.0-101.0","0","0","29535","","null","","","null","11","","","","","","","","","","","","","","","",""
"","ISI","","html-keyboard-response","79","381806","0.0-1.0-102.0","0","0","29535","","null","","","null","11","NaN","","","","","","","","","","","","","","",""
"","S2","","html-keyboard-response","80","381970","0.0-1.0-103.0","0","0","29535","","null","","","null","11","","NaN","","","","","","","","","","","","","",""
"","response","","html-keyboard-response","81","383020","0.0-1.0-104.0-0.0","0","0","29535","","1038","","","68","11","","","1","11","training","adjacent","ED","5","4","N.jpg","L.jpg","0","0","1","",""
"","feedback","","html-keyboard-response","82","384034","0.0-1.0-105.0-0.0","0","0","29535","","null","","","null","11","","","","","","","","","","","","","","","",""
"","ITI","","html-keyboard-response","83","385048","0.0-1.0-108.0","0","0","29535","","null","","","null","11","","","","","","","","","","","","","","","NaN",""
"","S1","","html-keyboard-response","84","385210","0.0-1.0-110.0","0","0","29535","","null","","","null","12","","","","","","","","","","","","","","","",""
"","ISI","","html-keyboard-response","85","387219","0.0-1.0-111.0","0","0","29535","","null","","","null","12","NaN","","","","","","","","","","","","","","",""
"","S2","","html-keyboard-response","86","387384","0.0-1.0-112.0","0","0","29535","","null","","","null","12","","NaN","","","","","","","","","","","","","",""
"","response","","html-keyboard-response","87","388239","0.0-1.0-113.0-0.0","0","0","29535","","839","","","75","12","","","1","12","training","adjacent","DE","4","5","L.jpg","N.jpg","1","1","1","",""
"","feedback","","html-keyboard-response","88","389252","0.0-1.0-114.0-0.0","0","0","29535","","null","","","null","12","","","","","","","","","","","","","","","",""
"","ITI","","html-keyboard-response","89","390265","0.0-1.0-117.0","0","0","29535","","null","","","null","12","","","","","","","","","","","","","","","NaN",""
"","S1","","html-keyboard-response","90","390431","0.0-1.0-119.0","0","0","29535","","null","","","null","13","","","","","","","","","","","","","","","",""
"","ISI","","html-keyboard-response","91","392446","0.0-1.0-120.0","0","0","29535","","null","","","null","13","NaN","","","","","","","","","","","","","","",""
"","S2","","html-keyboard-response","92","392611","0.0-1.0-121.0","0","0","29535","","null","","","null","13","","NaN","","","","","","","","","","","","","",""
"","response","","html-keyboard-response","93","393336","0.0-1.0-122.0-0.0","0","0","29535","","712","","","68","13","","","1","13","training","adjacent","EF","5","6","N.jpg","P.jpg","0","1","0","",""
"","feedback","","html-keyboard-response","94","394351","0.0-1.0-123.0-0.0","0","0","29535","","null","","","null","13","","","","","","","","","","","","","","","",""
"","time_out","","html-keyboard-response","95","396365","0.0-1.0-125.0-0.0","0","0","29535","","null","","","null","13","","","","","","","","","","","","","","","",""
"","ITI","","html-keyboard-response","96","397379","0.0-1.0-126.0","0","0","29535","","null","","","null","13","","","","","","","","","","","","","","","NaN",""
"","S1","","html-keyboard-response","97","397541","0.0-1.0-128.0","0","0","29535","","null","","","null","14","","","","","","","","","","","","","","","",""
"","ISI","","html-keyboard-response","98","399550","0.0-1.0-129.0","0","0","29535","","null","","","null","14","NaN","","","","","","","","","","","","","","",""
"","S2","","html-keyboard-response","99","399712","0.0-1.0-130.0","0","0","29535","","null","","","null","14","","NaN","","","","","","","","","","","","","",""
"","response","","html-keyboard-response","100","400620","0.0-1.0-131.0-0.0","0","0","29535","","892","","","75","14","","","1","14","training","adjacent","FG","6","7","P.jpg","Q.jpg","1","1","1","",""
"","feedback","","html-keyboard-response","101","401635","0.0-1.0-132.0-0.0","0","0","29535","","null","","","null","14","","","","","","","","","","","","","","","",""
"","ITI","","html-keyboard-response","102","402645","0.0-1.0-135.0","0","0","29535","","null","","","null","14","","","","","","","","","","","","","","","NaN",""
"","S1","","html-keyboard-response","103","402804","0.0-1.0-137.0","0","0","29535","","null","","","null","15","","","","","","","","","","","","","","","",""
"","ISI","","html-keyboard-response","104","404816","0.0-1.0-138.0","0","0","29535","","null","","","null","15","NaN","","","","","","","","","","","","","","",""
"","S2","","html-keyboard-response","105","404979","0.0-1.0-139.0","0","0","29535","","null","","","null","15","","NaN","","","","","","","","","","","","","",""
"","response","","html-keyboard-response","106","405817","0.0-1.0-140.0-0.0","0","0","29535","","825","","","68","15","","","1","15","training","adjacent","ED","5","4","N.jpg","L.jpg","0","0","1","",""
"","feedback","","html-keyboard-response","107","406834","0.0-1.0-141.0-0.0","0","0","29535","","null","","","null","15","","","","","","","","","","","","","","","",""
"","ITI","","html-keyboard-response","108","407848","0.0-1.0-144.0","0","0","29535","","null","","","null","15","","","","","","","","","","","","","","","NaN",""
"","S1","","html-keyboard-response","109","408014","0.0-1.0-146.0","0","0","29535","","null","","","null","16","","","","","","","","","","","","","","","",""
"","ISI","","html-keyboard-response","110","410026","0.0-1.0-147.0","0","0","29535","","null","","","null","16","NaN","","","","","","","","","","","","","","",""
"","S2","","html-keyboard-response","111","410202","0.0-1.0-148.0","0","0","29535","","null","","","null","16","","NaN","","","","","","","","","","","","","",""
"","response","","html-keyboard-response","112","411074","0.0-1.0-149.0-0.0","0","0","29535","","859","","","68","16","","","1","16","training","adjacent","FE","6","5","P.jpg","N.jpg","0","0","1","",""
"","feedback","","html-keyboard-response","113","412090","0.0-1.0-150.0-0.0","0","0","29535","","null","","","null","16","","","","","","","","","","","","","","","",""
"","ITI","","html-keyboard-response","114","413104","0.0-1.0-153.0","0","0","29535","","null","","","null","16","","","","","","","","","","","","","","","NaN",""
"","S1","","html-keyboard-response","115","413264","0.0-1.0-155.0","0","0","29535","","null","","","null","17","","","","","","","","","","","","","","","",""
"","ISI","","html-keyboard-response","116","415272","0.0-1.0-156.0","0","0","29535","","null","","","null","17","NaN","","","","","","","","","","","","","","",""
"","S2","","html-keyboard-response","117","415435","0.0-1.0-157.0","0","0","29535","","null","","","null","17","","NaN","","","","","","","","","","","","","",""
"","response","","html-keyboard-response","118","416299","0.0-1.0-158.0-0.0","0","0","29535","","848","","","75","17","","","1","17","training","adjacent","CB","3","2","O.jpg","R.jpg","1","0","0","",""
"","feedback","","html-keyboard-response","119","417315","0.0-1.0-159.0-0.0","0","0","29535","","null","","","null","17","","","","","","","","","","","","","","","",""
"","time_out","","html-keyboard-response","120","419329","0.0-1.0-161.0-0.0","0","0","29535","","null","","","null","17","","","","","","","","","","","","","","","",""
"","ITI","","html-keyboard-response","121","420342","0.0-1.0-162.0","0","0","29535","","null","","","null","17","","","","","","","","","","","","","","","NaN",""
"","S1","","html-keyboard-response","122","420504","0.0-1.0-164.0","0","0","29535","","null","","","null","18","","","","","","","","","","","","","","","",""
"","ISI","","html-keyboard-response","123","422514","0.0-1.0-165.0","0","0","29535","","null","","","null","18","NaN","","","","","","","","","","","","","","",""
"","S2","","html-keyboard-response","124","422679","0.0-1.0-166.0","0","0","29535","","null","","","null","18","","NaN","","","","","","","","","","","","","",""
"","response","","html-keyboard-response","125","423897","0.0-1.0-167.0-0.0","0","0","29535","","1203","","","75","18","","","1","18","training","adjacent","CB","3","2","O.jpg","R.jpg","1","0","0","",""
"","feedback","","html-keyboard-response","126","424912","0.0-1.0-168.0-0.0","0","0","29535","","null","","","null","18","","","","","","","","","","","","","","","",""
"","time_out","","html-keyboard-response","127","426927","0.0-1.0-170.0-0.0","0","0","29535","","null","","","null","18","","","","","","","","","","","","","","","",""
"","ITI","","html-keyboard-response","128","427940","0.0-1.0-171.0","0","0","29535","","null","","","null","18","","","","","","","","","","","","","","","NaN",""
"","S1","","html-keyboard-response","129","428103","0.0-1.0-173.0","0","0","29535","","null","","","null","19","","","","","","","","","","","","","","","",""
"","ISI","","html-keyboard-response","130","430117","0.0-1.0-174.0","0","0","29535","","null","","","null","19","NaN","","","","","","","","","","","","","","",""
"","S2","","html-keyboard-response","131","430278","0.0-1.0-175.0","0","0","29535","","null","","","null","19","","NaN","","","","","","","","","","","","","",""
"","response","","html-keyboard-response","132","431784","0.0-1.0-176.0-0.0","0","0","29535","","1496","","","68","19","","","1","19","training","adjacent","BA","2","1","R.jpg","M.jpg","0","0","1","",""
"","feedback","","html-keyboard-response","133","432800","0.0-1.0-177.0-0.0","0","0","29535","","null","","","null","19","","","","","","","","","","","","","","","",""
"","ITI","","html-keyboard-response","134","433813","0.0-1.0-180.0","0","0","29535","","null","","","null","19","","","","","","","","","","","","","","","NaN",""
"","S1","","html-keyboard-response","135","433978","0.0-1.0-182.0","0","0","29535","","null","","","null","20","","","","","","","","","","","","","","","",""
"","ISI","","html-keyboard-response","136","435991","0.0-1.0-183.0","0","0","29535","","null","","","null","20","NaN","","","","","","","","","","","","","","",""
"","S2","","html-keyboard-response","137","436158","0.0-1.0-184.0","0","0","29535","","null","","","null","20","","NaN","","","","","","","","","","","","","",""
"","response","","html-keyboard-response","138","437170","0.0-1.0-185.0-0.0","0","0","29535","","999","","","68","20","","","1","20","training","adjacent","GF","7","6","Q.jpg","P.jpg","0","0","1","",""
"","feedback","","html-keyboard-response","139","438185","0.0-1.0-186.0-0.0","0","0","29535","","null","","","null","20","","","","","","","","","","","","","","","",""
"","ITI","","html-keyboard-response","140","439200","0.0-1.0-189.0","0","0","29535","","null","","","null","20","","","","","","","","","","","","","","","NaN",""
"","S1","","html-keyboard-response","141","439362","0.0-1.0-191.0","0","0","29535","","null","","","null","21","","","","","","","","","","","","","","","",""
"","ISI","","html-keyboard-response","142","441375","0.0-1.0-192.0","0","0","29535","","null","","","null","21","NaN","","","","","","","","","","","","","","",""
"","S2","","html-keyboard-response","143","441539","0.0-1.0-193.0","0","0","29535","","null","","","null","21","","NaN","","","","","","","","","","","","","",""
"","response","","html-keyboard-response","144","442671","0.0-1.0-194.0-0.0","0","0","29535","","1120","","","68","21","","","1","21","training","adjacent","BC","2","3","R.jpg","O.jpg","0","1","0","",""
"","feedback","","html-keyboard-response","145","443688","0.0-1.0-195.0-0.0","0","0","29535","","null","","","null","21","","","","","","","","","","","","","","","",""
"","time_out","","html-keyboard-response","146","445702","0.0-1.0-197.0-0.0","0","0","29535","","null","","","null","21","","","","","","","","","","","","","","","",""
"","ITI","","html-keyboard-response","147","446715","0.0-1.0-198.0","0","0","29535","","null","","","null","21","","","","","","","","","","","","","","","NaN",""
"","S1","","html-keyboard-response","148","446875","0.0-1.0-200.0","0","0","29535","","null","","","null","22","","","","","","","","","","","","","","","",""
"","ISI","","html-keyboard-response","149","448888","0.0-1.0-201.0","0","0","29535","","null","","","null","22","NaN","","","","","","","","","","","","","","",""
"","S2","","html-keyboard-response","150","449050","0.0-1.0-202.0","0","0","29535","","null","","","null","22","","NaN","","","","","","","","","","","","","",""
"","response","","html-keyboard-response","151","450049","0.0-1.0-203.0-0.0","0","0","29535","","987","","","75","22","","","1","22","training","adjacent","DC","4","3","L.jpg","O.jpg","1","0","0","",""
"","feedback","","html-keyboard-response","152","451067","0.0-1.0-204.0-0.0","0","0","29535","","null","","","null","22","","","","","","","","","","","","","","","",""
"","time_out","","html-keyboard-response","153","453082","0.0-1.0-206.0-0.0","0","0","29535","","null","","","null","22","","","","","","","","","","","","","","","",""
"","ITI","","html-keyboard-response","154","454098","0.0-1.0-207.0","0","0","29535","","null","","","null","22","","","","","","","","","","","","","","","NaN",""
"","S1","","html-keyboard-response","155","454268","0.0-1.0-209.0","0","0","29535","","null","","","null","23","","","","","","","","","","","","","","","",""
"","ISI","","html-keyboard-response","156","456282","0.0-1.0-210.0","0","0","29535","","null","","","null","23","NaN","","","","","","","","","","","","","","",""
"","S2","","html-keyboard-response","157","456448","0.0-1.0-211.0","0","0","29535","","null","","","null","23","","NaN","","","","","","","","","","","","","",""
"","response","","html-keyboard-response","158","457627","0.0-1.0-212.0-0.0","0","0","29535","","1164","","","68","23","","","1","23","training","adjacent","BA","2","1","R.jpg","M.jpg","0","0","1","",""
"","feedback","","html-keyboard-response","159","458645","0.0-1.0-213.0-0.0","0","0","29535","","null","","","null","23","","","","","","","","","","","","","","","",""
"","ITI","","html-keyboard-response","160","459662","0.0-1.0-216.0","0","0","29535","","null","","","null","23","","","","","","","","","","","","","","","NaN",""
"","S1","","html-keyboard-response","161","459823","0.0-1.0-218.0","0","0","29535","","null","","","null","24","","","","","","","","","","","","","","","",""
"","ISI","","html-keyboard-response","162","461836","0.0-1.0-219.0","0","0","29535","","null","","","null","24","NaN","","","","","","","","","","","","","","",""
"","S2","","html-keyboard-response","163","462006","0.0-1.0-220.0","0","0","29535","","null","","","null","24","","NaN","","","","","","","","","","","","","",""
"","response","","html-keyboard-response","164","463368","0.0-1.0-221.0-0.0","0","0","29535","","1347","","","68","24","","","1","24","training","adjacent","GF","7","6","Q.jpg","P.jpg","0","0","1","",""
"","feedback","","html-keyboard-response","165","464389","0.0-1.0-222.0-0.0","0","0","29535","","null","","","null","24","","","","","","","","","","","","","","","",""
"","ITI","","html-keyboard-response","166","465401","0.0-1.0-225.0","0","0","29535","","null","","","null","24","","","","","","","","","","","","","","","NaN",""
"","S1","","html-keyboard-response","167","465564","0.0-1.0-227.0","0","0","29535","","null","","","null","25","","","","","","","","","","","","","","","",""
"","ISI","","html-keyboard-response","168","467578","0.0-1.0-228.0","0","0","29535","","null","","","null","25","NaN","","","","","","","","","","","","","","",""
"","S2","","html-keyboard-response","169","467741","0.0-1.0-229.0","0","0","29535","","null","","","null","25","","NaN","","","","","","","","","","","","","",""
"","response","","html-keyboard-response","170","468484","0.0-1.0-230.0-0.0","0","0","29535","","732","","","68","25","","","1","25","training","adjacent","EF","5","6","N.jpg","P.jpg","0","1","0","",""
"","feedback","","html-keyboard-response","171","469500","0.0-1.0-231.0-0.0","0","0","29535","","null","","","null","25","","","","","","","","","","","","","","","",""
"","time_out","","html-keyboard-response","172","471513","0.0-1.0-233.0-0.0","0","0","29535","","null","","","null","25","","","","","","","","","","","","","","","",""
"","ITI","","html-keyboard-response","173","472525","0.0-1.0-234.0","0","0","29535","","null","","","null","25","","","","","","","","","","","","","","","NaN",""
"","S1","","html-keyboard-response","174","472688","0.0-1.0-236.0","0","0","29535","","null","","","null","26","","","","","","","","","","","","","","","",""
"","ISI","","html-keyboard-response","175","474701","0.0-1.0-237.0","0","0","29535","","null","","","null","26","NaN","","","","","","","","","","","","","","",""
"","S2","","html-keyboard-response","176","474866","0.0-1.0-238.0","0","0","29535","","null","","","null","26","","NaN","","","","","","","","","","","","","",""
"","response","","html-keyboard-response","177","475883","0.0-1.0-239.0-0.0","0","0","29535","","1004","","","75","26","","","1","26","training","adjacent","AB","1","2","M.jpg","R.jpg","1","1","1","",""
"","feedback","","html-keyboard-response","178","476897","0.0-1.0-240.0-0.0","0","0","29535","","null","","","null","26","","","","","","","","","","","","","","","",""
"","ITI","","html-keyboard-response","179","477912","0.0-1.0-243.0","0","0","29535","","null","","","null","26","","","","","","","","","","","","","","","NaN",""
"","S1","","html-keyboard-response","180","478072","0.0-1.0-245.0","0","0","29535","","null","","","null","27","","","","","","","","","","","","","","","",""
"","ISI","","html-keyboard-response","181","480085","0.0-1.0-246.0","0","0","29535","","null","","","null","27","NaN","","","","","","","","","","","","","","",""
"","S2","","html-keyboard-response","182","480251","0.0-1.0-247.0","0","0","29535","","null","","","null","27","","NaN","","","","","","","","","","","","","",""
"","response","","html-keyboard-response","183","481359","0.0-1.0-248.0-0.0","0","0","29535","","1096","","","68","27","","","1","27","training","adjacent","BA","2","1","R.jpg","M.jpg","0","0","1","",""
"","feedback","","html-keyboard-response","184","482370","0.0-1.0-249.0-0.0","0","0","29535","","null","","","null","27","","","","","","","","","","","","","","","",""
"","ITI","","html-keyboard-response","185","483383","0.0-1.0-252.0","0","0","29535","","null","","","null","27","","","","","","","","","","","","","","","NaN",""
"","S1","","html-keyboard-response","186","483552","0.0-1.0-254.0","0","0","29535","","null","","","null","28","","","","","","","","","","","","","","","",""
"","ISI","","html-keyboard-response","187","485564","0.0-1.0-255.0","0","0","29535","","null","","","null","28","NaN","","","","","","","","","","","","","","",""
"","S2","","html-keyboard-response","188","485727","0.0-1.0-256.0","0","0","29535","","null","","","null","28","","NaN","","","","","","","","","","","","","",""
"","response","","html-keyboard-response","189","486747","0.0-1.0-257.0-0.0","0","0","29535","","1006","","","68","28","","","1","28","training","adjacent","DC","4","3","L.jpg","O.jpg","0","0","1","",""
"","feedback","","html-keyboard-response","190","487763","0.0-1.0-258.0-0.0","0","0","29535","","null","","","null","28","","","","","","","","","","","","","","","",""
"","ITI","","html-keyboard-response","191","488779","0.0-1.0-261.0","0","0","29535","","null","","","null","28","","","","","","","","","","","","","","","NaN",""
"","S1","","html-keyboard-response","192","488944","0.0-1.0-263.0","0","0","29535","","null","","","null","29","","","","","","","","","","","","","","","",""
"","ISI","","html-keyboard-response","193","490959","0.0-1.0-264.0","0","0","29535","","null","","","null","29","NaN","","","","","","","","","","","","","","",""
"","S2","","html-keyboard-response","194","491124","0.0-1.0-265.0","0","0","29535","","null","","","null","29","","NaN","","","","","","","","","","","","","",""
"","response","","html-keyboard-response","195","492454","0.0-1.0-266.0-0.0","0","0","29535","","1316","","","68","29","","","1","29","training","adjacent","ED","5","4","N.jpg","L.jpg","0","0","1","",""
"","feedback","","html-keyboard-response","196","493471","0.0-1.0-267.0-0.0","0","0","29535","","null","","","null","29","","","","","","","","","","","","","","","",""
"","ITI","","html-keyboard-response","197","494486","0.0-1.0-270.0","0","0","29535","","null","","","null","29","","","","","","","","","","","","","","","NaN",""
"","S1","","html-keyboard-response","198","494650","0.0-1.0-272.0","0","0","29535","","null","","","null","30","","","","","","","","","","","","","","","",""
"","ISI","","html-keyboard-response","199","496663","0.0-1.0-273.0","0","0","29535","","null","","","null","30","NaN","","","","","","","","","","","","","","",""
"","S2","","html-keyboard-response","200","496828","0.0-1.0-274.0","0","0","29535","","null","","","null","30","","NaN","","","","","","","","","","","","","",""
"","response","","html-keyboard-response","201","498095","0.0-1.0-275.0-0.0","0","0","29535","","1259","","","75","30","","","1","30","training","adjacent","CB","3","2","O.jpg","R.jpg","1","0","0","",""
"","feedback","","html-keyboard-response","202","499119","0.0-1.0-276.0-0.0","0","0","29535","","null","","","null","30","","","","","","","","","","","","","","","",""
"","time_out","","html-keyboard-response","203","501135","0.0-1.0-278.0-0.0","0","0","29535","","null","","","null","30","","","","","","","","","","","","","","","",""
"","ITI","","html-keyboard-response","204","502149","0.0-1.0-279.0","0","0","29535","","null","","","null","30","","","","","","","","","","","","","","","NaN",""
"","S1","","html-keyboard-response","205","502314","0.0-1.0-281.0","0","0","29535","","null","","","null","31","","","","","","","","","","","","","","","",""
"","ISI","","html-keyboard-response","206","504328","0.0-1.0-282.0","0","0","29535","","null","","","null","31","NaN","","","","","","","","","","","","","","",""
"","S2","","html-keyboard-response","207","504493","0.0-1.0-283.0","0","0","29535","","null","","","null","31","","NaN","","","","","","","","","","","","","",""
"","response","","html-keyboard-response","208","505295","0.0-1.0-284.0-0.0","0","0","29535","","788","","","68","31","","","1","31","training","adjacent","DC","4","3","L.jpg","O.jpg","0","0","1","",""
"","feedback","","html-keyboard-response","209","506311","0.0-1.0-285.0-0.0","0","0","29535","","null","","","null","31","","","","","","","","","","","","","","","",""
"","ITI","","html-keyboard-response","210","507327","0.0-1.0-288.0","0","0","29535","","null","","","null","31","","","","","","","","","","","","","","","NaN",""
"","S1","","html-keyboard-response","211","507491","0.0-1.0-290.0","0","0","29535","","null","","","null","32","","","","","","","","","","","","","","","",""
"","ISI","","html-keyboard-response","212","509505","0.0-1.0-291.0","0","0","29535","","null","","","null","32","NaN","","","","","","","","","","","","","","",""
"","S2","","html-keyboard-response","213","509670","0.0-1.0-292.0","0","0","29535","","null","","","null","32","","NaN","","","","","","","","","","","","","",""
"","response","","html-keyboard-response","214","510788","0.0-1.0-293.0-0.0","0","0","29535","","1105","","","68","32","","","1","32","training","adjacent","GF","7","6","Q.jpg","P.jpg","0","0","1","",""
"","feedback","","html-keyboard-response","215","511804","0.0-1.0-294.0-0.0","0","0","29535","","null","","","null","32","","","","","","","","","","","","","","","",""
"","ITI","","html-keyboard-response","216","512820","0.0-1.0-297.0","0","0","29535","","null","","","null","32","","","","","","","","","","","","","","","NaN",""
"","S1","","html-keyboard-response","217","512984","0.0-1.0-299.0","0","0","29535","","null","","","null","33","","","","","","","","","","","","","","","",""
"","ISI","","html-keyboard-response","218","514994","0.0-1.0-300.0","0","0","29535","","null","","","null","33","NaN","","","","","","","","","","","","","","",""
"","S2","","html-keyboard-response","219","515157","0.0-1.0-301.0","0","0","29535","","null","","","null","33","","NaN","","","","","","","","","","","","","",""
"","response","","html-keyboard-response","220","516057","0.0-1.0-302.0-0.0","0","0","29535","","886","","","68","33","","","1","33","training","adjacent","CD","3","4","O.jpg","L.jpg","0","1","0","",""
"","feedback","","html-keyboard-response","221","517076","0.0-1.0-303.0-0.0","0","0","29535","","null","","","null","33","","","","","","","","","","","","","","","",""
"","time_out","","html-keyboard-response","222","519090","0.0-1.0-305.0-0.0","0","0","29535","","null","","","null","33","","","","","","","","","","","","","","","",""
"","ITI","","html-keyboard-response","223","520104","0.0-1.0-306.0","0","0","29535","","null","","","null","33","","","","","","","","","","","","","","","NaN",""
"","S1","","html-keyboard-response","224","520265","0.0-1.0-308.0","0","0","29535","","null","","","null","34","","","","","","","","","","","","","","","",""
"","ISI","","html-keyboard-response","225","522277","0.0-1.0-309.0","0","0","29535","","null","","","null","34","NaN","","","","","","","","","","","","","","",""
"","S2","","html-keyboard-response","226","522449","0.0-1.0-310.0","0","0","29535","","null","","","null","34","","NaN","","","","","","","","","","","","","",""
"","response","","html-keyboard-response","227","523811","0.0-1.0-311.0-0.0","0","0","29535","","1352","","","68","34","","","1","34","training","adjacent","BA","2","1","R.jpg","M.jpg","0","0","1","",""
"","feedback","","html-keyboard-response","228","524826","0.0-1.0-312.0-0.0","0","0","29535","","null","","","null","34","","","","","","","","","","","","","","","",""
"","ITI","","html-keyboard-response","229","525852","0.0-1.0-315.0","0","0","29535","","null","","","null","34","","","","","","","","","","","","","","","NaN",""
"","S1","","html-keyboard-response","230","526017","0.0-1.0-317.0","0","0","29535","","null","","","null","35","","","","","","","","","","","","","","","",""
"","ISI","","html-keyboard-response","231","528031","0.0-1.0-318.0","0","0","29535","","null","","","null","35","NaN","","","","","","","","","","","","","","",""
"","S2","","html-keyboard-response","232","528196","0.0-1.0-319.0","0","0","29535","","null","","","null","35","","NaN","","","","","","","","","","","","","",""
"","response","","html-keyboard-response","233","529308","0.0-1.0-320.0-0.0","0","0","29535","","1098","","","68","35","","","1","35","training","adjacent","EF","5","6","N.jpg","P.jpg","0","1","0","",""
"","feedback","","html-keyboard-response","234","530325","0.0-1.0-321.0-0.0","0","0","29535","","null","","","null","35","","","","","","","","","","","","","","","",""
"","time_out","","html-keyboard-response","235","532340","0.0-1.0-323.0-0.0","0","0","29535","","null","","","null","35","","","","","","","","","","","","","","","",""
"","ITI","","html-keyboard-response","236","533353","0.0-1.0-324.0","0","0","29535","","null","","","null","35","","","","","","","","","","","","","","","NaN",""
"","S1","","html-keyboard-response","237","533520","0.0-1.0-326.0","0","0","29535","","null","","","null","36","","","","","","","","","","","","","","","",""
"","ISI","","html-keyboard-response","238","535533","0.0-1.0-327.0","0","0","29535","","null","","","null","36","NaN","","","","","","","","","","","","","","",""
"","S2","","html-keyboard-response","239","535700","0.0-1.0-328.0","0","0","29535","","null","","","null","36","","NaN","","","","","","","","","","","","","",""
"","response","","html-keyboard-response","240","536949","0.0-1.0-329.0-0.0","0","0","29535","","1236","","","75","36","","","1","36","training","adjacent","ED","5","4","N.jpg","L.jpg","1","0","0","",""
"","feedback","","html-keyboard-response","241","537965","0.0-1.0-330.0-0.0","0","0","29535","","null","","","null","36","","","","","","","","","","","","","","","",""
"","time_out","","html-keyboard-response","242","539980","0.0-1.0-332.0-0.0","0","0","29535","","null","","","null","36","","","","","","","","","","","","","","","",""
"","ITI","","html-keyboard-response","243","540993","0.0-1.0-333.0","0","0","29535","","null","","","null","36","","","","","","","","","","","","","","","NaN",""
"","S1","","html-keyboard-response","244","541158","0.0-1.0-335.0","0","0","29535","","null","","","null","37","","","","","","","","","","","","","","","",""
"","ISI","","html-keyboard-response","245","543168","0.0-1.0-336.0","0","0","29535","","null","","","null","37","NaN","","","","","","","","","","","","","","",""
"","S2","","html-keyboard-response","246","543332","0.0-1.0-337.0","0","0","29535","","null","","","null","37","","NaN","","","","","","","","","","","","","",""
"","response","","html-keyboard-response","247","544367","0.0-1.0-338.0-0.0","0","0","29535","","1022","","","68","37","","","1","37","training","adjacent","EF","5","6","N.jpg","P.jpg","0","1","0","",""
"","feedback","","html-keyboard-response","248","545381","0.0-1.0-339.0-0.0","0","0","29535","","null","","","null","37","","","","","","","","","","","","","","","",""
"","time_out","","html-keyboard-response","249","547394","0.0-1.0-341.0-0.0","0","0","29535","","null","","","null","37","","","","","","","","","","","","","","","",""
"","ITI","","html-keyboard-response","250","548408","0.0-1.0-342.0","0","0","29535","","null","","","null","37","","","","","","","","","","","","","","","NaN",""
"","S1","","html-keyboard-response","251","548570","0.0-1.0-344.0","0","0","29535","","null","","","null","38","","","","","","","","","","","","","","","",""
"","ISI","","html-keyboard-response","252","550583","0.0-1.0-345.0","0","0","29535","","null","","","null","38","NaN","","","","","","","","","","","","","","",""
"","S2","","html-keyboard-response","253","550748","0.0-1.0-346.0","0","0","29535","","null","","","null","38","","NaN","","","","","","","","","","","","","",""
"","response","","html-keyboard-response","254","551903","0.0-1.0-347.0-0.0","0","0","29535","","1140","","","75","38","","","1","38","training","adjacent","AB","1","2","M.jpg","R.jpg","1","1","1","",""
"","feedback","","html-keyboard-response","255","552919","0.0-1.0-348.0-0.0","0","0","29535","","null","","","null","38","","","","","","","","","","","","","","","",""
"","ITI","","html-keyboard-response","256","553936","0.0-1.0-351.0","0","0","29535","","null","","","null","38","","","","","","","","","","","","","","","NaN",""
"","S1","","html-keyboard-response","257","554102","0.0-1.0-353.0","0","0","29535","","null","","","null","39","","","","","","","","","","","","","","","",""
"","ISI","","html-keyboard-response","258","556115","0.0-1.0-354.0","0","0","29535","","null","","","null","39","NaN","","","","","","","","","","","","","","",""
"","S2","","html-keyboard-response","259","556278","0.0-1.0-355.0","0","0","29535","","null","","","null","39","","NaN","","","","","","","","","","","","","",""
"","response","","html-keyboard-response","260","557009","0.0-1.0-356.0-0.0","0","0","29535","","720","","","75","39","","","1","39","training","adjacent","CD","3","4","O.jpg","L.jpg","1","1","1","",""
"","feedback","","html-keyboard-response","261","558028","0.0-1.0-357.0-0.0","0","0","29535","","null","","","null","39","","","","","","","","","","","","","","","",""
"","ITI","","html-keyboard-response","262","559043","0.0-1.0-360.0","0","0","29535","","null","","","null","39","","","","","","","","","","","","","","","NaN",""
"","S1","","html-keyboard-response","263","559206","0.0-1.0-362.0","0","0","29535","","null","","","null","40","","","","","","","","","","","","","","","",""
"","ISI","","html-keyboard-response","264","561218","0.0-1.0-363.0","0","0","29535","","null","","","null","40","NaN","","","","","","","","","","","","","","",""
"","S2","","html-keyboard-response","265","561390","0.0-1.0-364.0","0","0","29535","","null","","","null","40","","NaN","","","","","","","","","","","","","",""
"","response","","html-keyboard-response","266","562205","0.0-1.0-365.0-0.0","0","0","29535","","803","","","75","40","","","1","40","training","adjacent","DE","4","5","L.jpg","N.jpg","1","1","1","",""
"","feedback","","html-keyboard-response","267","563218","0.0-1.0-366.0-0.0","0","0","29535","","null","","","null","40","","","","","","","","","","","","","","","",""
"","ITI","","html-keyboard-response","268","564233","0.0-1.0-369.0","0","0","29535","","null","","","null","40","","","","","","","","","","","","","","","NaN",""
"","S1","","html-keyboard-response","269","564398","0.0-1.0-371.0","0","0","29535","","null","","","null","41","","","","","","","","","","","","","","","",""
"","ISI","","html-keyboard-response","270","566410","0.0-1.0-372.0","0","0","29535","","null","","","null","41","NaN","","","","","","","","","","","","","","",""
"","S2","","html-keyboard-response","271","566574","0.0-1.0-373.0","0","0","29535","","null","","","null","41","","NaN","","","","","","","","","","","","","",""
"","response","","html-keyboard-response","272","567368","0.0-1.0-374.0-0.0","0","0","29535","","780","","","75","41","","","1","41","training","adjacent","CD","3","4","O.jpg","L.jpg","1","1","1","",""
"","feedback","","html-keyboard-response","273","568384","0.0-1.0-375.0-0.0","0","0","29535","","null","","","null","41","","","","","","","","","","","","","","","",""
"","ITI","","html-keyboard-response","274","569399","0.0-1.0-378.0","0","0","29535","","null","","","null","41","","","","","","","","","","","","","","","NaN",""
"","S1","","html-keyboard-response","275","569564","0.0-1.0-380.0","0","0","29535","","null","","","null","42","","","","","","","","","","","","","","","",""
"","ISI","","html-keyboard-response","276","571576","0.0-1.0-381.0","0","0","29535","","null","","","null","42","NaN","","","","","","","","","","","","","","",""
"","S2","","html-keyboard-response","277","571739","0.0-1.0-382.0","0","0","29535","","null","","","null","42","","NaN","","","","","","","","","","","","","",""
"","response","","html-keyboard-response","278","572608","0.0-1.0-383.0-0.0","0","0","29535","","861","","","75","42","","","1","42","training","adjacent","CD","3","4","O.jpg","L.jpg","1","1","1","",""
"","feedback","","html-keyboard-response","279","573622","0.0-1.0-384.0-0.0","0","0","29535","","null","","","null","42","","","","","","","","","","","","","","","",""
"","ITI","","html-keyboard-response","280","574635","0.0-1.0-387.0","0","0","29535","","null","","","null","42","","","","","","","","","","","","","","","NaN",""
"","S1","","html-keyboard-response","281","574795","0.0-1.0-389.0","0","0","29535","","null","","","null","43","","","","","","","","","","","","","","","",""
"","ISI","","html-keyboard-response","282","576808","0.0-1.0-390.0","0","0","29535","","null","","","null","43","NaN","","","","","","","","","","","","","","",""
"","S2","","html-keyboard-response","283","576971","0.0-1.0-391.0","0","0","29535","","null","","","null","43","","NaN","","","","","","","","","","","","","",""
"","response","","html-keyboard-response","284","577976","0.0-1.0-392.0-0.0","0","0","29535","","993","","","75","43","","","1","43","training","adjacent","FG","6","7","P.jpg","Q.jpg","1","1","1","",""
"","feedback","","html-keyboard-response","285","578992","0.0-1.0-393.0-0.0","0","0","29535","","null","","","null","43","","","","","","","","","","","","","","","",""
"","ITI","","html-keyboard-response","286","580007","0.0-1.0-396.0","0","0","29535","","null","","","null","43","","","","","","","","","","","","","","","NaN",""
"","S1","","html-keyboard-response","287","580177","0.0-1.0-398.0","0","0","29535","","null","","","null","44","","","","","","","","","","","","","","","",""
"","ISI","","html-keyboard-response","288","582190","0.0-1.0-399.0","0","0","29535","","null","","","null","44","NaN","","","","","","","","","","","","","","",""
"","S2","","html-keyboard-response","289","582354","0.0-1.0-400.0","0","0","29535","","null","","","null","44","","NaN","","","","","","","","","","","","","",""
"","response","","html-keyboard-response","290","583139","0.0-1.0-401.0-0.0","0","0","29535","","772","","","75","44","","","1","44","training","adjacent","AB","1","2","M.jpg","R.jpg","1","1","1","",""
"","feedback","","html-keyboard-response","291","584155","0.0-1.0-402.0-0.0","0","0","29535","","null","","","null","44","","","","","","","","","","","","","","","",""
"","ITI","","html-keyboard-response","292","585170","0.0-1.0-405.0","0","0","29535","","null","","","null","44","","","","","","","","","","","","","","","NaN",""
"","S1","","html-keyboard-response","293","585334","0.0-1.0-407.0","0","0","29535","","null","","","null","45","","","","","","","","","","","","","","","",""
"","ISI","","html-keyboard-response","294","587346","0.0-1.0-408.0","0","0","29535","","null","","","null","45","NaN","","","","","","","","","","","","","","",""
"","S2","","html-keyboard-response","295","587511","0.0-1.0-409.0","0","0","29535","","null","","","null","45","","NaN","","","","","","","","","","","","","",""
"","response","","html-keyboard-response","296","588538","0.0-1.0-410.0-0.0","0","0","29535","","1014","","","75","45","","","1","45","training","adjacent","AB","1","2","M.jpg","R.jpg","1","1","1","",""
"","feedback","","html-keyboard-response","297","589555","0.0-1.0-411.0-0.0","0","0","29535","","null","","","null","45","","","","","","","","","","","","","","","",""
"","ITI","","html-keyboard-response","298","590570","0.0-1.0-414.0","0","0","29535","","null","","","null","45","","","","","","","","","","","","","","","NaN",""
"","S1","","html-keyboard-response","299","590734","0.0-1.0-416.0","0","0","29535","","null","","","null","46","","","","","","","","","","","","","","","",""
"","ISI","","html-keyboard-response","300","592748","0.0-1.0-417.0","0","0","29535","","null","","","null","46","NaN","","","","","","","","","","","","","","",""
"","S2","","html-keyboard-response","301","592915","0.0-1.0-418.0","0","0","29535","","null","","","null","46","","NaN","","","","","","","","","","","","","",""
"","response","","html-keyboard-response","302","594213","0.0-1.0-419.0-0.0","0","0","29535","","1283","","","75","46","","","1","46","training","adjacent","FE","6","5","P.jpg","N.jpg","1","0","0","",""
"","feedback","","html-keyboard-response","303","595229","0.0-1.0-420.0-0.0","0","0","29535","","null","","","null","46","","","","","","","","","","","","","","","",""
"","time_out","","html-keyboard-response","304","597246","0.0-1.0-422.0-0.0","0","0","29535","","null","","","null","46","","","","","","","","","","","","","","","",""
"","ITI","","html-keyboard-response","305","598258","0.0-1.0-423.0","0","0","29535","","null","","","null","46","","","","","","","","","","","","","","","NaN",""
"","S1","","html-keyboard-response","306","598419","0.0-1.0-425.0","0","0","29535","","null","","","null","47","","","","","","","","","","","","","","","",""
"","ISI","","html-keyboard-response","307","600431","0.0-1.0-426.0","0","0","29535","","null","","","null","47","NaN","","","","","","","","","","","","","","",""
"","S2","","html-keyboard-response","308","600594","0.0-1.0-427.0","0","0","29535","","null","","","null","47","","NaN","","","","","","","","","","","","","",""
"","response","","html-keyboard-response","309","601708","0.0-1.0-428.0-0.0","0","0","29535","","1104","","","75","47","","","1","47","training","adjacent","FG","6","7","P.jpg","Q.jpg","1","1","1","",""
"","feedback","","html-keyboard-response","310","602723","0.0-1.0-429.0-0.0","0","0","29535","","null","","","null","47","","","","","","","","","","","","","","","",""
"","ITI","","html-keyboard-response","311","603739","0.0-1.0-432.0","0","0","29535","","null","","","null","47","","","","","","","","","","","","","","","NaN",""
"","block_over","","html-keyboard-response","312","781290","0.0-1.0-433.0-0.0","0","0","29535","","177532","","","32","47","","","","","","","","","","","","","","","",""
"","S1","","html-keyboard-response","313","781454","0.0-1.0-434.0","0","0","29535","","null","","","null","48","","","","","","","","","","","","","","","",""
"","ISI","","html-keyboard-response","314","783466","0.0-1.0-435.0","0","0","29535","","null","","","null","48","NaN","","","","","","","","","","","","","","",""
"","S2","","html-keyboard-response","315","783637","0.0-1.0-436.0","0","0","29535","","null","","","null","48","","NaN","","","","","","","","","","","","","",""
"","response","","html-keyboard-response","316","785501","0.0-1.0-437.0-0.0","0","0","29535","","null","","","null","48","","","2","48","training","adjacent","CD","3","4","O.jpg","L.jpg","NaN","1","0","",""
"","too_slow_prompt","","html-keyboard-response","317","786514","0.0-1.0-439.0-0.0","1","0","29535","","null","","","null","","","","","","","","","","","","","","","","",""
"","time_out","","html-keyboard-response","318","788528","0.0-1.0-440.0-0.0","0","0","29535","","null","","","null","48","","","","","","","","","","","","","","","",""
"","ITI","","html-keyboard-response","319","789539","0.0-1.0-441.0","0","0","29535","","null","","","null","48","","","","","","","","","","","","","","","NaN",""
"","S1","","html-keyboard-response","320","789704","0.0-1.0-443.0","0","0","29535","","null","","","null","49","","","","","","","","","","","","","","","",""
"","ISI","","html-keyboard-response","321","791717","0.0-1.0-444.0","0","0","29535","","null","","","null","49","NaN","","","","","","","","","","","","","","",""
"","S2","","html-keyboard-response","322","791881","0.0-1.0-445.0","0","0","29535","","null","","","null","49","","NaN","","","","","","","","","","","","","",""
"","response","","html-keyboard-response","323","792898","0.0-1.0-446.0-0.0","0","0","29535","","1009","","","75","49","","","2","49","training","adjacent","CB","3","2","O.jpg","R.jpg","1","0","0","",""
"","feedback","","html-keyboard-response","324","793911","0.0-1.0-447.0-0.0","0","0","29535","","null","","","null","49","","","","","","","","","","","","","","","",""
"","time_out","","html-keyboard-response","325","795926","0.0-1.0-449.0-0.0","0","0","29535","","null","","","null","49","","","","","","","","","","","","","","","",""
"","ITI","","html-keyboard-response","326","796940","0.0-1.0-450.0","0","0","29535","","null","","","null","49","","","","","","","","","","","","","","","NaN",""
"","S1","","html-keyboard-response","327","797102","0.0-1.0-452.0","0","0","29535","","null","","","null","50","","","","","","","","","","","","","","","",""
"","ISI","","html-keyboard-response","328","799115","0.0-1.0-453.0","0","0","29535","","null","","","null","50","NaN","","","","","","","","","","","","","","",""
"","S2","","html-keyboard-response","329","799282","0.0-1.0-454.0","0","0","29535","","null","","","null","50","","NaN","","","","","","","","","","","","","",""
"","response","","html-keyboard-response","330","800218","0.0-1.0-455.0-0.0","0","0","29535","","923","","","75","50","","","2","50","training","adjacent","DC","4","3","L.jpg","O.jpg","1","0","0","",""
"","feedback","","html-keyboard-response","331","801235","0.0-1.0-456.0-0.0","0","0","29535","","null","","","null","50","","","","","","","","","","","","","","","",""
"","time_out","","html-keyboard-response","332","803250","0.0-1.0-458.0-0.0","0","0","29535","","null","","","null","50","","","","","","","","","","","","","","","",""
"","ITI","","html-keyboard-response","333","804259","0.0-1.0-459.0","0","0","29535","","null","","","null","50","","","","","","","","","","","","","","","NaN",""
"","S1","","html-keyboard-response","334","804422","0.0-1.0-461.0","0","0","29535","","null","","","null","51","","","","","","","","","","","","","","","",""
"","ISI","","html-keyboard-response","335","806437","0.0-1.0-462.0","0","0","29535","","null","","","null","51","NaN","","","","","","","","","","","","","","",""
"","S2","","html-keyboard-response","336","806599","0.0-1.0-463.0","0","0","29535","","null","","","null","51","","NaN","","","","","","","","","","","","","",""
"","response","","html-keyboard-response","337","807330","0.0-1.0-464.0-0.0","0","0","29535","","721","","","68","51","","","2","51","training","adjacent","FG","6","7","P.jpg","Q.jpg","0","1","0","",""
"","feedback","","html-keyboard-response","338","808348","0.0-1.0-465.0-0.0","0","0","29535","","null","","","null","51","","","","","","","","","","","","","","","",""
"","time_out","","html-keyboard-response","339","810367","0.0-1.0-467.0-0.0","0","0","29535","","null","","","null","51","","","","","","","","","","","","","","","",""
"","ITI","","html-keyboard-response","340","811382","0.0-1.0-468.0","0","0","29535","","null","","","null","51","","","","","","","","","","","","","","","NaN",""
"","S1","","html-keyboard-response","341","811545","0.0-1.0-470.0","0","0","29535","","null","","","null","52","","","","","","","","","","","","","","","",""
"","ISI","","html-keyboard-response","342","813558","0.0-1.0-471.0","0","0","29535","","null","","","null","52","NaN","","","","","","","","","","","","","","",""
"","S2","","html-keyboard-response","343","813720","0.0-1.0-472.0","0","0","29535","","null","","","null","52","","NaN","","","","","","","","","","","","","",""
"","response","","html-keyboard-response","344","814718","0.0-1.0-473.0-0.0","0","0","29535","","986","","","75","52","","","2","52","training","adjacent","BA","2","1","R.jpg","M.jpg","1","0","0","",""
"","feedback","","html-keyboard-response","345","815735","0.0-1.0-474.0-0.0","0","0","29535","","null","","","null","52","","","","","","","","","","","","","","","",""
"","time_out","","html-keyboard-response","346","817752","0.0-1.0-476.0-0.0","0","0","29535","","null","","","null","52","","","","","","","","","","","","","","","",""
"","ITI","","html-keyboard-response","347","818765","0.0-1.0-477.0","0","0","29535","","null","","","null","52","","","","","","","","","","","","","","","NaN",""
"","S1","","html-keyboard-response","348","818926","0.0-1.0-479.0","0","0","29535","","null","","","null","53","","","","","","","","","","","","","","","",""
"","ISI","","html-keyboard-response","349","820939","0.0-1.0-480.0","0","0","29535","","null","","","null","53","NaN","","","","","","","","","","","","","","",""
"","S2","","html-keyboard-response","350","821104","0.0-1.0-481.0","0","0","29535","","null","","","null","53","","NaN","","","","","","","","","","","","","",""
"","response","","html-keyboard-response","351","821762","0.0-1.0-482.0-0.0","0","0","29535","","645","","","68","53","","","2","53","training","adjacent","DE","4","5","L.jpg","N.jpg","0","1","0","",""
"","feedback","","html-keyboard-response","352","822776","0.0-1.0-483.0-0.0","0","0","29535","","null","","","null","53","","","","","","","","","","","","","","","",""
"","time_out","","html-keyboard-response","353","824788","0.0-1.0-485.0-0.0","0","0","29535","","null","","","null","53","","","","","","","","","","","","","","","",""
"","ITI","","html-keyboard-response","354","825799","0.0-1.0-486.0","0","0","29535","","null","","","null","53","","","","","","","","","","","","","","","NaN",""
"","S1","","html-keyboard-response","355","825962","0.0-1.0-488.0","0","0","29535","","null","","","null","54","","","","","","","","","","","","","","","",""
"","ISI","","html-keyboard-response","356","827971","0.0-1.0-489.0","0","0","29535","","null","","","null","54","NaN","","","","","","","","","","","","","","",""
"","S2","","html-keyboard-response","357","828134","0.0-1.0-490.0","0","0","29535","","null","","","null","54","","NaN","","","","","","","","","","","","","",""
"","response","","html-keyboard-response","358","828827","0.0-1.0-491.0-0.0","0","0","29535","","679","","","75","54","","","2","54","training","adjacent","BC","2","3","R.jpg","O.jpg","1","1","1","",""
"","feedback","","html-keyboard-response","359","829844","0.0-1.0-492.0-0.0","0","0","29535","","null","","","null","54","","","","","","","","","","","","","","","",""
"","ITI","","html-keyboard-response","360","830860","0.0-1.0-495.0","0","0","29535","","null","","","null","54","","","","","","","","","","","","","","","NaN",""
"","S1","","html-keyboard-response","361","831024","0.0-1.0-497.0","0","0","29535","","null","","","null","55","","","","","","","","","","","","","","","",""
"","ISI","","html-keyboard-response","362","833036","0.0-1.0-498.0","0","0","29535","","null","","","null","55","NaN","","","","","","","","","","","","","","",""
"","S2","","html-keyboard-response","363","833211","0.0-1.0-499.0","0","0","29535","","null","","","null","55","","NaN","","","","","","","","","","","","","",""
"","response","","html-keyboard-response","364","834650","0.0-1.0-500.0-0.0","0","0","29535","","1426","","","75","55","","","2","55","training","adjacent","EF","5","6","N.jpg","P.jpg","1","1","1","",""
"","feedback","","html-keyboard-response","365","835668","0.0-1.0-501.0-0.0","0","0","29535","","null","","","null","55","","","","","","","","","","","","","","","",""
"","ITI","","html-keyboard-response","366","836683","0.0-1.0-504.0","0","0","29535","","null","","","null","55","","","","","","","","","","","","","","","NaN",""
"","S1","","html-keyboard-response","367","836844","0.0-1.0-506.0","0","0","29535","","null","","","null","56","","","","","","","","","","","","","","","",""
"","ISI","","html-keyboard-response","368","838857","0.0-1.0-507.0","0","0","29535","","null","","","null","56","NaN","","","","","","","","","","","","","","",""
"","S2","","html-keyboard-response","369","839023","0.0-1.0-508.0","0","0","29535","","null","","","null","56","","NaN","","","","","","","","","","","","","",""
"","response","","html-keyboard-response","370","840889","0.0-1.0-509.0-0.0","0","0","29535","","null","","","null","56","","","2","56","training","adjacent","AB","1","2","M.jpg","R.jpg","NaN","1","0","",""
"","too_slow_prompt","","html-keyboard-response","371","841900","0.0-1.0-511.0-0.0","1","0","29535","","null","","","null","","","","","","","","","","","","","","","","",""
"","time_out","","html-keyboard-response","372","843912","0.0-1.0-512.0-0.0","0","0","29535","","null","","","null","56","","","","","","","","","","","","","","","",""
"","ITI","","html-keyboard-response","373","844924","0.0-1.0-513.0","0","0","29535","","null","","","null","56","","","","","","","","","","","","","","","NaN",""
"","S1","","html-keyboard-response","374","845090","0.0-1.0-515.0","0","0","29535","","null","","","null","57","","","","","","","","","","","","","","","",""
"","ISI","","html-keyboard-response","375","847104","0.0-1.0-516.0","0","0","29535","","null","","","null","57","NaN","","","","","","","","","","","","","","",""
"","S2","","html-keyboard-response","376","847269","0.0-1.0-517.0","0","0","29535","","null","","","null","57","","NaN","","","","","","","","","","","","","",""
"","response","","html-keyboard-response","377","848466","0.0-1.0-518.0-0.0","0","0","29535","","1183","","","68","57","","","2","57","training","adjacent","FE","6","5","P.jpg","N.jpg","0","0","1","",""
"","feedback","","html-keyboard-response","378","849488","0.0-1.0-519.0-0.0","0","0","29535","","null","","","null","57","","","","","","","","","","","","","","","",""
"","ITI","","html-keyboard-response","379","850504","0.0-1.0-522.0","0","0","29535","","null","","","null","57","","","","","","","","","","","","","","","NaN",""
"","S1","","html-keyboard-response","380","850667","0.0-1.0-524.0","0","0","29535","","null","","","null","58","","","","","","","","","","","","","","","",""
"","ISI","","html-keyboard-response","381","852675","0.0-1.0-525.0","0","0","29535","","null","","","null","58","NaN","","","","","","","","","","","","","","",""
"","S2","","html-keyboard-response","382","852837","0.0-1.0-526.0","0","0","29535","","null","","","null","58","","NaN","","","","","","","","","","","","","",""
"","response","","html-keyboard-response","383","853664","0.0-1.0-527.0-0.0","0","0","29535","","814","","","75","58","","","2","58","training","adjacent","ED","5","4","N.jpg","L.jpg","1","0","0","",""
"","feedback","","html-keyboard-response","384","854681","0.0-1.0-528.0-0.0","0","0","29535","","null","","","null","58","","","","","","","","","","","","","","","",""
"","time_out","","html-keyboard-response","385","856697","0.0-1.0-530.0-0.0","0","0","29535","","null","","","null","58","","","","","","","","","","","","","","","",""
"","ITI","","html-keyboard-response","386","857710","0.0-1.0-531.0","0","0","29535","","null","","","null","58","","","","","","","","","","","","","","","NaN",""
"","S1","","html-keyboard-response","387","857873","0.0-1.0-533.0","0","0","29535","","null","","","null","59","","","","","","","","","","","","","","","",""
"","ISI","","html-keyboard-response","388","859885","0.0-1.0-534.0","0","0","29535","","null","","","null","59","NaN","","","","","","","","","","","","","","",""
"","S2","","html-keyboard-response","389","860053","0.0-1.0-535.0","0","0","29535","","null","","","null","59","","NaN","","","","","","","","","","","","","",""
"","response","","html-keyboard-response","390","861225","0.0-1.0-536.0-0.0","0","0","29535","","1158","","","75","59","","","2","59","training","adjacent","DC","4","3","L.jpg","O.jpg","1","0","0","",""
"","feedback","","html-keyboard-response","391","862245","0.0-1.0-537.0-0.0","0","0","29535","","null","","","null","59","","","","","","","","","","","","","","","",""
"","time_out","","html-keyboard-response","392","864260","0.0-1.0-539.0-0.0","0","0","29535","","null","","","null","59","","","","","","","","","","","","","","","",""
"","ITI","","html-keyboard-response","393","865273","0.0-1.0-540.0","0","0","29535","","null","","","null","59","","","","","","","","","","","","","","","NaN",""
"","S1","","html-keyboard-response","394","865437","0.0-1.0-542.0","0","0","29535","","null","","","null","60","","","","","","","","","","","","","","","",""
"","ISI","","html-keyboard-response","395","867450","0.0-1.0-543.0","0","0","29535","","null","","","null","60","NaN","","","","","","","","","","","","","","",""
"","S2","","html-keyboard-response","396","867617","0.0-1.0-544.0","0","0","29535","","null","","","null","60","","NaN","","","","","","","","","","","","","",""
"","response","","html-keyboard-response","397","868417","0.0-1.0-545.0-0.0","0","0","29535","","784","","","68","60","","","2","60","training","adjacent","FE","6","5","P.jpg","N.jpg","0","0","1","",""
"","feedback","","html-keyboard-response","398","869435","0.0-1.0-546.0-0.0","0","0","29535","","null","","","null","60","","","","","","","","","","","","","","","",""
"","ITI","","html-keyboard-response","399","870452","0.0-1.0-549.0","0","0","29535","","null","","","null","60","","","","","","","","","","","","","","","NaN",""
"","S1","","html-keyboard-response","400","870616","0.0-1.0-551.0","0","0","29535","","null","","","null","61","","","","","","","","","","","","","","","",""
"","ISI","","html-keyboard-response","401","872628","0.0-1.0-552.0","0","0","29535","","null","","","null","61","NaN","","","","","","","","","","","","","","",""
"","S2","","html-keyboard-response","402","872791","0.0-1.0-553.0","0","0","29535","","null","","","null","61","","NaN","","","","","","","","","","","","","",""
"","response","","html-keyboard-response","403","874177","0.0-1.0-554.0-0.0","0","0","29535","","1372","","","75","61","","","2","61","training","adjacent","BA","2","1","R.jpg","M.jpg","1","0","0","",""
"","feedback","","html-keyboard-response","404","875203","0.0-1.0-555.0-0.0","0","0","29535","","null","","","null","61","","","","","","","","","","","","","","","",""
"","time_out","","html-keyboard-response","405","877218","0.0-1.0-557.0-0.0","0","0","29535","","null","","","null","61","","","","","","","","","","","","","","","",""
"","ITI","","html-keyboard-response","406","878232","0.0-1.0-558.0","0","0","29535","","null","","","null","61","","","","","","","","","","","","","","","NaN",""
"","S1","","html-keyboard-response","407","878399","0.0-1.0-560.0","0","0","29535","","null","","","null","62","","","","","","","","","","","","","","","",""
"","ISI","","html-keyboard-response","408","880413","0.0-1.0-561.0","0","0","29535","","null","","","null","62","NaN","","","","","","","","","","","","","","",""
"","S2","","html-keyboard-response","409","880576","0.0-1.0-562.0","0","0","29535","","null","","","null","62","","NaN","","","","","","","","","","","","","",""
"","response","","html-keyboard-response","410","881584","0.0-1.0-563.0-0.0","0","0","29535","","996","","","68","62","","","2","62","training","adjacent","AB","1","2","M.jpg","R.jpg","0","1","0","",""
"","feedback","","html-keyboard-response","411","882600","0.0-1.0-564.0-0.0","0","0","29535","","null","","","null","62","","","","","","","","","","","","","","","",""
"","time_out","","html-keyboard-response","412","884615","0.0-1.0-566.0-0.0","0","0","29535","","null","","","null","62","","","","","","","","","","","","","","","",""
"","ITI","","html-keyboard-response","413","885629","0.0-1.0-567.0","0","0","29535","","null","","","null","62","","","","","","","","","","","","","","","NaN",""
"","S1","","html-keyboard-response","414","885792","0.0-1.0-569.0","0","0","29535","","null","","","null","63","","","","","","","","","","","","","","","",""
"","ISI","","html-keyboard-response","415","887806","0.0-1.0-570.0","0","0","29535","","null","","","null","63","NaN","","","","","","","","","","","","","","",""
"","S2","","html-keyboard-response","416","887970","0.0-1.0-571.0","0","0","29535","","null","","","null","63","","NaN","","","","","","","","","","","","","",""
"","response","","html-keyboard-response","417","888821","0.0-1.0-572.0-0.0","0","0","29535","","839","","","75","63","","","2","63","training","adjacent","GF","7","6","Q.jpg","P.jpg","1","0","0","",""
"","feedback","","html-keyboard-response","418","889836","0.0-1.0-573.0-0.0","0","0","29535","","null","","","null","63","","","","","","","","","","","","","","","",""
"","time_out","","html-keyboard-response","419","891854","0.0-1.0-575.0-0.0","0","0","29535","","null","","","null","63","","","","","","","","","","","","","","","",""
"","ITI","","html-keyboard-response","420","892866","0.0-1.0-576.0","0","0","29535","","null","","","null","63","","","","","","","","","","","","","","","NaN",""
"","S1","","html-keyboard-response","421","893029","0.0-1.0-578.0","0","0","29535","","null","","","null","64","","","","","","","","","","","","","","","",""
"","ISI","","html-keyboard-response","422","895042","0.0-1.0-579.0","0","0","29535","","null","","","null","64","NaN","","","","","","","","","","","","","","",""
"","S2","","html-keyboard-response","423","895209","0.0-1.0-580.0","0","0","29535","","null","","","null","64","","NaN","","","","","","","","","","","","","",""
"","response","","html-keyboard-response","424","896421","0.0-1.0-581.0-0.0","0","0","29535","","1198","","","68","64","","","2","64","training","adjacent","CB","3","2","O.jpg","R.jpg","0","0","1","",""
"","feedback","","html-keyboard-response","425","897439","0.0-1.0-582.0-0.0","0","0","29535","","null","","","null","64","","","","","","","","","","","","","","","",""
"","ITI","","html-keyboard-response","426","898456","0.0-1.0-585.0","0","0","29535","","null","","","null","64","","","","","","","","","","","","","","","NaN",""
"","S1","","html-keyboard-response","427","898635","0.0-1.0-587.0","0","0","29535","","null","","","null","65","","","","","","","","","","","","","","","",""
"","ISI","","html-keyboard-response","428","900649","0.0-1.0-588.0","0","0","29535","","null","","","null","65","NaN","","","","","","","","","","","","","","",""
"","S2","","html-keyboard-response","429","900812","0.0-1.0-589.0","0","0","29535","","null","","","null","65","","NaN","","","","","","","","","","","","","",""
"","response","","html-keyboard-response","430","901592","0.0-1.0-590.0-0.0","0","0","29535","","772","","","75","65","","","2","65","training","adjacent","BA","2","1","R.jpg","M.jpg","1","0","0","",""
"","feedback","","html-keyboard-response","431","902606","0.0-1.0-591.0-0.0","0","0","29535","","null","","","null","65","","","","","","","","","","","","","","","",""
"","time_out","","html-keyboard-response","432","904621","0.0-1.0-593.0-0.0","0","0","29535","","null","","","null","65","","","","","","","","","","","","","","","",""
"","ITI","","html-keyboard-response","433","905635","0.0-1.0-594.0","0","0","29535","","null","","","null","65","","","","","","","","","","","","","","","NaN",""
"","S1","","html-keyboard-response","434","905811","0.0-1.0-596.0","0","0","29535","","null","","","null","66","","","","","","","","","","","","","","","",""
"","ISI","","html-keyboard-response","435","907824","0.0-1.0-597.0","0","0","29535","","null","","","null","66","NaN","","","","","","","","","","","","","","",""
"","S2","","html-keyboard-response","436","907991","0.0-1.0-598.0","0","0","29535","","null","","","null","66","","NaN","","","","","","","","","","","","","",""
"","response","","html-keyboard-response","437","909232","0.0-1.0-599.0-0.0","0","0","29535","","1227","","","68","66","","","2","66","training","adjacent","BC","2","3","R.jpg","O.jpg","0","1","0","",""
"","feedback","","html-keyboard-response","438","910251","0.0-1.0-600.0-0.0","0","0","29535","","null","","","null","66","","","","","","","","","","","","","","","",""
"","time_out","","html-keyboard-response","439","912262","0.0-1.0-602.0-0.0","0","0","29535","","null","","","null","66","","","","","","","","","","","","","","","",""
"","ITI","","html-keyboard-response","440","913275","0.0-1.0-603.0","0","0","29535","","null","","","null","66","","","","","","","","","","","","","","","NaN",""
"","S1","","html-keyboard-response","441","913436","0.0-1.0-605.0","0","0","29535","","null","","","null","67","","","","","","","","","","","","","","","",""
"","ISI","","html-keyboard-response","442","915448","0.0-1.0-606.0","0","0","29535","","null","","","null","67","NaN","","","","","","","","","","","","","","",""
"","S2","","html-keyboard-response","443","915610","0.0-1.0-607.0","0","0","29535","","null","","","null","67","","NaN","","","","","","","","","","","","","",""
"","response","","html-keyboard-response","444","916621","0.0-1.0-608.0-0.0","0","0","29535","","998","","","68","67","","","2","67","training","adjacent","CD","3","4","O.jpg","L.jpg","0","1","0","",""
"","feedback","","html-keyboard-response","445","917639","0.0-1.0-609.0-0.0","0","0","29535","","null","","","null","67","","","","","","","","","","","","","","","",""
"","time_out","","html-keyboard-response","446","919655","0.0-1.0-611.0-0.0","0","0","29535","","null","","","null","67","","","","","","","","","","","","","","","",""
"","ITI","","html-keyboard-response","447","920670","0.0-1.0-612.0","0","0","29535","","null","","","null","67","","","","","","","","","","","","","","","NaN",""
"","S1","","html-keyboard-response","448","920833","0.0-1.0-614.0","0","0","29535","","null","","","null","68","","","","","","","","","","","","","","","",""
"","ISI","","html-keyboard-response","449","922846","0.0-1.0-615.0","0","0","29535","","null","","","null","68","NaN","","","","","","","","","","","","","","",""
"","S2","","html-keyboard-response","450","923014","0.0-1.0-616.0","0","0","29535","","null","","","null","68","","NaN","","","","","","","","","","","","","",""
"","response","","html-keyboard-response","451","923940","0.0-1.0-617.0-0.0","0","0","29535","","911","","","68","68","","","2","68","training","adjacent","FG","6","7","P.jpg","Q.jpg","0","1","0","",""
"","feedback","","html-keyboard-response","452","924961","0.0-1.0-618.0-0.0","0","0","29535","","null","","","null","68","","","","","","","","","","","","","","","",""
"","time_out","","html-keyboard-response","453","926978","0.0-1.0-620.0-0.0","0","0","29535","","null","","","null","68","","","","","","","","","","","","","","","",""
"","ITI","","html-keyboard-response","454","927987","0.0-1.0-621.0","0","0","29535","","null","","","null","68","","","","","","","","","","","","","","","NaN",""
"","S1","","html-keyboard-response","455","928150","0.0-1.0-623.0","0","0","29535","","null","","","null","69","","","","","","","","","","","","","","","",""
"","ISI","","html-keyboard-response","456","930163","0.0-1.0-624.0","0","0","29535","","null","","","null","69","NaN","","","","","","","","","","","","","","",""
"","S2","","html-keyboard-response","457","930329","0.0-1.0-625.0","0","0","29535","","null","","","null","69","","NaN","","","","","","","","","","","","","",""
"","response","","html-keyboard-response","458","930994","0.0-1.0-626.0-0.0","0","0","29535","","650","","","75","69","","","2","69","training","adjacent","GF","7","6","Q.jpg","P.jpg","1","0","0","",""
"","feedback","","html-keyboard-response","459","932010","0.0-1.0-627.0-0.0","0","0","29535","","null","","","null","69","","","","","","","","","","","","","","","",""
"","time_out","","html-keyboard-response","460","934023","0.0-1.0-629.0-0.0","0","0","29535","","null","","","null","69","","","","","","","","","","","","","","","",""
"","ITI","","html-keyboard-response","461","935036","0.0-1.0-630.0","0","0","29535","","null","","","null","69","","","","","","","","","","","","","","","NaN",""
"","S1","","html-keyboard-response","462","935197","0.0-1.0-632.0","0","0","29535","","null","","","null","70","","","","","","","","","","","","","","","",""
"","ISI","","html-keyboard-response","463","937209","0.0-1.0-633.0","0","0","29535","","null","","","null","70","NaN","","","","","","","","","","","","","","",""
"","S2","","html-keyboard-response","464","937381","0.0-1.0-634.0","0","0","29535","","null","","","null","70","","NaN","","","","","","","","","","","","","",""
"","response","","html-keyboard-response","465","938396","0.0-1.0-635.0-0.0","0","0","29535","","1001","","","68","70","","","2","70","training","adjacent","BA","2","1","R.jpg","M.jpg","0","0","1","",""
"","feedback","","html-keyboard-response","466","939415","0.0-1.0-636.0-0.0","0","0","29535","","null","","","null","70","","","","","","","","","","","","","","","",""
"","ITI","","html-keyboard-response","467","940431","0.0-1.0-639.0","0","0","29535","","null","","","null","70","","","","","","","","","","","","","","","NaN",""
"","S1","","html-keyboard-response","468","940598","0.0-1.0-641.0","0","0","29535","","null","","","null","71","","","","","","","","","","","","","","","",""
"","ISI","","html-keyboard-response","469","942611","0.0-1.0-642.0","0","0","29535","","null","","","null","71","NaN","","","","","","","","","","","","","","",""
"","S2","","html-keyboard-response","470","942775","0.0-1.0-643.0","0","0","29535","","null","","","null","71","","NaN","","","","","","","","","","","","","",""
"","response","","html-keyboard-response","471","943996","0.0-1.0-644.0-0.0","0","0","29535","","1209","","","75","71","","","2","71","training","adjacent","ED","5","4","N.jpg","L.jpg","1","0","0","",""
"","feedback","","html-keyboard-response","472","945017","0.0-1.0-645.0-0.0","0","0","29535","","null","","","null","71","","","","","","","","","","","","","","","",""
"","time_out","","html-keyboard-response","473","947028","0.0-1.0-647.0-0.0","0","0","29535","","null","","","null","71","","","","","","","","","","","","","","","",""
"","ITI","","html-keyboard-response","474","948041","0.0-1.0-648.0","0","0","29535","","null","","","null","71","","","","","","","","","","","","","","","NaN",""
"","S1","","html-keyboard-response","475","948200","0.0-1.0-650.0","0","0","29535","","null","","","null","72","","","","","","","","","","","","","","","",""
"","ISI","","html-keyboard-response","476","950209","0.0-1.0-651.0","0","0","29535","","null","","","null","72","NaN","","","","","","","","","","","","","","",""
"","S2","","html-keyboard-response","477","950369","0.0-1.0-652.0","0","0","29535","","null","","","null","72","","NaN","","","","","","","","","","","","","",""
"","response","","html-keyboard-response","478","951368","0.0-1.0-653.0-0.0","0","0","29535","","990","","","68","72","","","2","72","training","adjacent","GF","7","6","Q.jpg","P.jpg","0","0","1","",""
"","feedback","","html-keyboard-response","479","952382","0.0-1.0-654.0-0.0","0","0","29535","","null","","","null","72","","","","","","","","","","","","","","","",""
"","ITI","","html-keyboard-response","480","953392","0.0-1.0-657.0","0","0","29535","","null","","","null","72","","","","","","","","","","","","","","","NaN",""
"","S1","","html-keyboard-response","481","953550","0.0-1.0-659.0","0","0","29535","","null","","","null","73","","","","","","","","","","","","","","","",""
"","ISI","","html-keyboard-response","482","955567","0.0-1.0-660.0","0","0","29535","","null","","","null","73","NaN","","","","","","","","","","","","","","",""
"","S2","","html-keyboard-response","483","955729","0.0-1.0-661.0","0","0","29535","","null","","","null","73","","NaN","","","","","","","","","","","","","",""
"","response","","html-keyboard-response","484","956499","0.0-1.0-662.0-0.0","0","0","29535","","762","","","68","73","","","2","73","training","adjacent","ED","5","4","N.jpg","L.jpg","0","0","1","",""
"","feedback","","html-keyboard-response","485","957510","0.0-1.0-663.0-0.0","0","0","29535","","null","","","null","73","","","","","","","","","","","","","","","",""
"","ITI","","html-keyboard-response","486","958519","0.0-1.0-666.0","0","0","29535","","null","","","null","73","","","","","","","","","","","","","","","NaN",""
"","S1","","html-keyboard-response","487","958679","0.0-1.0-668.0","0","0","29535","","null","","","null","74","","","","","","","","","","","","","","","",""
"","ISI","","html-keyboard-response","488","960689","0.0-1.0-669.0","0","0","29535","","null","","","null","74","NaN","","","","","","","","","","","","","","",""
"","S2","","html-keyboard-response","489","960848","0.0-1.0-670.0","0","0","29535","","null","","","null","74","","NaN","","","","","","","","","","","","","",""
"","response","","html-keyboard-response","490","961658","0.0-1.0-671.0-0.0","0","0","29535","","802","","","68","74","","","2","74","training","adjacent","AB","1","2","M.jpg","R.jpg","0","1","0","",""
"","feedback","","html-keyboard-response","491","962667","0.0-1.0-672.0-0.0","0","0","29535","","null","","","null","74","","","","","","","","","","","","","","","",""
"","time_out","","html-keyboard-response","492","964676","0.0-1.0-674.0-0.0","0","0","29535","","null","","","null","74","","","","","","","","","","","","","","","",""
"","ITI","","html-keyboard-response","493","965685","0.0-1.0-675.0","0","0","29535","","null","","","null","74","","","","","","","","","","","","","","","NaN",""
"","S1","","html-keyboard-response","494","965851","0.0-1.0-677.0","0","0","29535","","null","","","null","75","","","","","","","","","","","","","","","",""
"","ISI","","html-keyboard-response","495","967862","0.0-1.0-678.0","0","0","29535","","null","","","null","75","NaN","","","","","","","","","","","","","","",""
"","S2","","html-keyboard-response","496","968026","0.0-1.0-679.0","0","0","29535","","null","","","null","75","","NaN","","","","","","","","","","","","","",""
"","response","","html-keyboard-response","497","969119","0.0-1.0-680.0-0.0","0","0","29535","","1084","","","68","75","","","2","75","training","adjacent","AB","1","2","M.jpg","R.jpg","0","1","0","",""
"","feedback","","html-keyboard-response","498","970133","0.0-1.0-681.0-0.0","0","0","29535","","null","","","null","75","","","","","","","","","","","","","","","",""
"","time_out","","html-keyboard-response","499","972151","0.0-1.0-683.0-0.0","0","0","29535","","null","","","null","75","","","","","","","","","","","","","","","",""
"","ITI","","html-keyboard-response","500","973163","0.0-1.0-684.0","0","0","29535","","null","","","null","75","","","","","","","","","","","","","","","NaN",""
"","S1","","html-keyboard-response","501","973328","0.0-1.0-686.0","0","0","29535","","null","","","null","76","","","","","","","","","","","","","","","",""
"","ISI","","html-keyboard-response","502","975337","0.0-1.0-687.0","0","0","29535","","null","","","null","76","NaN","","","","","","","","","","","","","","",""
"","S2","","html-keyboard-response","503","975503","0.0-1.0-688.0","0","0","29535","","null","","","null","76","","NaN","","","","","","","","","","","","","",""
"","response","","html-keyboard-response","504","976204","0.0-1.0-689.0-0.0","0","0","29535","","693","","","75","76","","","2","76","training","adjacent","BC","2","3","R.jpg","O.jpg","1","1","1","",""
"","feedback","","html-keyboard-response","505","977217","0.0-1.0-690.0-0.0","0","0","29535","","null","","","null","76","","","","","","","","","","","","","","","",""
"","ITI","","html-keyboard-response","506","978230","0.0-1.0-693.0","0","0","29535","","null","","","null","76","","","","","","","","","","","","","","","NaN",""
"","S1","","html-keyboard-response","507","978393","0.0-1.0-695.0","0","0","29535","","null","","","null","77","","","","","","","","","","","","","","","",""
"","ISI","","html-keyboard-response","508","980403","0.0-1.0-696.0","0","0","29535","","null","","","null","77","NaN","","","","","","","","","","","","","","",""
"","S2","","html-keyboard-response","509","980569","0.0-1.0-697.0","0","0","29535","","null","","","null","77","","NaN","","","","","","","","","","","","","",""
"","response","","html-keyboard-response","510","981629","0.0-1.0-698.0-0.0","0","0","29535","","1052","","","68","77","","","2","77","training","adjacent","CD","3","4","O.jpg","L.jpg","0","1","0","",""
"","feedback","","html-keyboard-response","511","982645","0.0-1.0-699.0-0.0","0","0","29535","","null","","","null","77","","","","","","","","","","","","","","","",""
"","time_out","","html-keyboard-response","512","984665","0.0-1.0-701.0-0.0","0","0","29535","","null","","","null","77","","","","","","","","","","","","","","","",""
"","ITI","","html-keyboard-response","513","985691","0.0-1.0-702.0","0","0","29535","","null","","","null","77","","","","","","","","","","","","","","","NaN",""
"","S1","","html-keyboard-response","514","985855","0.0-1.0-704.0","0","0","29535","","null","","","null","78","","","","","","","","","","","","","","","",""
"","ISI","","html-keyboard-response","515","987865","0.0-1.0-705.0","0","0","29535","","null","","","null","78","NaN","","","","","","","","","","","","","","",""
"","S2","","html-keyboard-response","516","988025","0.0-1.0-706.0","0","0","29535","","null","","","null","78","","NaN","","","","","","","","","","","","","",""
"","response","","html-keyboard-response","517","988891","0.0-1.0-707.0-0.0","0","0","29535","","857","","","75","78","","","2","78","training","adjacent","EF","5","6","N.jpg","P.jpg","1","1","1","",""
"","feedback","","html-keyboard-response","518","989903","0.0-1.0-708.0-0.0","0","0","29535","","null","","","null","78","","","","","","","","","","","","","","","",""
"","ITI","","html-keyboard-response","519","990915","0.0-1.0-711.0","0","0","29535","","null","","","null","78","","","","","","","","","","","","","","","NaN",""
"","S1","","html-keyboard-response","520","991091","0.0-1.0-713.0","0","0","29535","","null","","","null","79","","","","","","","","","","","","","","","",""
"","ISI","","html-keyboard-response","521","993102","0.0-1.0-714.0","0","0","29535","","null","","","null","79","NaN","","","","","","","","","","","","","","",""
"","S2","","html-keyboard-response","522","993263","0.0-1.0-715.0","0","0","29535","","null","","","null","79","","NaN","","","","","","","","","","","","","",""
"","response","","html-keyboard-response","523","994199","0.0-1.0-716.0-0.0","0","0","29535","","928","","","75","79","","","2","79","training","adjacent","ED","5","4","N.jpg","L.jpg","1","0","0","",""
"","feedback","","html-keyboard-response","524","995214","0.0-1.0-717.0-0.0","0","0","29535","","null","","","null","79","","","","","","","","","","","","","","","",""
"","time_out","","html-keyboard-response","525","997230","0.0-1.0-719.0-0.0","0","0","29535","","null","","","null","79","","","","","","","","","","","","","","","",""
"","ITI","","html-keyboard-response","526","998240","0.0-1.0-720.0","0","0","29535","","null","","","null","79","","","","","","","","","","","","","","","NaN",""
"","S1","","html-keyboard-response","527","998400","0.0-1.0-722.0","0","0","29535","","null","","","null","80","","","","","","","","","","","","","","","",""
"","ISI","","html-keyboard-response","528","1000411","0.0-1.0-723.0","0","0","29535","","null","","","null","80","NaN","","","","","","","","","","","","","","",""
"","S2","","html-keyboard-response","529","1000577","0.0-1.0-724.0","0","0","29535","","null","","","null","80","","NaN","","","","","","","","","","","","","",""
"","response","","html-keyboard-response","530","1001480","0.0-1.0-725.0-0.0","0","0","29535","","894","","","68","80","","","2","80","training","adjacent","FE","6","5","P.jpg","N.jpg","0","0","1","",""
"","feedback","","html-keyboard-response","531","1002496","0.0-1.0-726.0-0.0","0","0","29535","","null","","","null","80","","","","","","","","","","","","","","","",""
"","ITI","","html-keyboard-response","532","1003510","0.0-1.0-729.0","0","0","29535","","null","","","null","80","","","","","","","","","","","","","","","NaN",""
"","S1","","html-keyboard-response","533","1003671","0.0-1.0-731.0","0","0","29535","","null","","","null","81","","","","","","","","","","","","","","","",""
"","ISI","","html-keyboard-response","534","1005685","0.0-1.0-732.0","0","0","29535","","null","","","null","81","NaN","","","","","","","","","","","","","","",""
"","S2","","html-keyboard-response","535","1005848","0.0-1.0-733.0","0","0","29535","","null","","","null","81","","NaN","","","","","","","","","","","","","",""
"","response","","html-keyboard-response","536","1006897","0.0-1.0-734.0-0.0","0","0","29535","","1037","","","75","81","","","2","81","training","adjacent","GF","7","6","Q.jpg","P.jpg","1","0","0","",""
"","feedback","","html-keyboard-response","537","1007910","0.0-1.0-735.0-0.0","0","0","29535","","null","","","null","81","","","","","","","","","","","","","","","",""
"","time_out","","html-keyboard-response","538","1009925","0.0-1.0-737.0-0.0","0","0","29535","","null","","","null","81","","","","","","","","","","","","","","","",""
"","ITI","","html-keyboard-response","539","1010940","0.0-1.0-738.0","0","0","29535","","null","","","null","81","","","","","","","","","","","","","","","NaN",""
"","S1","","html-keyboard-response","540","1011107","0.0-1.0-740.0","0","0","29535","","null","","","null","82","","","","","","","","","","","","","","","",""
"","ISI","","html-keyboard-response","541","1013122","0.0-1.0-741.0","0","0","29535","","null","","","null","82","NaN","","","","","","","","","","","","","","",""
"","S2","","html-keyboard-response","542","1013288","0.0-1.0-742.0","0","0","29535","","null","","","null","82","","NaN","","","","","","","","","","","","","",""
"","response","","html-keyboard-response","543","1014077","0.0-1.0-743.0-0.0","0","0","29535","","776","","","68","82","","","2","82","training","adjacent","EF","5","6","N.jpg","P.jpg","0","1","0","",""
"","feedback","","html-keyboard-response","544","1015093","0.0-1.0-744.0-0.0","0","0","29535","","null","","","null","82","","","","","","","","","","","","","","","",""
"","time_out","","html-keyboard-response","545","1017111","0.0-1.0-746.0-0.0","0","0","29535","","null","","","null","82","","","","","","","","","","","","","","","",""
"","ITI","","html-keyboard-response","546","1018124","0.0-1.0-747.0","0","0","29535","","null","","","null","82","","","","","","","","","","","","","","","NaN",""
"","S1","","html-keyboard-response","547","1018289","0.0-1.0-749.0","0","0","29535","","null","","","null","83","","","","","","","","","","","","","","","",""
"","ISI","","html-keyboard-response","548","1020303","0.0-1.0-750.0","0","0","29535","","null","","","null","83","NaN","","","","","","","","","","","","","","",""
"","S2","","html-keyboard-response","549","1020470","0.0-1.0-751.0","0","0","29535","","null","","","null","83","","NaN","","","","","","","","","","","","","",""
"","response","","html-keyboard-response","550","1021443","0.0-1.0-752.0-0.0","0","0","29535","","959","","","68","83","","","2","83","training","adjacent","FG","6","7","P.jpg","Q.jpg","0","1","0","",""
"","feedback","","html-keyboard-response","551","1022459","0.0-1.0-753.0-0.0","0","0","29535","","null","","","null","83","","","","","","","","","","","","","","","",""
"","time_out","","html-keyboard-response","552","1024474","0.0-1.0-755.0-0.0","0","0","29535","","null","","","null","83","","","","","","","","","","","","","","","",""
"","ITI","","html-keyboard-response","553","1025488","0.0-1.0-756.0","0","0","29535","","null","","","null","83","","","","","","","","","","","","","","","NaN",""
"","S1","","html-keyboard-response","554","1025654","0.0-1.0-758.0","0","0","29535","","null","","","null","84","","","","","","","","","","","","","","","",""
"","ISI","","html-keyboard-response","555","1027668","0.0-1.0-759.0","0","0","29535","","775","","","75","84","k","","","","","","","","","","","","","","",""
"","S2","","html-keyboard-response","556","1027833","0.0-1.0-760.0","0","0","29535","","null","","","null","84","","NaN","","","","","","","","","","","","","",""
"","response","","html-keyboard-response","557","1028764","0.0-1.0-761.0-0.0","0","0","29535","","922","","","68","84","","","2","84","training","adjacent","FG","6","7","P.jpg","Q.jpg","0","1","0","",""
"","feedback","","html-keyboard-response","558","1029779","0.0-1.0-762.0-0.0","0","0","29535","","null","","","null","84","","","","","","","","","","","","","","","",""
"","time_out","","html-keyboard-response","559","1031799","0.0-1.0-764.0-0.0","0","0","29535","","null","","","null","84","","","","","","","","","","","","","","","",""
"","ITI","","html-keyboard-response","560","1032814","0.0-1.0-765.0","0","0","29535","","null","","","null","84","","","","","","","","","","","","","","","NaN",""
"","S1","","html-keyboard-response","561","1032981","0.0-1.0-767.0","0","0","29535","","null","","","null","85","","","","","","","","","","","","","","","",""
"","ISI","","html-keyboard-response","562","1034994","0.0-1.0-768.0","0","0","29535","","null","","","null","85","NaN","","","","","","","","","","","","","","",""
"","S2","","html-keyboard-response","563","1035156","0.0-1.0-769.0","0","0","29535","","null","","","null","85","","NaN","","","","","","","","","","","","","",""
"","response","","html-keyboard-response","564","1036181","0.0-1.0-770.0-0.0","0","0","29535","","1014","","","75","85","","","2","85","training","adjacent","BC","2","3","R.jpg","O.jpg","1","1","1","",""
"","feedback","","html-keyboard-response","565","1037197","0.0-1.0-771.0-0.0","0","0","29535","","null","","","null","85","","","","","","","","","","","","","","","",""
"","ITI","","html-keyboard-response","566","1038212","0.0-1.0-774.0","0","0","29535","","null","","","null","85","","","","","","","","","","","","","","","NaN",""
"","S1","","html-keyboard-response","567","1038379","0.0-1.0-776.0","0","0","29535","","null","","","null","86","","","","","","","","","","","","","","","",""
"","ISI","","html-keyboard-response","568","1040392","0.0-1.0-777.0","0","0","29535","","null","","","null","86","NaN","","","","","","","","","","","","","","",""
"","S2","","html-keyboard-response","569","1040559","0.0-1.0-778.0","0","0","29535","","null","","","null","86","","NaN","","","","","","","","","","","","","",""
"","response","","html-keyboard-response","570","1041199","0.0-1.0-779.0-0.0","0","0","29535","","627","","","68","86","","","2","86","training","adjacent","CB","3","2","O.jpg","R.jpg","0","0","1","",""
"","feedback","","html-keyboard-response","571","1042213","0.0-1.0-780.0-0.0","0","0","29535","","null","","","null","86","","","","","","","","","","","","","","","",""
"","ITI","","html-keyboard-response","572","1043228","0.0-1.0-783.0","0","0","29535","","null","","","null","86","","","","","","","","","","","","","","","NaN",""
"","S1","","html-keyboard-response","573","1043390","0.0-1.0-785.0","0","0","29535","","null","","","null","87","","","","","","","","","","","","","","","",""
"","ISI","","html-keyboard-response","574","1045404","0.0-1.0-786.0","0","0","29535","","null","","","null","87","NaN","","","","","","","","","","","","","","",""
"","S2","","html-keyboard-response","575","1045568","0.0-1.0-787.0","0","0","29535","","null","","","null","87","","NaN","","","","","","","","","","","","","",""
"","response","","html-keyboard-response","576","1046482","0.0-1.0-788.0-0.0","0","0","29535","","901","","","75","87","","","2","87","training","adjacent","DC","4","3","L.jpg","O.jpg","1","0","0","",""
"","feedback","","html-keyboard-response","577","1047502","0.0-1.0-789.0-0.0","0","0","29535","","null","","","null","87","","","","","","","","","","","","","","","",""
"","time_out","","html-keyboard-response","578","1049521","0.0-1.0-791.0-0.0","0","0","29535","","null","","","null","87","","","","","","","","","","","","","","","",""
"","ITI","","html-keyboard-response","579","1050534","0.0-1.0-792.0","0","0","29535","","null","","","null","87","","","","","","","","","","","","","","","NaN",""
