"success","ttype","start_time","trial_type","trial_index","time_elapsed","internal_node_id","warning","missed_checkup","PID","view_history","rt","responses","repeat_instructions","key_press","index","keypress_isi","keypress_S2","block","trial_num","phase","group_type","pair_type","S1_stim","S2_stim","S1_img","S2_img","S1_chosen","S1_higher","accuracy","keypress_iti","total_bonus_tally"
"true","full_screen","d04132023hr1749","fullscreen","0","5768","0.0-0.0","0","0","78943","","","","","","","","","","","","","","","","","","","","","",""
"","instructions","","instructions","1","26569","0.0-1.0-0.0-0.0","0","0","78943","[{""page_index"":0,""viewing_time"":2899},{""page_index"":1,""viewing_time"":7580},{""page_index"":2,""viewing_time"":7751},{""page_index"":3,""viewing_time"":2569}]","20799","","","","","","","","","","","","","","","","","","","",""
"","comprehension_check","","survey-multi-choice","2","45384","0.0-1.0-0.0-1.0","0","0","78943","","18812","{""Q0"":""True"",""Q1"":""K"",""Q2"":""Once the second image appears and while the screen 'MAKE A CHOICE' is shown"",""Q3"":""Green mark"",""Q4"":""either D or K""}","0","","","","","","","","","","","","","","","","","",""
"","start_exp","","html-keyboard-response","3","47095","0.0-1.0-1.0","0","0","78943","","1708","","","32","","","","","","","","","","","","","","","","",""
"","S1","","html-keyboard-response","4","47354","0.0-1.0-2.0","0","0","78943","","null","","","null","0","","","","","","","","","","","","","","","",""
"","ISI","","html-keyboard-response","5","48356","0.0-1.0-3.0","0","0","78943","","null","","","null","0","NaN","","","","","","","","","","","","","","",""
"","S2","","html-keyboard-response","6","48622","0.0-1.0-4.0","0","0","78943","","null","","","null","0","","NaN","","","","","","","","","","","","","",""
"","response","","html-keyboard-response","7","49631","0.0-1.0-5.0-0.0","0","0","78943","","1008","","","75","0","","","1","0","training","adjacent","CB","3","2","L.jpg","P.jpg","1","0","0","",""
"","feedback","","html-keyboard-response","8","50633","0.0-1.0-6.0-0.0","0","0","78943","","null","","","null","0","","","","","","","","","","","","","","","",""
"","time_out","","html-keyboard-response","9","52635","0.0-1.0-8.0-0.0","0","0","78943","","null","","","null","0","","","","","","","","","","","","","","","",""
"","ITI","","html-keyboard-response","10","53637","0.0-1.0-9.0","0","0","78943","","null","","","null","0","","","","","","","","","","","","","","","NaN",""
"","S1","","html-keyboard-response","11","53889","0.0-1.0-11.0","0","0","78943","","null","","","null","1","","","","","","","","","","","","","","","",""
"","ISI","","html-keyboard-response","12","54891","0.0-1.0-12.0","0","0","78943","","null","","","null","1","NaN","","","","","","","","","","","","","","",""
"","S2","","html-keyboard-response","13","55143","0.0-1.0-13.0","0","0","78943","","null","","","null","1","","NaN","","","","","","","","","","","","","",""
"","response","","html-keyboard-response","14","55753","0.0-1.0-14.0-0.0","0","0","78943","","609","","","68","1","","","1","1","training","adjacent","FG","6","7","M.jpg","N.jpg","0","1","0","",""
"","feedback","","html-keyboard-response","15","56764","0.0-1.0-15.0-0.0","0","0","78943","","null","","","null","1","","","","","","","","","","","","","","","",""
"","time_out","","html-keyboard-response","16","58766","0.0-1.0-17.0-0.0","0","0","78943","","null","","","null","1","","","","","","","","","","","","","","","",""
"","ITI","","html-keyboard-response","17","59768","0.0-1.0-18.0","0","0","78943","","null","","","null","1","","","","","","","","","","","","","","","NaN",""
"","S1","","html-keyboard-response","18","60020","0.0-1.0-20.0","0","0","78943","","null","","","null","2","","","","","","","","","","","","","","","",""
"","ISI","","html-keyboard-response","19","61035","0.0-1.0-21.0","0","0","78943","","null","","","null","2","NaN","","","","","","","","","","","","","","",""
"","S2","","html-keyboard-response","20","61288","0.0-1.0-22.0","0","0","78943","","null","","","null","2","","NaN","","","","","","","","","","","","","",""
"","response","","html-keyboard-response","21","61771","0.0-1.0-23.0-0.0","0","0","78943","","481","","","68","2","","","1","2","training","adjacent","CB","3","2","L.jpg","P.jpg","0","0","1","",""
"","feedback","","html-keyboard-response","22","62773","0.0-1.0-24.0-0.0","0","0","78943","","null","","","null","2","","","","","","","","","","","","","","","",""
"","ITI","","html-keyboard-response","23","63775","0.0-1.0-27.0","0","0","78943","","null","","","null","2","","","","","","","","","","","","","","","NaN",""
"","S1","","html-keyboard-response","24","64028","0.0-1.0-29.0","0","0","78943","","null","","","null","3","","","","","","","","","","","","","","","",""
"","ISI","","html-keyboard-response","25","65030","0.0-1.0-30.0","0","0","78943","","null","","","null","3","NaN","","","","","","","","","","","","","","",""
"","S2","","html-keyboard-response","26","65282","0.0-1.0-31.0","0","0","78943","","null","","","null","3","","NaN","","","","","","","","","","","","","",""
"","response","","html-keyboard-response","27","66007","0.0-1.0-32.0-0.0","0","0","78943","","724","","","75","3","","","1","3","training","adjacent","FG","6","7","M.jpg","N.jpg","1","1","1","",""
"","feedback","","html-keyboard-response","28","67011","0.0-1.0-33.0-0.0","0","0","78943","","null","","","null","3","","","","","","","","","","","","","","","",""
"","ITI","","html-keyboard-response","29","68013","0.0-1.0-36.0","0","0","78943","","null","","","null","3","","","","","","","","","","","","","","","NaN",""
"","S1","","html-keyboard-response","30","68278","0.0-1.0-38.0","0","0","78943","","null","","","null","4","","","","","","","","","","","","","","","",""
"","ISI","","html-keyboard-response","31","69280","0.0-1.0-39.0","0","0","78943","","null","","","null","4","NaN","","","","","","","","","","","","","","",""
"","S2","","html-keyboard-response","32","69532","0.0-1.0-40.0","0","0","78943","","null","","","null","4","","NaN","","","","","","","","","","","","","",""
"","response","","html-keyboard-response","33","70152","0.0-1.0-41.0-0.0","0","0","78943","","620","","","68","4","","","1","4","training","adjacent","FE","6","5","M.jpg","R.jpg","0","0","1","",""
"","feedback","","html-keyboard-response","34","71155","0.0-1.0-42.0-0.0","0","0","78943","","null","","","null","4","","","","","","","","","","","","","","","",""
"","ITI","","html-keyboard-response","35","72157","0.0-1.0-45.0","0","0","78943","","null","","","null","4","","","","","","","","","","","","","","","NaN",""
"","S1","","html-keyboard-response","36","72410","0.0-1.0-47.0","0","0","78943","","null","","","null","5","","","","","","","","","","","","","","","",""
"","ISI","","html-keyboard-response","37","73412","0.0-1.0-48.0","0","0","78943","","null","","","null","5","NaN","","","","","","","","","","","","","","",""
"","S2","","html-keyboard-response","38","73664","0.0-1.0-49.0","0","0","78943","","null","","","null","5","","NaN","","","","","","","","","","","","","",""
"","response","","html-keyboard-response","39","74018","0.0-1.0-50.0-0.0","0","0","78943","","354","","","68","5","","","1","5","training","adjacent","BC","2","3","P.jpg","L.jpg","0","1","0","",""
"","feedback","","html-keyboard-response","40","75022","0.0-1.0-51.0-0.0","0","0","78943","","null","","","null","5","","","","","","","","","","","","","","","",""
"","time_out","","html-keyboard-response","41","77024","0.0-1.0-53.0-0.0","0","0","78943","","null","","","null","5","","","","","","","","","","","","","","","",""
"","ITI","","html-keyboard-response","42","78027","0.0-1.0-54.0","0","0","78943","","null","","","null","5","","","","","","","","","","","","","","","NaN",""
"","S1","","html-keyboard-response","43","78278","0.0-1.0-56.0","0","0","78943","","null","","","null","6","","","","","","","","","","","","","","","",""
"","ISI","","html-keyboard-response","44","79281","0.0-1.0-57.0","0","0","78943","","null","","","null","6","NaN","","","","","","","","","","","","","","",""
"","S2","","html-keyboard-response","45","79532","0.0-1.0-58.0","0","0","78943","","null","","","null","6","","NaN","","","","","","","","","","","","","",""
"","response","","html-keyboard-response","46","79917","0.0-1.0-59.0-0.0","0","0","78943","","383","","","75","6","","","1","6","training","adjacent","DE","4","5","Q.jpg","R.jpg","1","1","1","",""
"","feedback","","html-keyboard-response","47","80920","0.0-1.0-60.0-0.0","0","0","78943","","null","","","null","6","","","","","","","","","","","","","","","",""
"","ITI","","html-keyboard-response","48","81923","0.0-1.0-63.0","0","0","78943","","null","","","null","6","","","","","","","","","","","","","","","NaN",""
"","S1","","html-keyboard-response","49","82175","0.0-1.0-65.0","0","0","78943","","null","","","null","7","","","","","","","","","","","","","","","",""
"","ISI","","html-keyboard-response","50","83178","0.0-1.0-66.0","0","0","78943","","null","","","null","7","NaN","","","","","","","","","","","","","","",""
"","S2","","html-keyboard-response","51","83430","0.0-1.0-67.0","0","0","78943","","null","","","null","7","","NaN","","","","","","","","","","","","","",""
"","response","","html-keyboard-response","52","83908","0.0-1.0-68.0-0.0","0","0","78943","","477","","","68","7","","","1","7","training","adjacent","ED","5","4","R.jpg","Q.jpg","0","0","1","",""
"","feedback","","html-keyboard-response","53","84909","0.0-1.0-69.0-0.0","0","0","78943","","null","","","null","7","","","","","","","","","","","","","","","",""
"","ITI","","html-keyboard-response","54","85911","0.0-1.0-72.0","0","0","78943","","null","","","null","7","","","","","","","","","","","","","","","NaN",""
"","S1","","html-keyboard-response","55","86163","0.0-1.0-74.0","0","0","78943","","null","","","null","8","","","","","","","","","","","","","","","",""
"","ISI","","html-keyboard-response","56","87166","0.0-1.0-75.0","0","0","78943","","null","","","null","8","NaN","","","","","","","","","","","","","","",""
"","S2","","html-keyboard-response","57","87418","0.0-1.0-76.0","0","0","78943","","null","","","null","8","","NaN","","","","","","","","","","","","","",""
"","response","","html-keyboard-response","58","87698","0.0-1.0-77.0-0.0","0","0","78943","","279","","","75","8","","","1","8","training","adjacent","CD","3","4","L.jpg","Q.jpg","1","1","1","",""
"","feedback","","html-keyboard-response","59","88701","0.0-1.0-78.0-0.0","0","0","78943","","null","","","null","8","","","","","","","","","","","","","","","",""
"","ITI","","html-keyboard-response","60","89713","0.0-1.0-81.0","0","0","78943","","null","","","null","8","","","","","","","","","","","","","","","NaN",""
"","S1","","html-keyboard-response","61","89966","0.0-1.0-83.0","0","0","78943","","null","","","null","9","","","","","","","","","","","","","","","",""
"","ISI","","html-keyboard-response","62","90967","0.0-1.0-84.0","0","0","78943","","null","","","null","9","NaN","","","","","","","","","","","","","","",""
"","S2","","html-keyboard-response","63","91220","0.0-1.0-85.0","0","0","78943","","null","","","null","9","","NaN","","","","","","","","","","","","","",""
"","response","","html-keyboard-response","64","91469","0.0-1.0-86.0-0.0","0","0","78943","","249","","","75","9","","","1","9","training","adjacent","CD","3","4","L.jpg","Q.jpg","1","1","1","",""
"","feedback","","html-keyboard-response","65","92472","0.0-1.0-87.0-0.0","0","0","78943","","null","","","null","9","","","","","","","","","","","","","","","",""
"","ITI","","html-keyboard-response","66","93475","0.0-1.0-90.0","0","0","78943","","null","","","null","9","","","","","","","","","","","","","","","NaN",""
"","S1","","html-keyboard-response","67","93727","0.0-1.0-92.0","0","0","78943","","null","","","null","10","","","","","","","","","","","","","","","",""
"","ISI","","html-keyboard-response","68","94729","0.0-1.0-93.0","0","0","78943","","null","","","null","10","NaN","","","","","","","","","","","","","","",""
"","S2","","html-keyboard-response","69","94981","0.0-1.0-94.0","0","0","78943","","null","","","null","10","","NaN","","","","","","","","","","","","","",""
"","response","","html-keyboard-response","70","95339","0.0-1.0-95.0-0.0","0","0","78943","","358","","","68","10","","","1","10","training","adjacent","DE","4","5","Q.jpg","R.jpg","0","1","0","",""
"","feedback","","html-keyboard-response","71","96342","0.0-1.0-96.0-0.0","0","0","78943","","null","","","null","10","","","","","","","","","","","","","","","",""
"","time_out","","html-keyboard-response","72","98344","0.0-1.0-98.0-0.0","0","0","78943","","null","","","null","10","","","","","","","","","","","","","","","",""
"","ITI","","html-keyboard-response","73","99346","0.0-1.0-99.0","0","0","78943","","null","","","null","10","","","","","","","","","","","","","","","NaN",""
"","S1","","html-keyboard-response","74","99598","0.0-1.0-101.0","0","0","78943","","null","","","null","11","","","","","","","","","","","","","","","",""
"","ISI","","html-keyboard-response","75","100599","0.0-1.0-102.0","0","0","78943","","null","","","null","11","NaN","","","","","","","","","","","","","","",""
"","S2","","html-keyboard-response","76","100851","0.0-1.0-103.0","0","0","78943","","null","","","null","11","","NaN","","","","","","","","","","","","","",""
"","response","","html-keyboard-response","77","101020","0.0-1.0-104.0-0.0","0","0","78943","","168","","","75","11","","","1","11","training","adjacent","BA","2","1","P.jpg","O.jpg","1","0","0","",""
"","feedback","","html-keyboard-response","78","102022","0.0-1.0-105.0-0.0","0","0","78943","","null","","","null","11","","","","","","","","","","","","","","","",""
"","time_out","","html-keyboard-response","79","104025","0.0-1.0-107.0-0.0","0","0","78943","","null","","","null","11","","","","","","","","","","","","","","","",""
"","ITI","","html-keyboard-response","80","105026","0.0-1.0-108.0","0","0","78943","","null","","","null","11","","","","","","","","","","","","","","","NaN",""
"","S1","","html-keyboard-response","81","105279","0.0-1.0-110.0","0","0","78943","","null","","","null","12","","","","","","","","","","","","","","","",""
"","ISI","","html-keyboard-response","82","106280","0.0-1.0-111.0","0","0","78943","","null","","","null","12","NaN","","","","","","","","","","","","","","",""
"","S2","","html-keyboard-response","83","106533","0.0-1.0-112.0","0","0","78943","","null","","","null","12","","NaN","","","","","","","","","","","","","",""
"","response","","html-keyboard-response","84","106934","0.0-1.0-113.0-0.0","0","0","78943","","401","","","68","12","","","1","12","training","adjacent","FG","6","7","M.jpg","N.jpg","0","1","0","",""
"","feedback","","html-keyboard-response","85","107937","0.0-1.0-114.0-0.0","0","0","78943","","null","","","null","12","","","","","","","","","","","","","","","",""
"","time_out","","html-keyboard-response","86","109939","0.0-1.0-116.0-0.0","0","0","78943","","null","","","null","12","","","","","","","","","","","","","","","",""
"","ITI","","html-keyboard-response","87","110950","0.0-1.0-117.0","0","0","78943","","null","","","null","12","","","","","","","","","","","","","","","NaN",""
"","S1","","html-keyboard-response","88","111202","0.0-1.0-119.0","0","0","78943","","null","","","null","13","","","","","","","","","","","","","","","",""
"","ISI","","html-keyboard-response","89","112204","0.0-1.0-120.0","0","0","78943","","243","","","75","13","k","","","","","","","","","","","","","","",""
"","S2","","html-keyboard-response","90","112466","0.0-1.0-121.0","0","0","78943","","null","","","null","13","","NaN","","","","","","","","","","","","","",""
"","response","","html-keyboard-response","91","113113","0.0-1.0-122.0-0.0","0","0","78943","","647","","","75","13","","","1","13","training","adjacent","EF","5","6","R.jpg","M.jpg","1","1","1","",""
"","feedback","","html-keyboard-response","92","114116","0.0-1.0-123.0-0.0","0","0","78943","","null","","","null","13","","","","","","","","","","","","","","","",""
"","ITI","","html-keyboard-response","93","115118","0.0-1.0-126.0","0","0","78943","","null","","","null","13","","","","","","","","","","","","","","","NaN",""
"","S1","","html-keyboard-response","94","115369","0.0-1.0-128.0","0","0","78943","","null","","","null","14","","","","","","","","","","","","","","","",""
"","ISI","","html-keyboard-response","95","116371","0.0-1.0-129.0","0","0","78943","","null","","","null","14","NaN","","","","","","","","","","","","","","",""
"","S2","","html-keyboard-response","96","116623","0.0-1.0-130.0","0","0","78943","","null","","","null","14","","NaN","","","","","","","","","","","","","",""
"","response","","html-keyboard-response","97","117035","0.0-1.0-131.0-0.0","0","0","78943","","411","","","75","14","","","1","14","training","adjacent","DE","4","5","Q.jpg","R.jpg","1","1","1","",""
"","feedback","","html-keyboard-response","98","118037","0.0-1.0-132.0-0.0","0","0","78943","","null","","","null","14","","","","","","","","","","","","","","","",""
"","ITI","","html-keyboard-response","99","119044","0.0-1.0-135.0","0","0","78943","","null","","","null","14","","","","","","","","","","","","","","","NaN",""
"","S1","","html-keyboard-response","100","119295","0.0-1.0-137.0","0","0","78943","","null","","","null","15","","","","","","","","","","","","","","","",""
"","ISI","","html-keyboard-response","101","120297","0.0-1.0-138.0","0","0","78943","","null","","","null","15","NaN","","","","","","","","","","","","","","",""
"","S2","","html-keyboard-response","102","120557","0.0-1.0-139.0","0","0","78943","","null","","","null","15","","NaN","","","","","","","","","","","","","",""
"","response","","html-keyboard-response","103","121103","0.0-1.0-140.0-0.0","0","0","78943","","546","","","75","15","","","1","15","training","adjacent","FE","6","5","M.jpg","R.jpg","1","0","0","",""
"","feedback","","html-keyboard-response","104","122106","0.0-1.0-141.0-0.0","0","0","78943","","null","","","null","15","","","","","","","","","","","","","","","",""
"","time_out","","html-keyboard-response","105","124108","0.0-1.0-143.0-0.0","0","0","78943","","null","","","null","15","","","","","","","","","","","","","","","",""
"","ITI","","html-keyboard-response","106","125110","0.0-1.0-144.0","0","0","78943","","null","","","null","15","","","","","","","","","","","","","","","NaN",""
"","S1","","html-keyboard-response","107","125362","0.0-1.0-146.0","0","0","78943","","null","","","null","16","","","","","","","","","","","","","","","",""
"","ISI","","html-keyboard-response","108","126363","0.0-1.0-147.0","0","0","78943","","null","","","null","16","NaN","","","","","","","","","","","","","","",""
"","S2","","html-keyboard-response","109","126615","0.0-1.0-148.0","0","0","78943","","null","","","null","16","","NaN","","","","","","","","","","","","","",""
"","response","","html-keyboard-response","110","126913","0.0-1.0-149.0-0.0","0","0","78943","","298","","","68","16","","","1","16","training","adjacent","BA","2","1","P.jpg","O.jpg","0","0","1","",""
"","feedback","","html-keyboard-response","111","127916","0.0-1.0-150.0-0.0","0","0","78943","","null","","","null","16","","","","","","","","","","","","","","","",""
"","ITI","","html-keyboard-response","112","128919","0.0-1.0-153.0","0","0","78943","","null","","","null","16","","","","","","","","","","","","","","","NaN",""
"","S1","","html-keyboard-response","113","129171","0.0-1.0-155.0","0","0","78943","","null","","","null","17","","","","","","","","","","","","","","","",""
"","ISI","","html-keyboard-response","114","130173","0.0-1.0-156.0","0","0","78943","","null","","","null","17","NaN","","","","","","","","","","","","","","",""
"","S2","","html-keyboard-response","115","130425","0.0-1.0-157.0","0","0","78943","","null","","","null","17","","NaN","","","","","","","","","","","","","",""
"","response","","html-keyboard-response","116","130789","0.0-1.0-158.0-0.0","0","0","78943","","363","","","68","17","","","1","17","training","adjacent","DC","4","3","Q.jpg","L.jpg","0","0","1","",""
"","feedback","","html-keyboard-response","117","131792","0.0-1.0-159.0-0.0","0","0","78943","","null","","","null","17","","","","","","","","","","","","","","","",""
"","ITI","","html-keyboard-response","118","132794","0.0-1.0-162.0","0","0","78943","","null","","","null","17","","","","","","","","","","","","","","","NaN",""
"","S1","","html-keyboard-response","119","133046","0.0-1.0-164.0","0","0","78943","","null","","","null","18","","","","","","","","","","","","","","","",""
"","ISI","","html-keyboard-response","120","134051","0.0-1.0-165.0","0","0","78943","","null","","","null","18","NaN","","","","","","","","","","","","","","",""
"","S2","","html-keyboard-response","121","134304","0.0-1.0-166.0","0","0","78943","","null","","","null","18","","NaN","","","","","","","","","","","","","",""
"","response","","html-keyboard-response","122","134974","0.0-1.0-167.0-0.0","0","0","78943","","670","","","68","18","","","1","18","training","adjacent","GF","7","6","N.jpg","M.jpg","0","0","1","",""
"","feedback","","html-keyboard-response","123","135976","0.0-1.0-168.0-0.0","0","0","78943","","null","","","null","18","","","","","","","","","","","","","","","",""
"","ITI","","html-keyboard-response","124","136978","0.0-1.0-171.0","0","0","78943","","null","","","null","18","","","","","","","","","","","","","","","NaN",""
"","S1","","html-keyboard-response","125","137235","0.0-1.0-173.0","0","0","78943","","null","","","null","19","","","","","","","","","","","","","","","",""
"","ISI","","html-keyboard-response","126","138238","0.0-1.0-174.0","0","0","78943","","null","","","null","19","NaN","","","","","","","","","","","","","","",""
"","S2","","html-keyboard-response","127","138490","0.0-1.0-175.0","0","0","78943","","null","","","null","19","","NaN","","","","","","","","","","","","","",""
"","response","","html-keyboard-response","128","138756","0.0-1.0-176.0-0.0","0","0","78943","","265","","","75","19","","","1","19","training","adjacent","FE","6","5","M.jpg","R.jpg","1","0","0","",""
"","feedback","","html-keyboard-response","129","139758","0.0-1.0-177.0-0.0","0","0","78943","","null","","","null","19","","","","","","","","","","","","","","","",""
"","time_out","","html-keyboard-response","130","141770","0.0-1.0-179.0-0.0","0","0","78943","","null","","","null","19","","","","","","","","","","","","","","","",""
"","ITI","","html-keyboard-response","131","142772","0.0-1.0-180.0","0","0","78943","","null","","","null","19","","","","","","","","","","","","","","","NaN",""
"","S1","","html-keyboard-response","132","143023","0.0-1.0-182.0","0","0","78943","","null","","","null","20","","","","","","","","","","","","","","","",""
"","ISI","","html-keyboard-response","133","144026","0.0-1.0-183.0","0","0","78943","","456","","","75","20","k","","","","","","","","","","","","","","",""
"","S2","","html-keyboard-response","134","144279","0.0-1.0-184.0","0","0","78943","","null","","","null","20","","NaN","","","","","","","","","","","","","",""
"","response","","html-keyboard-response","135","144617","0.0-1.0-185.0-0.0","0","0","78943","","337","","","75","20","","","1","20","training","adjacent","CD","3","4","L.jpg","Q.jpg","1","1","1","",""
"","feedback","","html-keyboard-response","136","145619","0.0-1.0-186.0-0.0","0","0","78943","","null","","","null","20","","","","","","","","","","","","","","","",""
"","ITI","","html-keyboard-response","137","146620","0.0-1.0-189.0","0","0","78943","","null","","","null","20","","","","","","","","","","","","","","","NaN",""
"","S1","","html-keyboard-response","138","146872","0.0-1.0-191.0","0","0","78943","","null","","","null","21","","","","","","","","","","","","","","","",""
"","ISI","","html-keyboard-response","139","147874","0.0-1.0-192.0","0","0","78943","","null","","","null","21","NaN","","","","","","","","","","","","","","",""
"","S2","","html-keyboard-response","140","148127","0.0-1.0-193.0","0","0","78943","","null","","","null","21","","NaN","","","","","","","","","","","","","",""
"","response","","html-keyboard-response","141","148553","0.0-1.0-194.0-0.0","0","0","78943","","424","","","75","21","","","1","21","training","adjacent","BC","2","3","P.jpg","L.jpg","1","1","1","",""
"","feedback","","html-keyboard-response","142","149555","0.0-1.0-195.0-0.0","0","0","78943","","null","","","null","21","","","","","","","","","","","","","","","",""
"","ITI","","html-keyboard-response","143","150557","0.0-1.0-198.0","0","0","78943","","null","","","null","21","","","","","","","","","","","","","","","NaN",""
"","S1","","html-keyboard-response","144","150809","0.0-1.0-200.0","0","0","78943","","null","","","null","22","","","","","","","","","","","","","","","",""
"","ISI","","html-keyboard-response","145","151816","0.0-1.0-201.0","0","0","78943","","null","","","null","22","NaN","","","","","","","","","","","","","","",""
"","S2","","html-keyboard-response","146","152069","0.0-1.0-202.0","0","0","78943","","null","","","null","22","","NaN","","","","","","","","","","","","","",""
"","response","","html-keyboard-response","147","152393","0.0-1.0-203.0-0.0","0","0","78943","","323","","","75","22","","","1","22","training","adjacent","CB","3","2","L.jpg","P.jpg","1","0","0","",""
"","feedback","","html-keyboard-response","148","153395","0.0-1.0-204.0-0.0","0","0","78943","","null","","","null","22","","","","","","","","","","","","","","","",""
"","time_out","","html-keyboard-response","149","155397","0.0-1.0-206.0-0.0","0","0","78943","","null","","","null","22","","","","","","","","","","","","","","","",""
"","ITI","","html-keyboard-response","150","156399","0.0-1.0-207.0","0","0","78943","","null","","","null","22","","","","","","","","","","","","","","","NaN",""
"","S1","","html-keyboard-response","151","156650","0.0-1.0-209.0","0","0","78943","","null","","","null","23","","","","","","","","","","","","","","","",""
"","ISI","","html-keyboard-response","152","157652","0.0-1.0-210.0","0","0","78943","","null","","","null","23","NaN","","","","","","","","","","","","","","",""
"","S2","","html-keyboard-response","153","157904","0.0-1.0-211.0","0","0","78943","","null","","","null","23","","NaN","","","","","","","","","","","","","",""
"","response","","html-keyboard-response","154","158238","0.0-1.0-212.0-0.0","0","0","78943","","334","","","75","23","","","1","23","training","adjacent","DC","4","3","Q.jpg","L.jpg","1","0","0","",""
"","feedback","","html-keyboard-response","155","159241","0.0-1.0-213.0-0.0","0","0","78943","","null","","","null","23","","","","","","","","","","","","","","","",""
"","time_out","","html-keyboard-response","156","161242","0.0-1.0-215.0-0.0","0","0","78943","","null","","","null","23","","","","","","","","","","","","","","","",""
"","ITI","","html-keyboard-response","157","162245","0.0-1.0-216.0","0","0","78943","","null","","","null","23","","","","","","","","","","","","","","","NaN",""
"","S1","","html-keyboard-response","158","162496","0.0-1.0-218.0","0","0","78943","","null","","","null","24","","","","","","","","","","","","","","","",""
"","ISI","","html-keyboard-response","159","163497","0.0-1.0-219.0","0","0","78943","","null","","","null","24","NaN","","","","","","","","","","","","","","",""
"","S2","","html-keyboard-response","160","163749","0.0-1.0-220.0","0","0","78943","","null","","","null","24","","NaN","","","","","","","","","","","","","",""
"","response","","html-keyboard-response","161","164054","0.0-1.0-221.0-0.0","0","0","78943","","305","","","68","24","","","1","24","training","adjacent","AB","1","2","O.jpg","P.jpg","0","1","0","",""
"","feedback","","html-keyboard-response","162","165057","0.0-1.0-222.0-0.0","0","0","78943","","null","","","null","24","","","","","","","","","","","","","","","",""
"","time_out","","html-keyboard-response","163","167059","0.0-1.0-224.0-0.0","0","0","78943","","null","","","null","24","","","","","","","","","","","","","","","",""
"","ITI","","html-keyboard-response","164","168064","0.0-1.0-225.0","0","0","78943","","null","","","null","24","","","","","","","","","","","","","","","NaN",""
"","S1","","html-keyboard-response","165","168316","0.0-1.0-227.0","0","0","78943","","null","","","null","25","","","","","","","","","","","","","","","",""
"","ISI","","html-keyboard-response","166","169318","0.0-1.0-228.0","0","0","78943","","462","","","75","25","k","","","","","","","","","","","","","","",""
"","S2","","html-keyboard-response","167","169580","0.0-1.0-229.0","0","0","78943","","null","","","null","25","","NaN","","","","","","","","","","","","","",""
"","response","","html-keyboard-response","168","169846","0.0-1.0-230.0-0.0","0","0","78943","","265","","","75","25","","","1","25","training","adjacent","ED","5","4","R.jpg","Q.jpg","1","0","0","",""
"","feedback","","html-keyboard-response","169","170848","0.0-1.0-231.0-0.0","0","0","78943","","null","","","null","25","","","","","","","","","","","","","","","",""
"","time_out","","html-keyboard-response","170","172849","0.0-1.0-233.0-0.0","0","0","78943","","null","","","null","25","","","","","","","","","","","","","","","",""
"","ITI","","html-keyboard-response","171","173851","0.0-1.0-234.0","0","0","78943","","null","","","null","25","","","","","","","","","","","","","","","NaN",""
"","S1","","html-keyboard-response","172","174103","0.0-1.0-236.0","0","0","78943","","null","","","null","26","","","","","","","","","","","","","","","",""
"","ISI","","html-keyboard-response","173","175105","0.0-1.0-237.0","0","0","78943","","null","","","null","26","NaN","","","","","","","","","","","","","","",""
"","S2","","html-keyboard-response","174","175358","0.0-1.0-238.0","0","0","78943","","null","","","null","26","","NaN","","","","","","","","","","","","","",""
"","response","","html-keyboard-response","175","175689","0.0-1.0-239.0-0.0","0","0","78943","","330","","","68","26","","","1","26","training","adjacent","CB","3","2","L.jpg","P.jpg","0","0","1","",""
"","feedback","","html-keyboard-response","176","176691","0.0-1.0-240.0-0.0","0","0","78943","","null","","","null","26","","","","","","","","","","","","","","","",""
"","ITI","","html-keyboard-response","177","177693","0.0-1.0-243.0","0","0","78943","","null","","","null","26","","","","","","","","","","","","","","","NaN",""
"","S1","","html-keyboard-response","178","177945","0.0-1.0-245.0","0","0","78943","","null","","","null","27","","","","","","","","","","","","","","","",""
"","ISI","","html-keyboard-response","179","178946","0.0-1.0-246.0","0","0","78943","","null","","","null","27","NaN","","","","","","","","","","","","","","",""
"","S2","","html-keyboard-response","180","179198","0.0-1.0-247.0","0","0","78943","","null","","","null","27","","NaN","","","","","","","","","","","","","",""
"","response","","html-keyboard-response","181","179509","0.0-1.0-248.0-0.0","0","0","78943","","310","","","75","27","","","1","27","training","adjacent","FG","6","7","M.jpg","N.jpg","1","1","1","",""
"","feedback","","html-keyboard-response","182","180511","0.0-1.0-249.0-0.0","0","0","78943","","null","","","null","27","","","","","","","","","","","","","","","",""
"","ITI","","html-keyboard-response","183","181512","0.0-1.0-252.0","0","0","78943","","null","","","null","27","","","","","","","","","","","","","","","NaN",""
"","S1","","html-keyboard-response","184","181763","0.0-1.0-254.0","0","0","78943","","null","","","null","28","","","","","","","","","","","","","","","",""
"","ISI","","html-keyboard-response","185","182764","0.0-1.0-255.0","0","0","78943","","null","","","null","28","NaN","","","","","","","","","","","","","","",""
"","S2","","html-keyboard-response","186","183016","0.0-1.0-256.0","0","0","78943","","null","","","null","28","","NaN","","","","","","","","","","","","","",""
"","response","","html-keyboard-response","187","183375","0.0-1.0-257.0-0.0","0","0","78943","","356","","","75","28","","","1","28","training","adjacent","EF","5","6","R.jpg","M.jpg","1","1","1","",""
"","feedback","","html-keyboard-response","188","184376","0.0-1.0-258.0-0.0","0","0","78943","","null","","","null","28","","","","","","","","","","","","","","","",""
"","ITI","","html-keyboard-response","189","185377","0.0-1.0-261.0","0","0","78943","","null","","","null","28","","","","","","","","","","","","","","","NaN",""
"","S1","","html-keyboard-response","190","185630","0.0-1.0-263.0","0","0","78943","","null","","","null","29","","","","","","","","","","","","","","","",""
"","ISI","","html-keyboard-response","191","186631","0.0-1.0-264.0","0","0","78943","","null","","","null","29","NaN","","","","","","","","","","","","","","",""
"","S2","","html-keyboard-response","192","186883","0.0-1.0-265.0","0","0","78943","","null","","","null","29","","NaN","","","","","","","","","","","","","",""
"","response","","html-keyboard-response","193","187274","0.0-1.0-266.0-0.0","0","0","78943","","390","","","75","29","","","1","29","training","adjacent","GF","7","6","N.jpg","M.jpg","1","0","0","",""
"","feedback","","html-keyboard-response","194","188291","0.0-1.0-267.0-0.0","0","0","78943","","null","","","null","29","","","","","","","","","","","","","","","",""
"","time_out","","html-keyboard-response","195","190294","0.0-1.0-269.0-0.0","0","0","78943","","null","","","null","29","","","","","","","","","","","","","","","",""
"","ITI","","html-keyboard-response","196","191296","0.0-1.0-270.0","0","0","78943","","null","","","null","29","","","","","","","","","","","","","","","NaN",""
"","S1","","html-keyboard-response","197","191548","0.0-1.0-272.0","0","0","78943","","null","","","null","30","","","","","","","","","","","","","","","",""
"","ISI","","html-keyboard-response","198","192550","0.0-1.0-273.0","0","0","78943","","null","","","null","30","NaN","","","","","","","","","","","","","","",""
"","S2","","html-keyboard-response","199","192802","0.0-1.0-274.0","0","0","78943","","null","","","null","30","","NaN","","","","","","","","","","","","","",""
"","response","","html-keyboard-response","200","193171","0.0-1.0-275.0-0.0","0","0","78943","","368","","","68","30","","","1","30","training","adjacent","FE","6","5","M.jpg","R.jpg","0","0","1","",""
"","feedback","","html-keyboard-response","201","194174","0.0-1.0-276.0-0.0","0","0","78943","","null","","","null","30","","","","","","","","","","","","","","","",""
"","ITI","","html-keyboard-response","202","195176","0.0-1.0-279.0","0","0","78943","","null","","","null","30","","","","","","","","","","","","","","","NaN",""
"","S1","","html-keyboard-response","203","195437","0.0-1.0-281.0","0","0","78943","","null","","","null","31","","","","","","","","","","","","","","","",""
"","ISI","","html-keyboard-response","204","196440","0.0-1.0-282.0","0","0","78943","","null","","","null","31","NaN","","","","","","","","","","","","","","",""
"","S2","","html-keyboard-response","205","196692","0.0-1.0-283.0","0","0","78943","","null","","","null","31","","NaN","","","","","","","","","","","","","",""
"","response","","html-keyboard-response","206","197198","0.0-1.0-284.0-0.0","0","0","78943","","505","","","68","31","","","1","31","training","adjacent","AB","1","2","O.jpg","P.jpg","0","1","0","",""
"","feedback","","html-keyboard-response","207","198199","0.0-1.0-285.0-0.0","0","0","78943","","null","","","null","31","","","","","","","","","","","","","","","",""
"","time_out","","html-keyboard-response","208","200202","0.0-1.0-287.0-0.0","0","0","78943","","null","","","null","31","","","","","","","","","","","","","","","",""
"","ITI","","html-keyboard-response","209","201204","0.0-1.0-288.0","0","0","78943","","null","","","null","31","","","","","","","","","","","","","","","NaN",""
"","S1","","html-keyboard-response","210","201455","0.0-1.0-290.0","0","0","78943","","null","","","null","32","","","","","","","","","","","","","","","",""
"","ISI","","html-keyboard-response","211","202457","0.0-1.0-291.0","0","0","78943","","null","","","null","32","NaN","","","","","","","","","","","","","","",""
"","S2","","html-keyboard-response","212","202709","0.0-1.0-292.0","0","0","78943","","null","","","null","32","","NaN","","","","","","","","","","","","","",""
"","response","","html-keyboard-response","213","202964","0.0-1.0-293.0-0.0","0","0","78943","","253","","","75","32","","","1","32","training","adjacent","EF","5","6","R.jpg","M.jpg","1","1","1","",""
"","feedback","","html-keyboard-response","214","203966","0.0-1.0-294.0-0.0","0","0","78943","","null","","","null","32","","","","","","","","","","","","","","","",""
"","ITI","","html-keyboard-response","215","204967","0.0-1.0-297.0","0","0","78943","","null","","","null","32","","","","","","","","","","","","","","","NaN",""
"","S1","","html-keyboard-response","216","205220","0.0-1.0-299.0","0","0","78943","","null","","","null","33","","","","","","","","","","","","","","","",""
"","ISI","","html-keyboard-response","217","206223","0.0-1.0-300.0","0","0","78943","","null","","","null","33","NaN","","","","","","","","","","","","","","",""
"","S2","","html-keyboard-response","218","206475","0.0-1.0-301.0","0","0","78943","","null","","","null","33","","NaN","","","","","","","","","","","","","",""
"","response","","html-keyboard-response","219","207068","0.0-1.0-302.0-0.0","0","0","78943","","593","","","68","33","","","1","33","training","adjacent","GF","7","6","N.jpg","M.jpg","0","0","1","",""
"","feedback","","html-keyboard-response","220","208075","0.0-1.0-303.0-0.0","0","0","78943","","null","","","null","33","","","","","","","","","","","","","","","",""
"","ITI","","html-keyboard-response","221","209077","0.0-1.0-306.0","0","0","78943","","null","","","null","33","","","","","","","","","","","","","","","NaN",""
"","S1","","html-keyboard-response","222","209329","0.0-1.0-308.0","0","0","78943","","null","","","null","34","","","","","","","","","","","","","","","",""
"","ISI","","html-keyboard-response","223","210331","0.0-1.0-309.0","0","0","78943","","null","","","null","34","NaN","","","","","","","","","","","","","","",""
"","S2","","html-keyboard-response","224","210583","0.0-1.0-310.0","0","0","78943","","null","","","null","34","","NaN","","","","","","","","","","","","","",""
"","response","","html-keyboard-response","225","210918","0.0-1.0-311.0-0.0","0","0","78943","","333","","","75","34","","","1","34","training","adjacent","AB","1","2","O.jpg","P.jpg","1","1","1","",""
"","feedback","","html-keyboard-response","226","211920","0.0-1.0-312.0-0.0","0","0","78943","","null","","","null","34","","","","","","","","","","","","","","","",""
"","ITI","","html-keyboard-response","227","212922","0.0-1.0-315.0","0","0","78943","","null","","","null","34","","","","","","","","","","","","","","","NaN",""
"","S1","","html-keyboard-response","228","213175","0.0-1.0-317.0","0","0","78943","","null","","","null","35","","","","","","","","","","","","","","","",""
"","ISI","","html-keyboard-response","229","214177","0.0-1.0-318.0","0","0","78943","","null","","","null","35","NaN","","","","","","","","","","","","","","",""
"","S2","","html-keyboard-response","230","214430","0.0-1.0-319.0","0","0","78943","","null","","","null","35","","NaN","","","","","","","","","","","","","",""
"","response","","html-keyboard-response","231","214734","0.0-1.0-320.0-0.0","0","0","78943","","304","","","75","35","","","1","35","training","adjacent","BC","2","3","P.jpg","L.jpg","1","1","1","",""
"","feedback","","html-keyboard-response","232","215736","0.0-1.0-321.0-0.0","0","0","78943","","null","","","null","35","","","","","","","","","","","","","","","",""
"","ITI","","html-keyboard-response","233","216738","0.0-1.0-324.0","0","0","78943","","null","","","null","35","","","","","","","","","","","","","","","NaN",""
"","S1","","html-keyboard-response","234","216997","0.0-1.0-326.0","0","0","78943","","null","","","null","36","","","","","","","","","","","","","","","",""
"","ISI","","html-keyboard-response","235","217998","0.0-1.0-327.0","0","0","78943","","null","","","null","36","NaN","","","","","","","","","","","","","","",""
"","S2","","html-keyboard-response","236","218250","0.0-1.0-328.0","0","0","78943","","null","","","null","36","","NaN","","","","","","","","","","","","","",""
"","response","","html-keyboard-response","237","218538","0.0-1.0-329.0-0.0","0","0","78943","","287","","","68","36","","","1","36","training","adjacent","DE","4","5","Q.jpg","R.jpg","0","1","0","",""
"","feedback","","html-keyboard-response","238","219539","0.0-1.0-330.0-0.0","0","0","78943","","null","","","null","36","","","","","","","","","","","","","","","",""
"","time_out","","html-keyboard-response","239","221542","0.0-1.0-332.0-0.0","0","0","78943","","null","","","null","36","","","","","","","","","","","","","","","",""
"","ITI","","html-keyboard-response","240","222543","0.0-1.0-333.0","0","0","78943","","null","","","null","36","","","","","","","","","","","","","","","NaN",""
"","S1","","html-keyboard-response","241","222795","0.0-1.0-335.0","0","0","78943","","null","","","null","37","","","","","","","","","","","","","","","",""
"","ISI","","html-keyboard-response","242","223797","0.0-1.0-336.0","0","0","78943","","null","","","null","37","NaN","","","","","","","","","","","","","","",""
"","S2","","html-keyboard-response","243","224049","0.0-1.0-337.0","0","0","78943","","null","","","null","37","","NaN","","","","","","","","","","","","","",""
"","response","","html-keyboard-response","244","224345","0.0-1.0-338.0-0.0","0","0","78943","","295","","","75","37","","","1","37","training","adjacent","BA","2","1","P.jpg","O.jpg","1","0","0","",""
"","feedback","","html-keyboard-response","245","225352","0.0-1.0-339.0-0.0","0","0","78943","","null","","","null","37","","","","","","","","","","","","","","","",""
"","time_out","","html-keyboard-response","246","227354","0.0-1.0-341.0-0.0","0","0","78943","","null","","","null","37","","","","","","","","","","","","","","","",""
"","ITI","","html-keyboard-response","247","228355","0.0-1.0-342.0","0","0","78943","","null","","","null","37","","","","","","","","","","","","","","","NaN",""
"","S1","","html-keyboard-response","248","228608","0.0-1.0-344.0","0","0","78943","","null","","","null","38","","","","","","","","","","","","","","","",""
"","ISI","","html-keyboard-response","249","229610","0.0-1.0-345.0","0","0","78943","","638","","","68","38","d","","","","","","","","","","","","","","",""
"","S2","","html-keyboard-response","250","229831","0.0-1.0-346.0","0","0","78943","","221","","","68","38","","d","1","38","training","adjacent","DC","4","3","Q.jpg","L.jpg","0","0","1","",""
"","feedback","","html-keyboard-response","251","230833","0.0-1.0-348.0-0.0","0","0","78943","","null","","","null","38","","","","","","","","","","","","","","","",""
"","ITI","","html-keyboard-response","252","231835","0.0-1.0-351.0","0","0","78943","","null","","","null","38","","","","","","","","","","","","","","","NaN",""
"","S1","","html-keyboard-response","253","232088","0.0-1.0-353.0","0","0","78943","","null","","","null","39","","","","","","","","","","","","","","","",""
"","ISI","","html-keyboard-response","254","233090","0.0-1.0-354.0","0","0","78943","","null","","","null","39","NaN","","","","","","","","","","","","","","",""
"","S2","","html-keyboard-response","255","233342","0.0-1.0-355.0","0","0","78943","","null","","","null","39","","NaN","","","","","","","","","","","","","",""
"","response","","html-keyboard-response","256","233431","0.0-1.0-356.0-0.0","0","0","78943","","87","","","75","39","","","1","39","training","adjacent","ED","5","4","R.jpg","Q.jpg","1","0","0","",""
"","feedback","","html-keyboard-response","257","234432","0.0-1.0-357.0-0.0","0","0","78943","","null","","","null","39","","","","","","","","","","","","","","","",""
"","time_out","","html-keyboard-response","258","236433","0.0-1.0-359.0-0.0","0","0","78943","","null","","","null","39","","","","","","","","","","","","","","","",""
"","ITI","","html-keyboard-response","259","237436","0.0-1.0-360.0","0","0","78943","","null","","","null","39","","","","","","","","","","","","","","","NaN",""
"","S1","","html-keyboard-response","260","237702","0.0-1.0-362.0","0","0","78943","","null","","","null","40","","","","","","","","","","","","","","","",""
"","ISI","","html-keyboard-response","261","238704","0.0-1.0-363.0","0","0","78943","","null","","","null","40","NaN","","","","","","","","","","","","","","",""
"","S2","","html-keyboard-response","262","238956","0.0-1.0-364.0","0","0","78943","","null","","","null","40","","NaN","","","","","","","","","","","","","",""
"","response","","html-keyboard-response","263","239006","0.0-1.0-365.0-0.0","0","0","78943","","49","","","68","40","","","1","40","training","adjacent","BC","2","3","P.jpg","L.jpg","0","1","0","",""
"","feedback","","html-keyboard-response","264","240007","0.0-1.0-366.0-0.0","0","0","78943","","null","","","null","40","","","","","","","","","","","","","","","",""
"","time_out","","html-keyboard-response","265","242009","0.0-1.0-368.0-0.0","0","0","78943","","null","","","null","40","","","","","","","","","","","","","","","",""
"","ITI","","html-keyboard-response","266","243011","0.0-1.0-369.0","0","0","78943","","null","","","null","40","","","","","","","","","","","","","","","NaN",""
"","S1","","html-keyboard-response","267","243263","0.0-1.0-371.0","0","0","78943","","null","","","null","41","","","","","","","","","","","","","","","",""
"","ISI","","html-keyboard-response","268","244265","0.0-1.0-372.0","0","0","78943","","null","","","null","41","NaN","","","","","","","","","","","","","","",""
"","S2","","html-keyboard-response","269","244522","0.0-1.0-373.0","0","0","78943","","null","","","null","41","","NaN","","","","","","","","","","","","","",""
"","response","","html-keyboard-response","270","245111","0.0-1.0-374.0-0.0","0","0","78943","","587","","","75","41","","","1","41","training","adjacent","CD","3","4","L.jpg","Q.jpg","1","1","1","",""
"","feedback","","html-keyboard-response","271","246121","0.0-1.0-375.0-0.0","0","0","78943","","null","","","null","41","","","","","","","","","","","","","","","",""
"","ITI","","html-keyboard-response","272","247123","0.0-1.0-378.0","0","0","78943","","null","","","null","41","","","","","","","","","","","","","","","NaN",""
"","S1","","html-keyboard-response","273","247375","0.0-1.0-380.0","0","0","78943","","null","","","null","42","","","","","","","","","","","","","","","",""
"","ISI","","html-keyboard-response","274","248377","0.0-1.0-381.0","0","0","78943","","null","","","null","42","NaN","","","","","","","","","","","","","","",""
"","S2","","html-keyboard-response","275","248629","0.0-1.0-382.0","0","0","78943","","null","","","null","42","","NaN","","","","","","","","","","","","","",""
"","response","","html-keyboard-response","276","249134","0.0-1.0-383.0-0.0","0","0","78943","","504","","","68","42","","","1","42","training","adjacent","AB","1","2","O.jpg","P.jpg","0","1","0","",""
"","feedback","","html-keyboard-response","277","250137","0.0-1.0-384.0-0.0","0","0","78943","","null","","","null","42","","","","","","","","","","","","","","","",""
"","time_out","","html-keyboard-response","278","252138","0.0-1.0-386.0-0.0","0","0","78943","","null","","","null","42","","","","","","","","","","","","","","","",""
"","ITI","","html-keyboard-response","279","253141","0.0-1.0-387.0","0","0","78943","","null","","","null","42","","","","","","","","","","","","","","","NaN",""
"","S1","","html-keyboard-response","280","253401","0.0-1.0-389.0","0","0","78943","","null","","","null","43","","","","","","","","","","","","","","","",""
"","ISI","","html-keyboard-response","281","254402","0.0-1.0-390.0","0","0","78943","","null","","","null","43","NaN","","","","","","","","","","","","","","",""
"","S2","","html-keyboard-response","282","254666","0.0-1.0-391.0","0","0","78943","","null","","","null","43","","NaN","","","","","","","","","","","","","",""
"","response","","html-keyboard-response","283","254918","0.0-1.0-392.0-0.0","0","0","78943","","251","","","68","43","","","1","43","training","adjacent","EF","5","6","R.jpg","M.jpg","0","1","0","",""
"","feedback","","html-keyboard-response","284","255921","0.0-1.0-393.0-0.0","0","0","78943","","null","","","null","43","","","","","","","","","","","","","","","",""
"","time_out","","html-keyboard-response","285","257923","0.0-1.0-395.0-0.0","0","0","78943","","null","","","null","43","","","","","","","","","","","","","","","",""
"","ITI","","html-keyboard-response","286","258924","0.0-1.0-396.0","0","0","78943","","null","","","null","43","","","","","","","","","","","","","","","NaN",""
"","S1","","html-keyboard-response","287","259175","0.0-1.0-398.0","0","0","78943","","null","","","null","44","","","","","","","","","","","","","","","",""
"","ISI","","html-keyboard-response","288","260177","0.0-1.0-399.0","0","0","78943","","null","","","null","44","NaN","","","","","","","","","","","","","","",""
"","S2","","html-keyboard-response","289","260431","0.0-1.0-400.0","0","0","78943","","null","","","null","44","","NaN","","","","","","","","","","","","","",""
"","response","","html-keyboard-response","290","260740","0.0-1.0-401.0-0.0","0","0","78943","","308","","","75","44","","","1","44","training","adjacent","ED","5","4","R.jpg","Q.jpg","1","0","0","",""
"","feedback","","html-keyboard-response","291","261742","0.0-1.0-402.0-0.0","0","0","78943","","null","","","null","44","","","","","","","","","","","","","","","",""
"","time_out","","html-keyboard-response","292","263745","0.0-1.0-404.0-0.0","0","0","78943","","null","","","null","44","","","","","","","","","","","","","","","",""
"","ITI","","html-keyboard-response","293","264746","0.0-1.0-405.0","0","0","78943","","null","","","null","44","","","","","","","","","","","","","","","NaN",""
"","S1","","html-keyboard-response","294","265011","0.0-1.0-407.0","0","0","78943","","null","","","null","45","","","","","","","","","","","","","","","",""
"","ISI","","html-keyboard-response","295","266013","0.0-1.0-408.0","0","0","78943","","null","","","null","45","NaN","","","","","","","","","","","","","","",""
"","S2","","html-keyboard-response","296","266266","0.0-1.0-409.0","0","0","78943","","null","","","null","45","","NaN","","","","","","","","","","","","","",""
"","response","","html-keyboard-response","297","266623","0.0-1.0-410.0-0.0","0","0","78943","","357","","","68","45","","","1","45","training","adjacent","DC","4","3","Q.jpg","L.jpg","0","0","1","",""
"","feedback","","html-keyboard-response","298","267626","0.0-1.0-411.0-0.0","0","0","78943","","null","","","null","45","","","","","","","","","","","","","","","",""
"","ITI","","html-keyboard-response","299","268629","0.0-1.0-414.0","0","0","78943","","null","","","null","45","","","","","","","","","","","","","","","NaN",""
"","S1","","html-keyboard-response","300","268881","0.0-1.0-416.0","0","0","78943","","null","","","null","46","","","","","","","","","","","","","","","",""
"","ISI","","html-keyboard-response","301","269897","0.0-1.0-417.0","0","0","78943","","null","","","null","46","NaN","","","","","","","","","","","","","","",""
"","S2","","html-keyboard-response","302","270149","0.0-1.0-418.0","0","0","78943","","null","","","null","46","","NaN","","","","","","","","","","","","","",""
"","response","","html-keyboard-response","303","270616","0.0-1.0-419.0-0.0","0","0","78943","","466","","","75","46","","","1","46","training","adjacent","BA","2","1","P.jpg","O.jpg","1","0","0","",""
"","feedback","","html-keyboard-response","304","271618","0.0-1.0-420.0-0.0","0","0","78943","","null","","","null","46","","","","","","","","","","","","","","","",""
"","time_out","","html-keyboard-response","305","273621","0.0-1.0-422.0-0.0","0","0","78943","","null","","","null","46","","","","","","","","","","","","","","","",""
"","ITI","","html-keyboard-response","306","274622","0.0-1.0-423.0","0","0","78943","","null","","","null","46","","","","","","","","","","","","","","","NaN",""
"","S1","","html-keyboard-response","307","274875","0.0-1.0-425.0","0","0","78943","","null","","","null","47","","","","","","","","","","","","","","","",""
"","ISI","","html-keyboard-response","308","275876","0.0-1.0-426.0","0","0","78943","","null","","","null","47","NaN","","","","","","","","","","","","","","",""
"","S2","","html-keyboard-response","309","276129","0.0-1.0-427.0","0","0","78943","","null","","","null","47","","NaN","","","","","","","","","","","","","",""
"","response","","html-keyboard-response","310","276404","0.0-1.0-428.0-0.0","0","0","78943","","274","","","68","47","","","1","47","training","adjacent","GF","7","6","N.jpg","M.jpg","0","0","1","",""
"","feedback","","html-keyboard-response","311","277406","0.0-1.0-429.0-0.0","0","0","78943","","null","","","null","47","","","","","","","","","","","","","","","",""
"","ITI","","html-keyboard-response","312","278408","0.0-1.0-432.0","0","0","78943","","null","","","null","47","","","","","","","","","","","","","","","NaN",""
"","block_over","","html-keyboard-response","313","285170","0.0-1.0-433.0-0.0","0","0","78943","","6761","","","32","47","","","","","","","","","","","","","","","",""
"","S1","","html-keyboard-response","314","285422","0.0-1.0-434.0","0","0","78943","","null","","","null","48","","","","","","","","","","","","","","","",""
"","ISI","","html-keyboard-response","315","286425","0.0-1.0-435.0","0","0","78943","","null","","","null","48","NaN","","","","","","","","","","","","","","",""
"","S2","","html-keyboard-response","316","286677","0.0-1.0-436.0","0","0","78943","","null","","","null","48","","NaN","","","","","","","","","","","","","",""
"","response","","html-keyboard-response","317","288429","0.0-1.0-437.0-0.0","0","0","78943","","null","","","null","48","","","2","48","training","adjacent","DC","4","3","Q.jpg","L.jpg","NaN","0","0","",""
"","too_slow_prompt","","html-keyboard-response","318","289431","0.0-1.0-439.0-0.0","1","0","78943","","null","","","null","","","","","","","","","","","","","","","","",""
"","time_out","","html-keyboard-response","319","291433","0.0-1.0-440.0-0.0","0","0","78943","","null","","","null","48","","","","","","","","","","","","","","","",""
"","ITI","","html-keyboard-response","320","292435","0.0-1.0-441.0","0","0","78943","","null","","","null","48","","","","","","","","","","","","","","","NaN",""
"","S1","","html-keyboard-response","321","292694","0.0-1.0-443.0","0","0","78943","","null","","","null","49","","","","","","","","","","","","","","","",""
"","ISI","","html-keyboard-response","322","293695","0.0-1.0-444.0","0","0","78943","","null","","","null","49","NaN","","","","","","","","","","","","","","",""
"","S2","","html-keyboard-response","323","293947","0.0-1.0-445.0","0","0","78943","","null","","","null","49","","NaN","","","","","","","","","","","","","",""
"","response","","html-keyboard-response","324","294423","0.0-1.0-446.0-0.0","0","0","78943","","475","","","75","49","","","2","49","training","adjacent","DE","4","5","Q.jpg","R.jpg","1","1","1","",""
"","feedback","","html-keyboard-response","325","295425","0.0-1.0-447.0-0.0","0","0","78943","","null","","","null","49","","","","","","","","","","","","","","","",""
"","ITI","","html-keyboard-response","326","296427","0.0-1.0-450.0","0","0","78943","","null","","","null","49","","","","","","","","","","","","","","","NaN",""
"","S1","","html-keyboard-response","327","296687","0.0-1.0-452.0","0","0","78943","","null","","","null","50","","","","","","","","","","","","","","","",""
"","ISI","","html-keyboard-response","328","297698","0.0-1.0-453.0","0","0","78943","","null","","","null","50","NaN","","","","","","","","","","","","","","",""
"","S2","","html-keyboard-response","329","297951","0.0-1.0-454.0","0","0","78943","","null","","","null","50","","NaN","","","","","","","","","","","","","",""
"","response","","html-keyboard-response","330","298241","0.0-1.0-455.0-0.0","0","0","78943","","289","","","75","50","","","2","50","training","adjacent","GF","7","6","N.jpg","M.jpg","1","0","0","",""
"","feedback","","html-keyboard-response","331","299242","0.0-1.0-456.0-0.0","0","0","78943","","null","","","null","50","","","","","","","","","","","","","","","",""
"","time_out","","html-keyboard-response","332","301248","0.0-1.0-458.0-0.0","0","0","78943","","null","","","null","50","","","","","","","","","","","","","","","",""
"","ITI","","html-keyboard-response","333","302249","0.0-1.0-459.0","0","0","78943","","null","","","null","50","","","","","","","","","","","","","","","NaN",""
"","S1","","html-keyboard-response","334","302502","0.0-1.0-461.0","0","0","78943","","null","","","null","51","","","","","","","","","","","","","","","",""
"","ISI","","html-keyboard-response","335","303504","0.0-1.0-462.0","0","0","78943","","null","","","null","51","NaN","","","","","","","","","","","","","","",""
"","S2","","html-keyboard-response","336","303756","0.0-1.0-463.0","0","0","78943","","null","","","null","51","","NaN","","","","","","","","","","","","","",""
"","response","","html-keyboard-response","337","304099","0.0-1.0-464.0-0.0","0","0","78943","","342","","","68","51","","","2","51","training","adjacent","FE","6","5","M.jpg","R.jpg","0","0","1","",""
"","feedback","","html-keyboard-response","338","305100","0.0-1.0-465.0-0.0","0","0","78943","","null","","","null","51","","","","","","","","","","","","","","","",""
"","ITI","","html-keyboard-response","339","306102","0.0-1.0-468.0","0","0","78943","","null","","","null","51","","","","","","","","","","","","","","","NaN",""
"","S1","","html-keyboard-response","340","306354","0.0-1.0-470.0","0","0","78943","","null","","","null","52","","","","","","","","","","","","","","","",""
"","ISI","","html-keyboard-response","341","307355","0.0-1.0-471.0","0","0","78943","","null","","","null","52","NaN","","","","","","","","","","","","","","",""
"","S2","","html-keyboard-response","342","307608","0.0-1.0-472.0","0","0","78943","","null","","","null","52","","NaN","","","","","","","","","","","","","",""
"","response","","html-keyboard-response","343","308305","0.0-1.0-473.0-0.0","0","0","78943","","696","","","68","52","","","2","52","training","adjacent","DC","4","3","Q.jpg","L.jpg","0","0","1","",""
"","feedback","","html-keyboard-response","344","309307","0.0-1.0-474.0-0.0","0","0","78943","","null","","","null","52","","","","","","","","","","","","","","","",""
"","ITI","","html-keyboard-response","345","310309","0.0-1.0-477.0","0","0","78943","","null","","","null","52","","","","","","","","","","","","","","","NaN",""
"","S1","","html-keyboard-response","346","310561","0.0-1.0-479.0","0","0","78943","","null","","","null","53","","","","","","","","","","","","","","","",""
"","ISI","","html-keyboard-response","347","311563","0.0-1.0-480.0","0","0","78943","","null","","","null","53","NaN","","","","","","","","","","","","","","",""
"","S2","","html-keyboard-response","348","311815","0.0-1.0-481.0","0","0","78943","","null","","","null","53","","NaN","","","","","","","","","","","","","",""
"","response","","html-keyboard-response","349","312190","0.0-1.0-482.0-0.0","0","0","78943","","373","","","75","53","","","2","53","training","adjacent","CD","3","4","L.jpg","Q.jpg","1","1","1","",""
"","feedback","","html-keyboard-response","350","313192","0.0-1.0-483.0-0.0","0","0","78943","","null","","","null","53","","","","","","","","","","","","","","","",""
"","ITI","","html-keyboard-response","351","314194","0.0-1.0-486.0","0","0","78943","","null","","","null","53","","","","","","","","","","","","","","","NaN",""
"","S1","","html-keyboard-response","352","314446","0.0-1.0-488.0","0","0","78943","","null","","","null","54","","","","","","","","","","","","","","","",""
"","ISI","","html-keyboard-response","353","315449","0.0-1.0-489.0","0","0","78943","","null","","","null","54","NaN","","","","","","","","","","","","","","",""
"","S2","","html-keyboard-response","354","315702","0.0-1.0-490.0","0","0","78943","","null","","","null","54","","NaN","","","","","","","","","","","","","",""
"","response","","html-keyboard-response","355","316026","0.0-1.0-491.0-0.0","0","0","78943","","323","","","68","54","","","2","54","training","adjacent","BA","2","1","P.jpg","O.jpg","0","0","1","",""
"","feedback","","html-keyboard-response","356","317029","0.0-1.0-492.0-0.0","0","0","78943","","null","","","null","54","","","","","","","","","","","","","","","",""
"","ITI","","html-keyboard-response","357","318041","0.0-1.0-495.0","0","0","78943","","null","","","null","54","","","","","","","","","","","","","","","NaN",""
"","S1","","html-keyboard-response","358","318307","0.0-1.0-497.0","0","0","78943","","null","","","null","55","","","","","","","","","","","","","","","",""
"","ISI","","html-keyboard-response","359","319310","0.0-1.0-498.0","0","0","78943","","null","","","null","55","NaN","","","","","","","","","","","","","","",""
"","S2","","html-keyboard-response","360","319562","0.0-1.0-499.0","0","0","78943","","null","","","null","55","","NaN","","","","","","","","","","","","","",""
"","response","","html-keyboard-response","361","319612","0.0-1.0-500.0-0.0","0","0","78943","","49","","","68","55","","","2","55","training","adjacent","BC","2","3","P.jpg","L.jpg","0","1","0","",""
"","feedback","","html-keyboard-response","362","320614","0.0-1.0-501.0-0.0","0","0","78943","","null","","","null","55","","","","","","","","","","","","","","","",""
"","time_out","","html-keyboard-response","363","322616","0.0-1.0-503.0-0.0","0","0","78943","","null","","","null","55","","","","","","","","","","","","","","","",""
"","ITI","","html-keyboard-response","364","323618","0.0-1.0-504.0","0","0","78943","","null","","","null","55","","","","","","","","","","","","","","","NaN",""
"","S1","","html-keyboard-response","365","323870","0.0-1.0-506.0","0","0","78943","","null","","","null","56","","","","","","","","","","","","","","","",""
"","ISI","","html-keyboard-response","366","324872","0.0-1.0-507.0","0","0","78943","","null","","","null","56","NaN","","","","","","","","","","","","","","",""
"","S2","","html-keyboard-response","367","325124","0.0-1.0-508.0","0","0","78943","","null","","","null","56","","NaN","","","","","","","","","","","","","",""
"","response","","html-keyboard-response","368","325180","0.0-1.0-509.0-0.0","0","0","78943","","55","","","75","56","","","2","56","training","adjacent","DE","4","5","Q.jpg","R.jpg","1","1","1","",""
"","feedback","","html-keyboard-response","369","326182","0.0-1.0-510.0-0.0","0","0","78943","","null","","","null","56","","","","","","","","","","","","","","","",""
"","ITI","","html-keyboard-response","370","327184","0.0-1.0-513.0","0","0","78943","","null","","","null","56","","","","","","","","","","","","","","","NaN",""
"","S1","","html-keyboard-response","371","327435","0.0-1.0-515.0","0","0","78943","","null","","","null","57","","","","","","","","","","","","","","","",""
"","ISI","","html-keyboard-response","372","328437","0.0-1.0-516.0","0","0","78943","","null","","","null","57","NaN","","","","","","","","","","","","","","",""
"","S2","","html-keyboard-response","373","328689","0.0-1.0-517.0","0","0","78943","","null","","","null","57","","NaN","","","","","","","","","","","","","",""
"","response","","html-keyboard-response","374","329057","0.0-1.0-518.0-0.0","0","0","78943","","368","","","75","57","","","2","57","training","adjacent","EF","5","6","R.jpg","M.jpg","1","1","1","",""
"","feedback","","html-keyboard-response","375","330059","0.0-1.0-519.0-0.0","0","0","78943","","null","","","null","57","","","","","","","","","","","","","","","",""
"","ITI","","html-keyboard-response","376","331061","0.0-1.0-522.0","0","0","78943","","null","","","null","57","","","","","","","","","","","","","","","NaN",""
"","S1","","html-keyboard-response","377","331313","0.0-1.0-524.0","0","0","78943","","null","","","null","58","","","","","","","","","","","","","","","",""
"","ISI","","html-keyboard-response","378","332315","0.0-1.0-525.0","0","0","78943","","null","","","null","58","NaN","","","","","","","","","","","","","","",""
"","S2","","html-keyboard-response","379","332567","0.0-1.0-526.0","0","0","78943","","null","","","null","58","","NaN","","","","","","","","","","","","","",""
"","response","","html-keyboard-response","380","332895","0.0-1.0-527.0-0.0","0","0","78943","","327","","","75","58","","","2","58","training","adjacent","AB","1","2","O.jpg","P.jpg","1","1","1","",""
"","feedback","","html-keyboard-response","381","333897","0.0-1.0-528.0-0.0","0","0","78943","","null","","","null","58","","","","","","","","","","","","","","","",""
"","ITI","","html-keyboard-response","382","334915","0.0-1.0-531.0","0","0","78943","","null","","","null","58","","","","","","","","","","","","","","","NaN",""
"","S1","","html-keyboard-response","383","335167","0.0-1.0-533.0","0","0","78943","","null","","","null","59","","","","","","","","","","","","","","","",""
"","ISI","","html-keyboard-response","384","336169","0.0-1.0-534.0","0","0","78943","","null","","","null","59","NaN","","","","","","","","","","","","","","",""
"","S2","","html-keyboard-response","385","336422","0.0-1.0-535.0","0","0","78943","","null","","","null","59","","NaN","","","","","","","","","","","","","",""
"","response","","html-keyboard-response","386","336767","0.0-1.0-536.0-0.0","0","0","78943","","345","","","75","59","","","2","59","training","adjacent","FE","6","5","M.jpg","R.jpg","1","0","0","",""
"","feedback","","html-keyboard-response","387","337770","0.0-1.0-537.0-0.0","0","0","78943","","null","","","null","59","","","","","","","","","","","","","","","",""
"","time_out","","html-keyboard-response","388","339772","0.0-1.0-539.0-0.0","0","0","78943","","null","","","null","59","","","","","","","","","","","","","","","",""
"","ITI","","html-keyboard-response","389","340775","0.0-1.0-540.0","0","0","78943","","null","","","null","59","","","","","","","","","","","","","","","NaN",""
"","S1","","html-keyboard-response","390","341027","0.0-1.0-542.0","0","0","78943","","null","","","null","60","","","","","","","","","","","","","","","",""
"","ISI","","html-keyboard-response","391","342029","0.0-1.0-543.0","0","0","78943","","null","","","null","60","NaN","","","","","","","","","","","","","","",""
"","S2","","html-keyboard-response","392","342251","0.0-1.0-544.0","0","0","78943","","220","","","75","60","","k","2","60","training","adjacent","FG","6","7","M.jpg","N.jpg","1","1","1","",""
"","feedback","","html-keyboard-response","393","343253","0.0-1.0-546.0-0.0","0","0","78943","","null","","","null","60","","","","","","","","","","","","","","","",""
"","ITI","","html-keyboard-response","394","344255","0.0-1.0-549.0","0","0","78943","","null","","","null","60","","","","","","","","","","","","","","","NaN",""
"","S1","","html-keyboard-response","395","344517","0.0-1.0-551.0","0","0","78943","","null","","","null","61","","","","","","","","","","","","","","","",""
"","ISI","","html-keyboard-response","396","345520","0.0-1.0-552.0","0","0","78943","","null","","","null","61","NaN","","","","","","","","","","","","","","",""
"","S2","","html-keyboard-response","397","345771","0.0-1.0-553.0","0","0","78943","","null","","","null","61","","NaN","","","","","","","","","","","","","",""
"","response","","html-keyboard-response","398","346164","0.0-1.0-554.0-0.0","0","0","78943","","392","","","68","61","","","2","61","training","adjacent","CD","3","4","L.jpg","Q.jpg","0","1","0","",""
"","feedback","","html-keyboard-response","399","347178","0.0-1.0-555.0-0.0","0","0","78943","","null","","","null","61","","","","","","","","","","","","","","","",""
"","time_out","","html-keyboard-response","400","349180","0.0-1.0-557.0-0.0","0","0","78943","","null","","","null","61","","","","","","","","","","","","","","","",""
"","ITI","","html-keyboard-response","401","350182","0.0-1.0-558.0","0","0","78943","","null","","","null","61","","","","","","","","","","","","","","","NaN",""
"","S1","","html-keyboard-response","402","350434","0.0-1.0-560.0","0","0","78943","","null","","","null","62","","","","","","","","","","","","","","","",""
"","ISI","","html-keyboard-response","403","351436","0.0-1.0-561.0","0","0","78943","","null","","","null","62","NaN","","","","","","","","","","","","","","",""
"","S2","","html-keyboard-response","404","351701","0.0-1.0-562.0","0","0","78943","","null","","","null","62","","NaN","","","","","","","","","","","","","",""
"","response","","html-keyboard-response","405","352004","0.0-1.0-563.0-0.0","0","0","78943","","302","","","75","62","","","2","62","training","adjacent","ED","5","4","R.jpg","Q.jpg","1","0","0","",""
"","feedback","","html-keyboard-response","406","353007","0.0-1.0-564.0-0.0","0","0","78943","","null","","","null","62","","","","","","","","","","","","","","","",""
"","time_out","","html-keyboard-response","407","355009","0.0-1.0-566.0-0.0","0","0","78943","","null","","","null","62","","","","","","","","","","","","","","","",""
"","ITI","","html-keyboard-response","408","356011","0.0-1.0-567.0","0","0","78943","","null","","","null","62","","","","","","","","","","","","","","","NaN",""
"","S1","","html-keyboard-response","409","356263","0.0-1.0-569.0","0","0","78943","","null","","","null","63","","","","","","","","","","","","","","","",""
"","ISI","","html-keyboard-response","410","357266","0.0-1.0-570.0","0","0","78943","","null","","","null","63","NaN","","","","","","","","","","","","","","",""
"","S2","","html-keyboard-response","411","357518","0.0-1.0-571.0","0","0","78943","","null","","","null","63","","NaN","","","","","","","","","","","","","",""
"","response","","html-keyboard-response","412","357960","0.0-1.0-572.0-0.0","0","0","78943","","442","","","68","63","","","2","63","training","adjacent","CD","3","4","L.jpg","Q.jpg","0","1","0","",""
"","feedback","","html-keyboard-response","413","358963","0.0-1.0-573.0-0.0","0","0","78943","","null","","","null","63","","","","","","","","","","","","","","","",""
"","time_out","","html-keyboard-response","414","360965","0.0-1.0-575.0-0.0","0","0","78943","","null","","","null","63","","","","","","","","","","","","","","","",""
"","ITI","","html-keyboard-response","415","361967","0.0-1.0-576.0","0","0","78943","","null","","","null","63","","","","","","","","","","","","","","","NaN",""
"","S1","","html-keyboard-response","416","362219","0.0-1.0-578.0","0","0","78943","","null","","","null","64","","","","","","","","","","","","","","","",""
"","ISI","","html-keyboard-response","417","363221","0.0-1.0-579.0","0","0","78943","","null","","","null","64","NaN","","","","","","","","","","","","","","",""
"","S2","","html-keyboard-response","418","363473","0.0-1.0-580.0","0","0","78943","","null","","","null","64","","NaN","","","","","","","","","","","","","",""
"","response","","html-keyboard-response","419","363766","0.0-1.0-581.0-0.0","0","0","78943","","292","","","75","64","","","2","64","training","adjacent","CB","3","2","L.jpg","P.jpg","1","0","0","",""
"","feedback","","html-keyboard-response","420","364768","0.0-1.0-582.0-0.0","0","0","78943","","null","","","null","64","","","","","","","","","","","","","","","",""
"","time_out","","html-keyboard-response","421","366771","0.0-1.0-584.0-0.0","0","0","78943","","null","","","null","64","","","","","","","","","","","","","","","",""
"","ITI","","html-keyboard-response","422","367773","0.0-1.0-585.0","0","0","78943","","null","","","null","64","","","","","","","","","","","","","","","NaN",""
"","S1","","html-keyboard-response","423","368024","0.0-1.0-587.0","0","0","78943","","null","","","null","65","","","","","","","","","","","","","","","",""
"","ISI","","html-keyboard-response","424","369036","0.0-1.0-588.0","0","0","78943","","null","","","null","65","NaN","","","","","","","","","","","","","","",""
"","S2","","html-keyboard-response","425","369288","0.0-1.0-589.0","0","0","78943","","null","","","null","65","","NaN","","","","","","","","","","","","","",""
"","response","","html-keyboard-response","426","369526","0.0-1.0-590.0-0.0","0","0","78943","","238","","","68","65","","","2","65","training","adjacent","FG","6","7","M.jpg","N.jpg","0","1","0","",""
"","feedback","","html-keyboard-response","427","370529","0.0-1.0-591.0-0.0","0","0","78943","","null","","","null","65","","","","","","","","","","","","","","","",""
"","time_out","","html-keyboard-response","428","372540","0.0-1.0-593.0-0.0","0","0","78943","","null","","","null","65","","","","","","","","","","","","","","","",""
"","ITI","","html-keyboard-response","429","373541","0.0-1.0-594.0","0","0","78943","","null","","","null","65","","","","","","","","","","","","","","","NaN",""
"","S1","","html-keyboard-response","430","373793","0.0-1.0-596.0","0","0","78943","","null","","","null","66","","","","","","","","","","","","","","","",""
"","ISI","","html-keyboard-response","431","374795","0.0-1.0-597.0","0","0","78943","","null","","","null","66","NaN","","","","","","","","","","","","","","",""
"","S2","","html-keyboard-response","432","375047","0.0-1.0-598.0","0","0","78943","","null","","","null","66","","NaN","","","","","","","","","","","","","",""
"","response","","html-keyboard-response","433","375306","0.0-1.0-599.0-0.0","0","0","78943","","258","","","75","66","","","2","66","training","adjacent","ED","5","4","R.jpg","Q.jpg","1","0","0","",""
"","feedback","","html-keyboard-response","434","376322","0.0-1.0-600.0-0.0","0","0","78943","","null","","","null","66","","","","","","","","","","","","","","","",""
"","time_out","","html-keyboard-response","435","378324","0.0-1.0-602.0-0.0","0","0","78943","","null","","","null","66","","","","","","","","","","","","","","","",""
"","ITI","","html-keyboard-response","436","379325","0.0-1.0-603.0","0","0","78943","","null","","","null","66","","","","","","","","","","","","","","","NaN",""
"","S1","","html-keyboard-response","437","379577","0.0-1.0-605.0","0","0","78943","","null","","","null","67","","","","","","","","","","","","","","","",""
"","ISI","","html-keyboard-response","438","380579","0.0-1.0-606.0","0","0","78943","","null","","","null","67","NaN","","","","","","","","","","","","","","",""
"","S2","","html-keyboard-response","439","380831","0.0-1.0-607.0","0","0","78943","","null","","","null","67","","NaN","","","","","","","","","","","","","",""
"","response","","html-keyboard-response","440","380879","0.0-1.0-608.0-0.0","0","0","78943","","48","","","75","67","","","2","67","training","adjacent","GF","7","6","N.jpg","M.jpg","1","0","0","",""
"","feedback","","html-keyboard-response","441","381882","0.0-1.0-609.0-0.0","0","0","78943","","null","","","null","67","","","","","","","","","","","","","","","",""
"","time_out","","html-keyboard-response","442","383884","0.0-1.0-611.0-0.0","0","0","78943","","null","","","null","67","","","","","","","","","","","","","","","",""
"","ITI","","html-keyboard-response","443","384886","0.0-1.0-612.0","0","0","78943","","null","","","null","67","","","","","","","","","","","","","","","NaN",""
"","S1","","html-keyboard-response","444","385139","0.0-1.0-614.0","0","0","78943","","null","","","null","68","","","","","","","","","","","","","","","",""
"","ISI","","html-keyboard-response","445","386140","0.0-1.0-615.0","0","0","78943","","null","","","null","68","NaN","","","","","","","","","","","","","","",""
"","S2","","html-keyboard-response","446","386392","0.0-1.0-616.0","0","0","78943","","null","","","null","68","","NaN","","","","","","","","","","","","","",""
"","response","","html-keyboard-response","447","387175","0.0-1.0-617.0-0.0","0","0","78943","","782","","","75","68","","","2","68","training","adjacent","CB","3","2","L.jpg","P.jpg","1","0","0","",""
"","feedback","","html-keyboard-response","448","388178","0.0-1.0-618.0-0.0","0","0","78943","","null","","","null","68","","","","","","","","","","","","","","","",""
"","time_out","","html-keyboard-response","449","390181","0.0-1.0-620.0-0.0","0","0","78943","","null","","","null","68","","","","","","","","","","","","","","","",""
"","ITI","","html-keyboard-response","450","391183","0.0-1.0-621.0","0","0","78943","","null","","","null","68","","","","","","","","","","","","","","","NaN",""
"","S1","","html-keyboard-response","451","391435","0.0-1.0-623.0","0","0","78943","","null","","","null","69","","","","","","","","","","","","","","","",""
"","ISI","","html-keyboard-response","452","392438","0.0-1.0-624.0","0","0","78943","","null","","","null","69","NaN","","","","","","","","","","","","","","",""
"","S2","","html-keyboard-response","453","392695","0.0-1.0-625.0","0","0","78943","","null","","","null","69","","NaN","","","","","","","","","","","","","",""
"","response","","html-keyboard-response","454","393612","0.0-1.0-626.0-0.0","0","0","78943","","916","","","75","69","","","2","69","training","adjacent","DC","4","3","Q.jpg","L.jpg","1","0","0","",""
"","feedback","","html-keyboard-response","455","394623","0.0-1.0-627.0-0.0","0","0","78943","","null","","","null","69","","","","","","","","","","","","","","","",""
"","time_out","","html-keyboard-response","456","396625","0.0-1.0-629.0-0.0","0","0","78943","","null","","","null","69","","","","","","","","","","","","","","","",""
"","ITI","","html-keyboard-response","457","397627","0.0-1.0-630.0","0","0","78943","","null","","","null","69","","","","","","","","","","","","","","","NaN",""
"","S1","","html-keyboard-response","458","397885","0.0-1.0-632.0","0","0","78943","","null","","","null","70","","","","","","","","","","","","","","","",""
"","ISI","","html-keyboard-response","459","398887","0.0-1.0-633.0","0","0","78943","","null","","","null","70","NaN","","","","","","","","","","","","","","",""
"","S2","","html-keyboard-response","460","399140","0.0-1.0-634.0","0","0","78943","","null","","","null","70","","NaN","","","","","","","","","","","","","",""
"","response","","html-keyboard-response","461","399519","0.0-1.0-635.0-0.0","0","0","78943","","379","","","68","70","","","2","70","training","adjacent","FE","6","5","M.jpg","R.jpg","0","0","1","",""
"","feedback","","html-keyboard-response","462","400521","0.0-1.0-636.0-0.0","0","0","78943","","null","","","null","70","","","","","","","","","","","","","","","",""
"","ITI","","html-keyboard-response","463","401523","0.0-1.0-639.0","0","0","78943","","null","","","null","70","","","","","","","","","","","","","","","NaN",""
"","S1","","html-keyboard-response","464","401776","0.0-1.0-641.0","0","0","78943","","null","","","null","71","","","","","","","","","","","","","","","",""
"","ISI","","html-keyboard-response","465","402785","0.0-1.0-642.0","0","0","78943","","null","","","null","71","NaN","","","","","","","","","","","","","","",""
"","S2","","html-keyboard-response","466","403037","0.0-1.0-643.0","0","0","78943","","null","","","null","71","","NaN","","","","","","","","","","","","","",""
"","response","","html-keyboard-response","467","403433","0.0-1.0-644.0-0.0","0","0","78943","","395","","","75","71","","","2","71","training","adjacent","BC","2","3","P.jpg","L.jpg","1","1","1","",""
"","feedback","","html-keyboard-response","468","404435","0.0-1.0-645.0-0.0","0","0","78943","","null","","","null","71","","","","","","","","","","","","","","","",""
"","ITI","","html-keyboard-response","469","405437","0.0-1.0-648.0","0","0","78943","","null","","","null","71","","","","","","","","","","","","","","","NaN",""
"","S1","","html-keyboard-response","470","405689","0.0-1.0-650.0","0","0","78943","","null","","","null","72","","","","","","","","","","","","","","","",""
"","ISI","","html-keyboard-response","471","406691","0.0-1.0-651.0","0","0","78943","","null","","","null","72","NaN","","","","","","","","","","","","","","",""
"","S2","","html-keyboard-response","472","406950","0.0-1.0-652.0","0","0","78943","","null","","","null","72","","NaN","","","","","","","","","","","","","",""
"","response","","html-keyboard-response","473","407392","0.0-1.0-653.0-0.0","0","0","78943","","441","","","68","72","","","2","72","training","adjacent","BC","2","3","P.jpg","L.jpg","0","1","0","",""
"","feedback","","html-keyboard-response","474","408393","0.0-1.0-654.0-0.0","0","0","78943","","null","","","null","72","","","","","","","","","","","","","","","",""
"","time_out","","html-keyboard-response","475","410395","0.0-1.0-656.0-0.0","0","0","78943","","null","","","null","72","","","","","","","","","","","","","","","",""
"","ITI","","html-keyboard-response","476","411397","0.0-1.0-657.0","0","0","78943","","null","","","null","72","","","","","","","","","","","","","","","NaN",""
"","S1","","html-keyboard-response","477","411650","0.0-1.0-659.0","0","0","78943","","null","","","null","73","","","","","","","","","","","","","","","",""
"","ISI","","html-keyboard-response","478","412652","0.0-1.0-660.0","0","0","78943","","null","","","null","73","NaN","","","","","","","","","","","","","","",""
"","S2","","html-keyboard-response","479","412904","0.0-1.0-661.0","0","0","78943","","null","","","null","73","","NaN","","","","","","","","","","","","","",""
"","response","","html-keyboard-response","480","413052","0.0-1.0-662.0-0.0","0","0","78943","","148","","","75","73","","","2","73","training","adjacent","DE","4","5","Q.jpg","R.jpg","1","1","1","",""
"","feedback","","html-keyboard-response","481","414054","0.0-1.0-663.0-0.0","0","0","78943","","null","","","null","73","","","","","","","","","","","","","","","",""
"","ITI","","html-keyboard-response","482","415056","0.0-1.0-666.0","0","0","78943","","null","","","null","73","","","","","","","","","","","","","","","NaN",""
"","S1","","html-keyboard-response","483","415320","0.0-1.0-668.0","0","0","78943","","null","","","null","74","","","","","","","","","","","","","","","",""
"","ISI","","html-keyboard-response","484","416321","0.0-1.0-669.0","0","0","78943","","null","","","null","74","NaN","","","","","","","","","","","","","","",""
"","S2","","html-keyboard-response","485","416574","0.0-1.0-670.0","0","0","78943","","null","","","null","74","","NaN","","","","","","","","","","","","","",""
"","response","","html-keyboard-response","486","417398","0.0-1.0-671.0-0.0","0","0","78943","","823","","","75","74","","","2","74","training","adjacent","DC","4","3","Q.jpg","L.jpg","1","0","0","",""
"","feedback","","html-keyboard-response","487","418400","0.0-1.0-672.0-0.0","0","0","78943","","null","","","null","74","","","","","","","","","","","","","","","",""
"","time_out","","html-keyboard-response","488","420402","0.0-1.0-674.0-0.0","0","0","78943","","null","","","null","74","","","","","","","","","","","","","","","",""
"","ITI","","html-keyboard-response","489","421404","0.0-1.0-675.0","0","0","78943","","null","","","null","74","","","","","","","","","","","","","","","NaN",""
"","S1","","html-keyboard-response","490","421656","0.0-1.0-677.0","0","0","78943","","null","","","null","75","","","","","","","","","","","","","","","",""
"","ISI","","html-keyboard-response","491","422659","0.0-1.0-678.0","0","0","78943","","null","","","null","75","NaN","","","","","","","","","","","","","","",""
"","S2","","html-keyboard-response","492","422911","0.0-1.0-679.0","0","0","78943","","null","","","null","75","","NaN","","","","","","","","","","","","","",""
"","response","","html-keyboard-response","493","423397","0.0-1.0-680.0-0.0","0","0","78943","","485","","","68","75","","","2","75","training","adjacent","ED","5","4","R.jpg","Q.jpg","0","0","1","",""
"","feedback","","html-keyboard-response","494","424399","0.0-1.0-681.0-0.0","0","0","78943","","null","","","null","75","","","","","","","","","","","","","","","",""
"","ITI","","html-keyboard-response","495","425402","0.0-1.0-684.0","0","0","78943","","null","","","null","75","","","","","","","","","","","","","","","NaN",""
"","S1","","html-keyboard-response","496","425653","0.0-1.0-686.0","0","0","78943","","null","","","null","76","","","","","","","","","","","","","","","",""
"","ISI","","html-keyboard-response","497","426655","0.0-1.0-687.0","0","0","78943","","null","","","null","76","NaN","","","","","","","","","","","","","","",""
"","S2","","html-keyboard-response","498","426907","0.0-1.0-688.0","0","0","78943","","null","","","null","76","","NaN","","","","","","","","","","","","","",""
"","response","","html-keyboard-response","499","427184","0.0-1.0-689.0-0.0","0","0","78943","","276","","","68","76","","","2","76","training","adjacent","BA","2","1","P.jpg","O.jpg","0","0","1","",""
"","feedback","","html-keyboard-response","500","428186","0.0-1.0-690.0-0.0","0","0","78943","","null","","","null","76","","","","","","","","","","","","","","","",""
"","ITI","","html-keyboard-response","501","429188","0.0-1.0-693.0","0","0","78943","","null","","","null","76","","","","","","","","","","","","","","","NaN",""
"","S1","","html-keyboard-response","502","429451","0.0-1.0-695.0","0","0","78943","","null","","","null","77","","","","","","","","","","","","","","","",""
"","ISI","","html-keyboard-response","503","430453","0.0-1.0-696.0","0","0","78943","","null","","","null","77","NaN","","","","","","","","","","","","","","",""
"","S2","","html-keyboard-response","504","430704","0.0-1.0-697.0","0","0","78943","","null","","","null","77","","NaN","","","","","","","","","","","","","",""
"","response","","html-keyboard-response","505","431345","0.0-1.0-698.0-0.0","0","0","78943","","640","","","68","77","","","2","77","training","adjacent","GF","7","6","N.jpg","M.jpg","0","0","1","",""
"","feedback","","html-keyboard-response","506","432346","0.0-1.0-699.0-0.0","0","0","78943","","null","","","null","77","","","","","","","","","","","","","","","",""
"","ITI","","html-keyboard-response","507","433356","0.0-1.0-702.0","0","0","78943","","null","","","null","77","","","","","","","","","","","","","","","NaN",""
"","S1","","html-keyboard-response","508","433607","0.0-1.0-704.0","0","0","78943","","null","","","null","78","","","","","","","","","","","","","","","",""
"","ISI","","html-keyboard-response","509","434609","0.0-1.0-705.0","0","0","78943","","null","","","null","78","NaN","","","","","","","","","","","","","","",""
"","S2","","html-keyboard-response","510","434861","0.0-1.0-706.0","0","0","78943","","null","","","null","78","","NaN","","","","","","","","","","","","","",""
"","response","","html-keyboard-response","511","435323","0.0-1.0-707.0-0.0","0","0","78943","","460","","","75","78","","","2","78","training","adjacent","ED","5","4","R.jpg","Q.jpg","1","0","0","",""
"","feedback","","html-keyboard-response","512","436325","0.0-1.0-708.0-0.0","0","0","78943","","null","","","null","78","","","","","","","","","","","","","","","",""
"","time_out","","html-keyboard-response","513","438330","0.0-1.0-710.0-0.0","0","0","78943","","null","","","null","78","","","","","","","","","","","","","","","",""
"","ITI","","html-keyboard-response","514","439331","0.0-1.0-711.0","0","0","78943","","null","","","null","78","","","","","","","","","","","","","","","NaN",""
"","S1","","html-keyboard-response","515","439583","0.0-1.0-713.0","0","0","78943","","null","","","null","79","","","","","","","","","","","","","","","",""
"","ISI","","html-keyboard-response","516","440585","0.0-1.0-714.0","0","0","78943","","null","","","null","79","NaN","","","","","","","","","","","","","","",""
"","S2","","html-keyboard-response","517","440802","0.0-1.0-715.0","0","0","78943","","215","","","75","79","","k","2","79","training","adjacent","EF","5","6","R.jpg","M.jpg","1","1","1","",""
"","feedback","","html-keyboard-response","518","441808","0.0-1.0-717.0-0.0","0","0","78943","","null","","","null","79","","","","","","","","","","","","","","","",""
"","ITI","","html-keyboard-response","519","442810","0.0-1.0-720.0","0","0","78943","","null","","","null","79","","","","","","","","","","","","","","","NaN",""
"","S1","","html-keyboard-response","520","443062","0.0-1.0-722.0","0","0","78943","","null","","","null","80","","","","","","","","","","","","","","","",""
"","ISI","","html-keyboard-response","521","444064","0.0-1.0-723.0","0","0","78943","","null","","","null","80","NaN","","","","","","","","","","","","","","",""
"","S2","","html-keyboard-response","522","444322","0.0-1.0-724.0","0","0","78943","","null","","","null","80","","NaN","","","","","","","","","","","","","",""
"","response","","html-keyboard-response","523","444440","0.0-1.0-725.0-0.0","0","0","78943","","117","","","68","80","","","2","80","training","adjacent","GF","7","6","N.jpg","M.jpg","0","0","1","",""
"","feedback","","html-keyboard-response","524","445450","0.0-1.0-726.0-0.0","0","0","78943","","null","","","null","80","","","","","","","","","","","","","","","",""
"","ITI","","html-keyboard-response","525","446452","0.0-1.0-729.0","0","0","78943","","null","","","null","80","","","","","","","","","","","","","","","NaN",""
"","S1","","html-keyboard-response","526","446703","0.0-1.0-731.0","0","0","78943","","null","","","null","81","","","","","","","","","","","","","","","",""
"","ISI","","html-keyboard-response","527","447705","0.0-1.0-732.0","0","0","78943","","null","","","null","81","NaN","","","","","","","","","","","","","","",""
"","S2","","html-keyboard-response","528","447957","0.0-1.0-733.0","0","0","78943","","null","","","null","81","","NaN","","","","","","","","","","","","","",""
"","response","","html-keyboard-response","529","448313","0.0-1.0-734.0-0.0","0","0","78943","","354","","","75","81","","","2","81","training","adjacent","BA","2","1","P.jpg","O.jpg","1","0","0","",""
"","feedback","","html-keyboard-response","530","449326","0.0-1.0-735.0-0.0","0","0","78943","","null","","","null","81","","","","","","","","","","","","","","","",""
"","time_out","","html-keyboard-response","531","451342","0.0-1.0-737.0-0.0","0","0","78943","","null","","","null","81","","","","","","","","","","","","","","","",""
"","ITI","","html-keyboard-response","532","452344","0.0-1.0-738.0","0","0","78943","","null","","","null","81","","","","","","","","","","","","","","","NaN",""
"","S1","","html-keyboard-response","533","452596","0.0-1.0-740.0","0","0","78943","","null","","","null","82","","","","","","","","","","","","","","","",""
"","ISI","","html-keyboard-response","534","453599","0.0-1.0-741.0","0","0","78943","","null","","","null","82","NaN","","","","","","","","","","","","","","",""
"","S2","","html-keyboard-response","535","453851","0.0-1.0-742.0","0","0","78943","","null","","","null","82","","NaN","","","","","","","","","","","","","",""
"","response","","html-keyboard-response","536","454140","0.0-1.0-743.0-0.0","0","0","78943","","289","","","68","82","","","2","82","training","adjacent","AB","1","2","O.jpg","P.jpg","0","1","0","",""
"","feedback","","html-keyboard-response","537","455142","0.0-1.0-744.0-0.0","0","0","78943","","null","","","null","82","","","","","","","","","","","","","","","",""
"","time_out","","html-keyboard-response","538","457145","0.0-1.0-746.0-0.0","0","0","78943","","null","","","null","82","","","","","","","","","","","","","","","",""
"","ITI","","html-keyboard-response","539","458147","0.0-1.0-747.0","0","0","78943","","null","","","null","82","","","","","","","","","","","","","","","NaN",""
"","S1","","html-keyboard-response","540","458414","0.0-1.0-749.0","0","0","78943","","null","","","null","83","","","","","","","","","","","","","","","",""
"","ISI","","html-keyboard-response","541","459416","0.0-1.0-750.0","0","0","78943","","null","","","null","83","NaN","","","","","","","","","","","","","","",""
"","S2","","html-keyboard-response","542","459668","0.0-1.0-751.0","0","0","78943","","null","","","null","83","","NaN","","","","","","","","","","","","","",""
"","response","","html-keyboard-response","543","459982","0.0-1.0-752.0-0.0","0","0","78943","","314","","","75","83","","","2","83","training","adjacent","FG","6","7","M.jpg","N.jpg","1","1","1","",""
"","feedback","","html-keyboard-response","544","460985","0.0-1.0-753.0-0.0","0","0","78943","","null","","","null","83","","","","","","","","","","","","","","","",""
"","ITI","","html-keyboard-response","545","461986","0.0-1.0-756.0","0","0","78943","","null","","","null","83","","","","","","","","","","","","","","","NaN",""
"","S1","","html-keyboard-response","546","462238","0.0-1.0-758.0","0","0","78943","","null","","","null","84","","","","","","","","","","","","","","","",""
"","ISI","","html-keyboard-response","547","463240","0.0-1.0-759.0","0","0","78943","","null","","","null","84","NaN","","","","","","","","","","","","","","",""
"","S2","","html-keyboard-response","548","463502","0.0-1.0-760.0","0","0","78943","","null","","","null","84","","NaN","","","","","","","","","","","","","",""
"","response","","html-keyboard-response","549","463851","0.0-1.0-761.0-0.0","0","0","78943","","347","","","75","84","","","2","84","training","adjacent","EF","5","6","R.jpg","M.jpg","1","1","1","",""
"","feedback","","html-keyboard-response","550","464852","0.0-1.0-762.0-0.0","0","0","78943","","null","","","null","84","","","","","","","","","","","","","","","",""
"","ITI","","html-keyboard-response","551","465859","0.0-1.0-765.0","0","0","78943","","null","","","null","84","","","","","","","","","","","","","","","NaN",""
"","S1","","html-keyboard-response","552","466123","0.0-1.0-767.0","0","0","78943","","null","","","null","85","","","","","","","","","","","","","","","",""
"","ISI","","html-keyboard-response","553","467138","0.0-1.0-768.0","0","0","78943","","null","","","null","85","NaN","","","","","","","","","","","","","","",""
"","S2","","html-keyboard-response","554","467390","0.0-1.0-769.0","0","0","78943","","null","","","null","85","","NaN","","","","","","","","","","","","","",""
"","response","","html-keyboard-response","555","467596","0.0-1.0-770.0-0.0","0","0","78943","","205","","","75","85","","","2","85","training","adjacent","CD","3","4","L.jpg","Q.jpg","1","1","1","",""
"","feedback","","html-keyboard-response","556","468598","0.0-1.0-771.0-0.0","0","0","78943","","null","","","null","85","","","","","","","","","","","","","","","",""
"","ITI","","html-keyboard-response","557","469607","0.0-1.0-774.0","0","0","78943","","null","","","null","85","","","","","","","","","","","","","","","NaN",""
"","S1","","html-keyboard-response","558","469871","0.0-1.0-776.0","0","0","78943","","null","","","null","86","","","","","","","","","","","","","","","",""
"","ISI","","html-keyboard-response","559","470874","0.0-1.0-777.0","0","0","78943","","null","","","null","86","NaN","","","","","","","","","","","","","","",""
"","S2","","html-keyboard-response","560","471126","0.0-1.0-778.0","0","0","78943","","null","","","null","86","","NaN","","","","","","","","","","","","","",""
"","response","","html-keyboard-response","561","471355","0.0-1.0-779.0-0.0","0","0","78943","","227","","","75","86","","","2","86","training","adjacent","DE","4","5","Q.jpg","R.jpg","1","1","1","",""
"","feedback","","html-keyboard-response","562","472357","0.0-1.0-780.0-0.0","0","0","78943","","null","","","null","86","","","","","","","","","","","","","","","",""
"","ITI","","html-keyboard-response","563","473359","0.0-1.0-783.0","0","0","78943","","null","","","null","86","","","","","","","","","","","","","","","NaN",""
"","S1","","html-keyboard-response","564","473611","0.0-1.0-785.0","0","0","78943","","null","","","null","87","","","","","","","","","","","","","","","",""
"","ISI","","html-keyboard-response","565","474613","0.0-1.0-786.0","0","0","78943","","null","","","null","87","NaN","","","","","","","","","","","","","","",""
"","S2","","html-keyboard-response","566","474865","0.0-1.0-787.0","0","0","78943","","null","","","null","87","","NaN","","","","","","","","","","","","","",""
"","response","","html-keyboard-response","567","475271","0.0-1.0-788.0-0.0","0","0","78943","","405","","","75","87","","","2","87","training","adjacent","AB","1","2","O.jpg","P.jpg","1","1","1","",""
"","feedback","","html-keyboard-response","568","476274","0.0-1.0-789.0-0.0","0","0","78943","","null","","","null","87","","","","","","","","","","","","","","","",""
"","ITI","","html-keyboard-response","569","477275","0.0-1.0-792.0","0","0","78943","","null","","","null","87","","","","","","","","","","","","","","","NaN",""
"","S1","","html-keyboard-response","570","477527","0.0-1.0-794.0","0","0","78943","","null","","","null","88","","","","","","","","","","","","","","","",""
"","ISI","","html-keyboard-response","571","478529","0.0-1.0-795.0","0","0","78943","","null","","","null","88","NaN","","","","","","","","","","","","","","",""
"","S2","","html-keyboard-response","572","478781","0.0-1.0-796.0","0","0","78943","","null","","","null","88","","NaN","","","","","","","","","","","","","",""
"","response","","html-keyboard-response","573","479011","0.0-1.0-797.0-0.0","0","0","78943","","228","","","75","88","","","2","88","training","adjacent","FG","6","7","M.jpg","N.jpg","1","1","1","",""
"","feedback","","html-keyboard-response","574","480013","0.0-1.0-798.0-0.0","0","0","78943","","null","","","null","88","","","","","","","","","","","","","","","",""
"","ITI","","html-keyboard-response","575","481016","0.0-1.0-801.0","0","0","78943","","null","","","null","88","","","","","","","","","","","","","","","NaN",""
"","S1","","html-keyboard-response","576","481268","0.0-1.0-803.0","0","0","78943","","null","","","null","89","","","","","","","","","","","","","","","",""
"","ISI","","html-keyboard-response","577","482269","0.0-1.0-804.0","0","0","78943","","null","","","null","89","NaN","","","","","","","","","","","","","","",""
"","S2","","html-keyboard-response","578","482521","0.0-1.0-805.0","0","0","78943","","null","","","null","89","","NaN","","","","","","","","","","","","","",""
"","response","","html-keyboard-response","579","482664","0.0-1.0-806.0-0.0","0","0","78943","","143","","","75","89","","","2","89","training","adjacent","BC","2","3","P.jpg","L.jpg","1","1","1","",""
"","feedback","","html-keyboard-response","580","483666","0.0-1.0-807.0-0.0","0","0","78943","","null","","","null","89","","","","","","","","","","","","","","","",""
"","ITI","","html-keyboard-response","581","484669","0.0-1.0-810.0","0","0","78943","","null","","","null","89","","","","","","","","","","","","","","","NaN",""
"","S1","","html-keyboard-response","582","484921","0.0-1.0-812.0","0","0","78943","","null","","","null","90","","","","","","","","","","","","","","","",""
"","ISI","","html-keyboard-response","583","485922","0.0-1.0-813.0","0","0","78943","","null","","","null","90","NaN","","","","","","","","","","","","","","",""
