"success","ttype","start_time","trial_type","trial_index","time_elapsed","internal_node_id","warning","missed_checkup","PID","view_history","rt","responses","repeat_instructions","key_press","index","keypress_isi","keypress_S2","block","trial_num","phase","group_type","pair_type","S1_stim","S2_stim","S1_img","S2_img","S1_chosen","S1_higher","accuracy","keypress_iti","total_bonus_tally"
"true","full_screen","d08052022hr1226","fullscreen","0","10556","0.0-0.0","0","0","47309","","","","","","","","","","","","","","","","","","","","","",""
"","instructions","","instructions","1","134430","0.0-1.0-0.0-0.0","0","0","47309","[{""page_index"":0,""viewing_time"":6159},{""page_index"":1,""viewing_time"":66946},{""page_index"":2,""viewing_time"":39064},{""page_index"":3,""viewing_time"":11679}]","123865","","","","","","","","","","","","","","","","","","","",""
"","comprehension_check","","survey-multi-choice","2","163110","0.0-1.0-0.0-1.0","0","0","47309","","28587","{""Q0"":""True"",""Q1"":""D"",""Q2"":""Only when the screen 'MAKE A CHOICE' is shown"",""Q3"":""Green mark"",""Q4"":""either D or K""}","1","","","","","","","","","","","","","","","","","",""
"","missed_instruction_checkup","","html-keyboard-response","3","176038","0.0-1.0-0.0-2.0-0.0","0","1","47309","","12900","","","32","","","","","","","","","","","","","","","","",""
"","instructions","","instructions","4","186193","0.0-1.0-0.1-0.1","0","0","47309","[{""page_index"":0,""viewing_time"":2518},{""page_index"":1,""viewing_time"":3370},{""page_index"":2,""viewing_time"":2808},{""page_index"":3,""viewing_time"":1444}]","10142","","","","","","","","","","","","","","","","","","","",""
"","comprehension_check","","survey-multi-choice","5","199368","0.0-1.0-0.1-1.1","0","0","47309","","13142","{""Q0"":""True"",""Q1"":""K"",""Q2"":""Once the second image appears and while the screen 'MAKE A CHOICE' is shown"",""Q3"":""Green mark"",""Q4"":""either D or K""}","0","","","","","","","","","","","","","","","","","",""
"","start_exp","","html-keyboard-response","6","205988","0.0-1.0-1.0","0","0","47309","","6607","","","32","","","","","","","","","","","","","","","","",""
"","S1","","html-keyboard-response","7","206255","0.0-1.0-2.0","0","0","47309","","null","","","null","0","","","","","","","","","","","","","","","",""
"","ISI","","html-keyboard-response","8","208262","0.0-1.0-3.0","0","0","47309","","null","","","null","0","NaN","","","","","","","","","","","","","","",""
"","S2","","html-keyboard-response","9","208897","0.0-1.0-4.0","0","0","47309","","null","","","null","0","","NaN","","","","","","","","","","","","","",""
"","response","","html-keyboard-response","10","210412","0.0-1.0-5.0-0.0","0","0","47309","","1505","","","75","0","","","1","0","training","adjacent","DE","4","5","M.jpg","N.jpg","1","1","1","",""
"","feedback","","html-keyboard-response","11","211423","0.0-1.0-6.0-0.0","0","0","47309","","null","","","null","0","","","","","","","","","","","","","","","",""
"","ITI","","html-keyboard-response","12","212431","0.0-1.0-9.0","0","0","47309","","null","","","null","0","","","","","","","","","","","","","","","NaN",""
"","S1","","html-keyboard-response","13","212689","0.0-1.0-11.0","0","0","47309","","null","","","null","1","","","","","","","","","","","","","","","",""
"","ISI","","html-keyboard-response","14","214697","0.0-1.0-12.0","0","0","47309","","null","","","null","1","NaN","","","","","","","","","","","","","","",""
"","S2","","html-keyboard-response","15","214954","0.0-1.0-13.0","0","0","47309","","null","","","null","1","","NaN","","","","","","","","","","","","","",""
"","response","","html-keyboard-response","16","216372","0.0-1.0-14.0-0.0","0","0","47309","","1411","","","68","1","","","1","1","training","adjacent","FG","6","7","P.jpg","L.jpg","0","1","0","",""
"","feedback","","html-keyboard-response","17","217383","0.0-1.0-15.0-0.0","0","0","47309","","null","","","null","1","","","","","","","","","","","","","","","",""
"","time_out","","html-keyboard-response","18","219395","0.0-1.0-17.0-0.0","0","0","47309","","null","","","null","1","","","","","","","","","","","","","","","",""
"","ITI","","html-keyboard-response","19","220405","0.0-1.0-18.0","0","0","47309","","null","","","null","1","","","","","","","","","","","","","","","NaN",""
"","S1","","html-keyboard-response","20","220665","0.0-1.0-20.0","0","0","47309","","null","","","null","2","","","","","","","","","","","","","","","",""
"","ISI","","html-keyboard-response","21","222673","0.0-1.0-21.0","0","0","47309","","null","","","null","2","NaN","","","","","","","","","","","","","","",""
"","S2","","html-keyboard-response","22","222931","0.0-1.0-22.0","0","0","47309","","null","","","null","2","","NaN","","","","","","","","","","","","","",""
"","response","","html-keyboard-response","23","224694","0.0-1.0-23.0-0.0","0","0","47309","","null","","","null","2","","","1","2","training","adjacent","EF","5","6","N.jpg","P.jpg","NaN","1","0","",""
"","too_slow_prompt","","html-keyboard-response","24","225716","0.0-1.0-25.0-0.0","1","0","47309","","null","","","null","","","","","","","","","","","","","","","","",""
"","time_out","","html-keyboard-response","25","227736","0.0-1.0-26.0-0.0","0","0","47309","","null","","","null","2","","","","","","","","","","","","","","","",""
"","ITI","","html-keyboard-response","26","228746","0.0-1.0-27.0","0","0","47309","","null","","","null","2","","","","","","","","","","","","","","","NaN",""
"","S1","","html-keyboard-response","27","229002","0.0-1.0-29.0","0","0","47309","","null","","","null","3","","","","","","","","","","","","","","","",""
"","ISI","","html-keyboard-response","28","231013","0.0-1.0-30.0","0","0","47309","","null","","","null","3","NaN","","","","","","","","","","","","","","",""
"","S2","","html-keyboard-response","29","231273","0.0-1.0-31.0","0","0","47309","","null","","","null","3","","NaN","","","","","","","","","","","","","",""
"","response","","html-keyboard-response","30","233033","0.0-1.0-32.0-0.0","0","0","47309","","null","","","null","3","","","1","3","training","adjacent","AB","1","2","R.jpg","O.jpg","NaN","1","0","",""
"","too_slow_prompt","","html-keyboard-response","31","234043","0.0-1.0-34.0-0.0","1","0","47309","","null","","","null","","","","","","","","","","","","","","","","",""
"","time_out","","html-keyboard-response","32","236049","0.0-1.0-35.0-0.0","0","0","47309","","null","","","null","3","","","","","","","","","","","","","","","",""
"","ITI","","html-keyboard-response","33","237060","0.0-1.0-36.0","0","0","47309","","null","","","null","3","","","","","","","","","","","","","","","NaN",""
"","S1","","html-keyboard-response","34","237319","0.0-1.0-38.0","0","0","47309","","null","","","null","4","","","","","","","","","","","","","","","",""
"","ISI","","html-keyboard-response","35","239329","0.0-1.0-39.0","0","0","47309","","402","","","75","4","k","","","","","","","","","","","","","","",""
"","S2","","html-keyboard-response","36","239589","0.0-1.0-40.0","0","0","47309","","null","","","null","4","","NaN","","","","","","","","","","","","","",""
"","response","","html-keyboard-response","37","240052","0.0-1.0-41.0-0.0","0","0","47309","","454","","","75","4","","","1","4","training","adjacent","BA","2","1","O.jpg","R.jpg","1","0","0","",""
"","feedback","","html-keyboard-response","38","241064","0.0-1.0-42.0-0.0","0","0","47309","","null","","","null","4","","","","","","","","","","","","","","","",""
"","time_out","","html-keyboard-response","39","243076","0.0-1.0-44.0-0.0","0","0","47309","","null","","","null","4","","","","","","","","","","","","","","","",""
"","ITI","","html-keyboard-response","40","244087","0.0-1.0-45.0","0","0","47309","","null","","","null","4","","","","","","","","","","","","","","","NaN",""
"","S1","","html-keyboard-response","41","244344","0.0-1.0-47.0","0","0","47309","","null","","","null","5","","","","","","","","","","","","","","","",""
"","ISI","","html-keyboard-response","42","246354","0.0-1.0-48.0","0","0","47309","","null","","","null","5","NaN","","","","","","","","","","","","","","",""
"","S2","","html-keyboard-response","43","246615","0.0-1.0-49.0","0","0","47309","","null","","","null","5","","NaN","","","","","","","","","","","","","",""
"","response","","html-keyboard-response","44","247559","0.0-1.0-50.0-0.0","0","0","47309","","936","","","75","5","","","1","5","training","adjacent","FE","6","5","P.jpg","N.jpg","1","0","0","",""
"","feedback","","html-keyboard-response","45","248571","0.0-1.0-51.0-0.0","0","0","47309","","null","","","null","5","","","","","","","","","","","","","","","",""
"","time_out","","html-keyboard-response","46","250581","0.0-1.0-53.0-0.0","0","0","47309","","null","","","null","5","","","","","","","","","","","","","","","",""
"","ITI","","html-keyboard-response","47","251594","0.0-1.0-54.0","0","0","47309","","null","","","null","5","","","","","","","","","","","","","","","NaN",""
"","S1","","html-keyboard-response","48","251852","0.0-1.0-56.0","0","0","47309","","null","","","null","6","","","","","","","","","","","","","","","",""
"","ISI","","html-keyboard-response","49","253858","0.0-1.0-57.0","0","0","47309","","null","","","null","6","NaN","","","","","","","","","","","","","","",""
"","S2","","html-keyboard-response","50","254119","0.0-1.0-58.0","0","0","47309","","null","","","null","6","","NaN","","","","","","","","","","","","","",""
"","response","","html-keyboard-response","51","255149","0.0-1.0-59.0-0.0","0","0","47309","","1023","","","68","6","","","1","6","training","adjacent","CD","3","4","Q.jpg","M.jpg","0","1","0","",""
"","feedback","","html-keyboard-response","52","256159","0.0-1.0-60.0-0.0","0","0","47309","","null","","","null","6","","","","","","","","","","","","","","","",""
"","time_out","","html-keyboard-response","53","258171","0.0-1.0-62.0-0.0","0","0","47309","","null","","","null","6","","","","","","","","","","","","","","","",""
"","ITI","","html-keyboard-response","54","259181","0.0-1.0-63.0","0","0","47309","","null","","","null","6","","","","","","","","","","","","","","","NaN",""
"","S1","","html-keyboard-response","55","259443","0.0-1.0-65.0","0","0","47309","","null","","","null","7","","","","","","","","","","","","","","","",""
"","ISI","","html-keyboard-response","56","261454","0.0-1.0-66.0","0","0","47309","","null","","","null","7","NaN","","","","","","","","","","","","","","",""
"","S2","","html-keyboard-response","57","261714","0.0-1.0-67.0","0","0","47309","","null","","","null","7","","NaN","","","","","","","","","","","","","",""
"","response","","html-keyboard-response","58","262807","0.0-1.0-68.0-0.0","0","0","47309","","1083","","","75","7","","","1","7","training","adjacent","GF","7","6","L.jpg","P.jpg","1","0","0","",""
"","feedback","","html-keyboard-response","59","263813","0.0-1.0-69.0-0.0","0","0","47309","","null","","","null","7","","","","","","","","","","","","","","","",""
"","time_out","","html-keyboard-response","60","265824","0.0-1.0-71.0-0.0","0","0","47309","","null","","","null","7","","","","","","","","","","","","","","","",""
"","ITI","","html-keyboard-response","61","266835","0.0-1.0-72.0","0","0","47309","","null","","","null","7","","","","","","","","","","","","","","","NaN",""
"","S1","","html-keyboard-response","62","267098","0.0-1.0-74.0","0","0","47309","","null","","","null","8","","","","","","","","","","","","","","","",""
"","ISI","","html-keyboard-response","63","269110","0.0-1.0-75.0","0","0","47309","","null","","","null","8","NaN","","","","","","","","","","","","","","",""
"","S2","","html-keyboard-response","64","269371","0.0-1.0-76.0","0","0","47309","","null","","","null","8","","NaN","","","","","","","","","","","","","",""
"","response","","html-keyboard-response","65","270516","0.0-1.0-77.0-0.0","0","0","47309","","1138","","","68","8","","","1","8","training","adjacent","DE","4","5","M.jpg","N.jpg","0","1","0","",""
"","feedback","","html-keyboard-response","66","271528","0.0-1.0-78.0-0.0","0","0","47309","","null","","","null","8","","","","","","","","","","","","","","","",""
"","time_out","","html-keyboard-response","67","273536","0.0-1.0-80.0-0.0","0","0","47309","","null","","","null","8","","","","","","","","","","","","","","","",""
"","ITI","","html-keyboard-response","68","274543","0.0-1.0-81.0","0","0","47309","","null","","","null","8","","","","","","","","","","","","","","","NaN",""
"","S1","","html-keyboard-response","69","274806","0.0-1.0-83.0","0","0","47309","","null","","","null","9","","","","","","","","","","","","","","","",""
"","ISI","","html-keyboard-response","70","276816","0.0-1.0-84.0","0","0","47309","","null","","","null","9","NaN","","","","","","","","","","","","","","",""
"","S2","","html-keyboard-response","71","277077","0.0-1.0-85.0","0","0","47309","","null","","","null","9","","NaN","","","","","","","","","","","","","",""
"","response","","html-keyboard-response","72","278138","0.0-1.0-86.0-0.0","0","0","47309","","1050","","","75","9","","","1","9","training","adjacent","AB","1","2","R.jpg","O.jpg","1","1","1","",""
"","feedback","","html-keyboard-response","73","279149","0.0-1.0-87.0-0.0","0","0","47309","","null","","","null","9","","","","","","","","","","","","","","","",""
"","ITI","","html-keyboard-response","74","280162","0.0-1.0-90.0","0","0","47309","","null","","","null","9","","","","","","","","","","","","","","","NaN",""
"","S1","","html-keyboard-response","75","280421","0.0-1.0-92.0","0","0","47309","","null","","","null","10","","","","","","","","","","","","","","","",""
"","ISI","","html-keyboard-response","76","282431","0.0-1.0-93.0","0","0","47309","","null","","","null","10","NaN","","","","","","","","","","","","","","",""
"","S2","","html-keyboard-response","77","282695","0.0-1.0-94.0","0","0","47309","","null","","","null","10","","NaN","","","","","","","","","","","","","",""
"","response","","html-keyboard-response","78","283821","0.0-1.0-95.0-0.0","0","0","47309","","1117","","","68","10","","","1","10","training","adjacent","FG","6","7","P.jpg","L.jpg","0","1","0","",""
"","feedback","","html-keyboard-response","79","284828","0.0-1.0-96.0-0.0","0","0","47309","","null","","","null","10","","","","","","","","","","","","","","","",""
"","time_out","","html-keyboard-response","80","286835","0.0-1.0-98.0-0.0","0","0","47309","","null","","","null","10","","","","","","","","","","","","","","","",""
"","ITI","","html-keyboard-response","81","287845","0.0-1.0-99.0","0","0","47309","","null","","","null","10","","","","","","","","","","","","","","","NaN",""
"","S1","","html-keyboard-response","82","288109","0.0-1.0-101.0","0","0","47309","","null","","","null","11","","","","","","","","","","","","","","","",""
"","ISI","","html-keyboard-response","83","290120","0.0-1.0-102.0","0","0","47309","","null","","","null","11","NaN","","","","","","","","","","","","","","",""
"","S2","","html-keyboard-response","84","290381","0.0-1.0-103.0","0","0","47309","","null","","","null","11","","NaN","","","","","","","","","","","","","",""
"","response","","html-keyboard-response","85","291243","0.0-1.0-104.0-0.0","0","0","47309","","853","","","75","11","","","1","11","training","adjacent","DC","4","3","M.jpg","Q.jpg","1","0","0","",""
"","feedback","","html-keyboard-response","86","292253","0.0-1.0-105.0-0.0","0","0","47309","","null","","","null","11","","","","","","","","","","","","","","","",""
"","time_out","","html-keyboard-response","87","294265","0.0-1.0-107.0-0.0","0","0","47309","","null","","","null","11","","","","","","","","","","","","","","","",""
"","ITI","","html-keyboard-response","88","295274","0.0-1.0-108.0","0","0","47309","","null","","","null","11","","","","","","","","","","","","","","","NaN",""
"","S1","","html-keyboard-response","89","295531","0.0-1.0-110.0","0","0","47309","","null","","","null","12","","","","","","","","","","","","","","","",""
"","ISI","","html-keyboard-response","90","297540","0.0-1.0-111.0","0","0","47309","","null","","","null","12","NaN","","","","","","","","","","","","","","",""
"","S2","","html-keyboard-response","91","297801","0.0-1.0-112.0","0","0","47309","","null","","","null","12","","NaN","","","","","","","","","","","","","",""
"","response","","html-keyboard-response","92","298758","0.0-1.0-113.0-0.0","0","0","47309","","950","","","68","12","","","1","12","training","adjacent","CB","3","2","Q.jpg","O.jpg","0","0","1","",""
"","feedback","","html-keyboard-response","93","299768","0.0-1.0-114.0-0.0","0","0","47309","","null","","","null","12","","","","","","","","","","","","","","","",""
"","ITI","","html-keyboard-response","94","300780","0.0-1.0-117.0","0","0","47309","","null","","","null","12","","","","","","","","","","","","","","","NaN",""
"","S1","","html-keyboard-response","95","301036","0.0-1.0-119.0","0","0","47309","","null","","","null","13","","","","","","","","","","","","","","","",""
"","ISI","","html-keyboard-response","96","303046","0.0-1.0-120.0","0","0","47309","","null","","","null","13","NaN","","","","","","","","","","","","","","",""
"","S2","","html-keyboard-response","97","303311","0.0-1.0-121.0","0","0","47309","","null","","","null","13","","NaN","","","","","","","","","","","","","",""
"","response","","html-keyboard-response","98","303954","0.0-1.0-122.0-0.0","0","0","47309","","630","","","75","13","","","1","13","training","adjacent","CD","3","4","Q.jpg","M.jpg","1","1","1","",""
"","feedback","","html-keyboard-response","99","304961","0.0-1.0-123.0-0.0","0","0","47309","","null","","","null","13","","","","","","","","","","","","","","","",""
"","ITI","","html-keyboard-response","100","305968","0.0-1.0-126.0","0","0","47309","","null","","","null","13","","","","","","","","","","","","","","","NaN",""
"","S1","","html-keyboard-response","101","306229","0.0-1.0-128.0","0","0","47309","","null","","","null","14","","","","","","","","","","","","","","","",""
"","ISI","","html-keyboard-response","102","308248","0.0-1.0-129.0","0","0","47309","","null","","","null","14","NaN","","","","","","","","","","","","","","",""
"","S2","","html-keyboard-response","103","308509","0.0-1.0-130.0","0","0","47309","","null","","","null","14","","NaN","","","","","","","","","","","","","",""
"","response","","html-keyboard-response","104","309531","0.0-1.0-131.0-0.0","0","0","47309","","1015","","","68","14","","","1","14","training","adjacent","GF","7","6","L.jpg","P.jpg","0","0","1","",""
"","feedback","","html-keyboard-response","105","310539","0.0-1.0-132.0-0.0","0","0","47309","","null","","","null","14","","","","","","","","","","","","","","","",""
"","ITI","","html-keyboard-response","106","311548","0.0-1.0-135.0","0","0","47309","","null","","","null","14","","","","","","","","","","","","","","","NaN",""
"","S1","","html-keyboard-response","107","311807","0.0-1.0-137.0","0","0","47309","","null","","","null","15","","","","","","","","","","","","","","","",""
"","ISI","","html-keyboard-response","108","313813","0.0-1.0-138.0","0","0","47309","","null","","","null","15","NaN","","","","","","","","","","","","","","",""
"","S2","","html-keyboard-response","109","314070","0.0-1.0-139.0","0","0","47309","","null","","","null","15","","NaN","","","","","","","","","","","","","",""
"","response","","html-keyboard-response","110","315588","0.0-1.0-140.0-0.0","0","0","47309","","1506","","","68","15","","","1","15","training","adjacent","BC","2","3","O.jpg","Q.jpg","0","1","0","",""
"","feedback","","html-keyboard-response","111","316598","0.0-1.0-141.0-0.0","0","0","47309","","null","","","null","15","","","","","","","","","","","","","","","",""
"","time_out","","html-keyboard-response","112","318605","0.0-1.0-143.0-0.0","0","0","47309","","null","","","null","15","","","","","","","","","","","","","","","",""
"","ITI","","html-keyboard-response","113","319614","0.0-1.0-144.0","0","0","47309","","null","","","null","15","","","","","","","","","","","","","","","NaN",""
"","S1","","html-keyboard-response","114","319878","0.0-1.0-146.0","0","0","47309","","null","","","null","16","","","","","","","","","","","","","","","",""
"","ISI","","html-keyboard-response","115","321889","0.0-1.0-147.0","0","0","47309","","null","","","null","16","NaN","","","","","","","","","","","","","","",""
"","S2","","html-keyboard-response","116","322150","0.0-1.0-148.0","0","0","47309","","null","","","null","16","","NaN","","","","","","","","","","","","","",""
"","response","","html-keyboard-response","117","323831","0.0-1.0-149.0-0.0","0","0","47309","","1674","","","75","16","","","1","16","training","adjacent","GF","7","6","L.jpg","P.jpg","1","0","0","",""
"","feedback","","html-keyboard-response","118","324842","0.0-1.0-150.0-0.0","0","0","47309","","null","","","null","16","","","","","","","","","","","","","","","",""
"","time_out","","html-keyboard-response","119","326855","0.0-1.0-152.0-0.0","0","0","47309","","null","","","null","16","","","","","","","","","","","","","","","",""
"","ITI","","html-keyboard-response","120","327868","0.0-1.0-153.0","0","0","47309","","null","","","null","16","","","","","","","","","","","","","","","NaN",""
"","S1","","html-keyboard-response","121","328127","0.0-1.0-155.0","0","0","47309","","null","","","null","17","","","","","","","","","","","","","","","",""
"","ISI","","html-keyboard-response","122","330137","0.0-1.0-156.0","0","0","47309","","null","","","null","17","NaN","","","","","","","","","","","","","","",""
"","S2","","html-keyboard-response","123","330394","0.0-1.0-157.0","0","0","47309","","null","","","null","17","","NaN","","","","","","","","","","","","","",""
"","response","","html-keyboard-response","124","330834","0.0-1.0-158.0-0.0","0","0","47309","","432","","","75","17","","","1","17","training","adjacent","BA","2","1","O.jpg","R.jpg","1","0","0","",""
"","feedback","","html-keyboard-response","125","331846","0.0-1.0-159.0-0.0","0","0","47309","","null","","","null","17","","","","","","","","","","","","","","","",""
"","time_out","","html-keyboard-response","126","333858","0.0-1.0-161.0-0.0","0","0","47309","","null","","","null","17","","","","","","","","","","","","","","","",""
"","ITI","","html-keyboard-response","127","334869","0.0-1.0-162.0","0","0","47309","","null","","","null","17","","","","","","","","","","","","","","","NaN",""
"","S1","","html-keyboard-response","128","335128","0.0-1.0-164.0","0","0","47309","","null","","","null","18","","","","","","","","","","","","","","","",""
"","ISI","","html-keyboard-response","129","337135","0.0-1.0-165.0","0","0","47309","","null","","","null","18","NaN","","","","","","","","","","","","","","",""
"","S2","","html-keyboard-response","130","337392","0.0-1.0-166.0","0","0","47309","","null","","","null","18","","NaN","","","","","","","","","","","","","",""
"","response","","html-keyboard-response","131","337930","0.0-1.0-167.0-0.0","0","0","47309","","530","","","75","18","","","1","18","training","adjacent","BC","2","3","O.jpg","Q.jpg","1","1","1","",""
"","feedback","","html-keyboard-response","132","338950","0.0-1.0-168.0-0.0","0","0","47309","","null","","","null","18","","","","","","","","","","","","","","","",""
"","ITI","","html-keyboard-response","133","339963","0.0-1.0-171.0","0","0","47309","","null","","","null","18","","","","","","","","","","","","","","","NaN",""
"","S1","","html-keyboard-response","134","340227","0.0-1.0-173.0","0","0","47309","","null","","","null","19","","","","","","","","","","","","","","","",""
"","ISI","","html-keyboard-response","135","342238","0.0-1.0-174.0","0","0","47309","","null","","","null","19","NaN","","","","","","","","","","","","","","",""
"","S2","","html-keyboard-response","136","342500","0.0-1.0-175.0","0","0","47309","","null","","","null","19","","NaN","","","","","","","","","","","","","",""
"","response","","html-keyboard-response","137","343655","0.0-1.0-176.0-0.0","0","0","47309","","1145","","","68","19","","","1","19","training","adjacent","DC","4","3","M.jpg","Q.jpg","0","0","1","",""
"","feedback","","html-keyboard-response","138","344666","0.0-1.0-177.0-0.0","0","0","47309","","null","","","null","19","","","","","","","","","","","","","","","",""
"","ITI","","html-keyboard-response","139","345682","0.0-1.0-180.0","0","0","47309","","null","","","null","19","","","","","","","","","","","","","","","NaN",""
"","S1","","html-keyboard-response","140","345941","0.0-1.0-182.0","0","0","47309","","null","","","null","20","","","","","","","","","","","","","","","",""
"","ISI","","html-keyboard-response","141","347953","0.0-1.0-183.0","0","0","47309","","null","","","null","20","NaN","","","","","","","","","","","","","","",""
"","S2","","html-keyboard-response","142","348214","0.0-1.0-184.0","0","0","47309","","null","","","null","20","","NaN","","","","","","","","","","","","","",""
"","response","","html-keyboard-response","143","349426","0.0-1.0-185.0-0.0","0","0","47309","","1205","","","68","20","","","1","20","training","adjacent","FG","6","7","P.jpg","L.jpg","0","1","0","",""
"","feedback","","html-keyboard-response","144","350437","0.0-1.0-186.0-0.0","0","0","47309","","null","","","null","20","","","","","","","","","","","","","","","",""
"","time_out","","html-keyboard-response","145","352450","0.0-1.0-188.0-0.0","0","0","47309","","null","","","null","20","","","","","","","","","","","","","","","",""
"","ITI","","html-keyboard-response","146","353463","0.0-1.0-189.0","0","0","47309","","null","","","null","20","","","","","","","","","","","","","","","NaN",""
"","S1","","html-keyboard-response","147","353722","0.0-1.0-191.0","0","0","47309","","null","","","null","21","","","","","","","","","","","","","","","",""
"","ISI","","html-keyboard-response","148","355729","0.0-1.0-192.0","0","0","47309","","null","","","null","21","NaN","","","","","","","","","","","","","","",""
"","S2","","html-keyboard-response","149","355986","0.0-1.0-193.0","0","0","47309","","null","","","null","21","","NaN","","","","","","","","","","","","","",""
"","response","","html-keyboard-response","150","356410","0.0-1.0-194.0-0.0","0","0","47309","","415","","","75","21","","","1","21","training","adjacent","BC","2","3","O.jpg","Q.jpg","1","1","1","",""
"","feedback","","html-keyboard-response","151","357417","0.0-1.0-195.0-0.0","0","0","47309","","null","","","null","21","","","","","","","","","","","","","","","",""
"","ITI","","html-keyboard-response","152","358425","0.0-1.0-198.0","0","0","47309","","null","","","null","21","","","","","","","","","","","","","","","NaN",""
"","S1","","html-keyboard-response","153","358681","0.0-1.0-200.0","0","0","47309","","null","","","null","22","","","","","","","","","","","","","","","",""
"","ISI","","html-keyboard-response","154","360691","0.0-1.0-201.0","0","0","47309","","null","","","null","22","NaN","","","","","","","","","","","","","","",""
"","S2","","html-keyboard-response","155","360951","0.0-1.0-202.0","0","0","47309","","null","","","null","22","","NaN","","","","","","","","","","","","","",""
"","response","","html-keyboard-response","156","362350","0.0-1.0-203.0-0.0","0","0","47309","","1391","","","75","22","","","1","22","training","adjacent","EF","5","6","N.jpg","P.jpg","1","1","1","",""
"","feedback","","html-keyboard-response","157","363361","0.0-1.0-204.0-0.0","0","0","47309","","null","","","null","22","","","","","","","","","","","","","","","",""
"","ITI","","html-keyboard-response","158","364374","0.0-1.0-207.0","0","0","47309","","null","","","null","22","","","","","","","","","","","","","","","NaN",""
"","S1","","html-keyboard-response","159","364634","0.0-1.0-209.0","0","0","47309","","null","","","null","23","","","","","","","","","","","","","","","",""
"","ISI","","html-keyboard-response","160","366644","0.0-1.0-210.0","0","0","47309","","null","","","null","23","NaN","","","","","","","","","","","","","","",""
"","S2","","html-keyboard-response","161","366905","0.0-1.0-211.0","0","0","47309","","null","","","null","23","","NaN","","","","","","","","","","","","","",""
"","response","","html-keyboard-response","162","368569","0.0-1.0-212.0-0.0","0","0","47309","","1656","","","68","23","","","1","23","training","adjacent","EF","5","6","N.jpg","P.jpg","0","1","0","",""
"","feedback","","html-keyboard-response","163","369580","0.0-1.0-213.0-0.0","0","0","47309","","null","","","null","23","","","","","","","","","","","","","","","",""
"","time_out","","html-keyboard-response","164","371592","0.0-1.0-215.0-0.0","0","0","47309","","null","","","null","23","","","","","","","","","","","","","","","",""
"","ITI","","html-keyboard-response","165","372601","0.0-1.0-216.0","0","0","47309","","null","","","null","23","","","","","","","","","","","","","","","NaN",""
"","S1","","html-keyboard-response","166","372857","0.0-1.0-218.0","0","0","47309","","null","","","null","24","","","","","","","","","","","","","","","",""
"","ISI","","html-keyboard-response","167","374867","0.0-1.0-219.0","0","0","47309","","null","","","null","24","NaN","","","","","","","","","","","","","","",""
"","S2","","html-keyboard-response","168","375133","0.0-1.0-220.0","0","0","47309","","null","","","null","24","","NaN","","","","","","","","","","","","","",""
"","response","","html-keyboard-response","169","375513","0.0-1.0-221.0-0.0","0","0","47309","","371","","","68","24","","","1","24","training","adjacent","ED","5","4","N.jpg","M.jpg","0","0","1","",""
"","feedback","","html-keyboard-response","170","376525","0.0-1.0-222.0-0.0","0","0","47309","","null","","","null","24","","","","","","","","","","","","","","","",""
"","ITI","","html-keyboard-response","171","377538","0.0-1.0-225.0","0","0","47309","","null","","","null","24","","","","","","","","","","","","","","","NaN",""
"","S1","","html-keyboard-response","172","377804","0.0-1.0-227.0","0","0","47309","","null","","","null","25","","","","","","","","","","","","","","","",""
"","ISI","","html-keyboard-response","173","379817","0.0-1.0-228.0","0","0","47309","","null","","","null","25","NaN","","","","","","","","","","","","","","",""
"","S2","","html-keyboard-response","174","380075","0.0-1.0-229.0","0","0","47309","","null","","","null","25","","NaN","","","","","","","","","","","","","",""
"","response","","html-keyboard-response","175","380536","0.0-1.0-230.0-0.0","0","0","47309","","451","","","75","25","","","1","25","training","adjacent","DC","4","3","M.jpg","Q.jpg","1","0","0","",""
"","feedback","","html-keyboard-response","176","381548","0.0-1.0-231.0-0.0","0","0","47309","","null","","","null","25","","","","","","","","","","","","","","","",""
"","time_out","","html-keyboard-response","177","383560","0.0-1.0-233.0-0.0","0","0","47309","","null","","","null","25","","","","","","","","","","","","","","","",""
"","ITI","","html-keyboard-response","178","384571","0.0-1.0-234.0","0","0","47309","","null","","","null","25","","","","","","","","","","","","","","","NaN",""
"","S1","","html-keyboard-response","179","384833","0.0-1.0-236.0","0","0","47309","","null","","","null","26","","","","","","","","","","","","","","","",""
"","ISI","","html-keyboard-response","180","386840","0.0-1.0-237.0","0","0","47309","","null","","","null","26","NaN","","","","","","","","","","","","","","",""
"","S2","","html-keyboard-response","181","387097","0.0-1.0-238.0","0","0","47309","","null","","","null","26","","NaN","","","","","","","","","","","","","",""
"","response","","html-keyboard-response","182","387524","0.0-1.0-239.0-0.0","0","0","47309","","419","","","75","26","","","1","26","training","adjacent","BA","2","1","O.jpg","R.jpg","1","0","0","",""
"","feedback","","html-keyboard-response","183","388537","0.0-1.0-240.0-0.0","0","0","47309","","null","","","null","26","","","","","","","","","","","","","","","",""
"","time_out","","html-keyboard-response","184","390548","0.0-1.0-242.0-0.0","0","0","47309","","null","","","null","26","","","","","","","","","","","","","","","",""
"","ITI","","html-keyboard-response","185","391558","0.0-1.0-243.0","0","0","47309","","null","","","null","26","","","","","","","","","","","","","","","NaN",""
"","S1","","html-keyboard-response","186","391818","0.0-1.0-245.0","0","0","47309","","null","","","null","27","","","","","","","","","","","","","","","",""
"","ISI","","html-keyboard-response","187","393825","0.0-1.0-246.0","0","0","47309","","null","","","null","27","NaN","","","","","","","","","","","","","","",""
"","S2","","html-keyboard-response","188","394087","0.0-1.0-247.0","0","0","47309","","null","","","null","27","","NaN","","","","","","","","","","","","","",""
"","response","","html-keyboard-response","189","394387","0.0-1.0-248.0-0.0","0","0","47309","","289","","","68","27","","","1","27","training","adjacent","FG","6","7","P.jpg","L.jpg","0","1","0","",""
"","feedback","","html-keyboard-response","190","395398","0.0-1.0-249.0-0.0","0","0","47309","","null","","","null","27","","","","","","","","","","","","","","","",""
"","time_out","","html-keyboard-response","191","397411","0.0-1.0-251.0-0.0","0","0","47309","","null","","","null","27","","","","","","","","","","","","","","","",""
"","ITI","","html-keyboard-response","192","398423","0.0-1.0-252.0","0","0","47309","","null","","","null","27","","","","","","","","","","","","","","","NaN",""
"","S1","","html-keyboard-response","193","398687","0.0-1.0-254.0","0","0","47309","","null","","","null","28","","","","","","","","","","","","","","","",""
"","ISI","","html-keyboard-response","194","400696","0.0-1.0-255.0","0","0","47309","","null","","","null","28","NaN","","","","","","","","","","","","","","",""
"","S2","","html-keyboard-response","195","400953","0.0-1.0-256.0","0","0","47309","","null","","","null","28","","NaN","","","","","","","","","","","","","",""
"","response","","html-keyboard-response","196","401347","0.0-1.0-257.0-0.0","0","0","47309","","386","","","75","28","","","1","28","training","adjacent","DE","4","5","M.jpg","N.jpg","1","1","1","",""
"","feedback","","html-keyboard-response","197","402357","0.0-1.0-258.0-0.0","0","0","47309","","null","","","null","28","","","","","","","","","","","","","","","",""
"","ITI","","html-keyboard-response","198","403371","0.0-1.0-261.0","0","0","47309","","null","","","null","28","","","","","","","","","","","","","","","NaN",""
"","S1","","html-keyboard-response","199","403631","0.0-1.0-263.0","0","0","47309","","null","","","null","29","","","","","","","","","","","","","","","",""
"","ISI","","html-keyboard-response","200","405645","0.0-1.0-264.0","0","0","47309","","null","","","null","29","NaN","","","","","","","","","","","","","","",""
"","S2","","html-keyboard-response","201","405907","0.0-1.0-265.0","0","0","47309","","null","","","null","29","","NaN","","","","","","","","","","","","","",""
"","response","","html-keyboard-response","202","406861","0.0-1.0-266.0-0.0","0","0","47309","","942","","","75","29","","","1","29","training","adjacent","CD","3","4","Q.jpg","M.jpg","1","1","1","",""
"","feedback","","html-keyboard-response","203","407872","0.0-1.0-267.0-0.0","0","0","47309","","null","","","null","29","","","","","","","","","","","","","","","",""
"","ITI","","html-keyboard-response","204","408886","0.0-1.0-270.0","0","0","47309","","null","","","null","29","","","","","","","","","","","","","","","NaN",""
"","S1","","html-keyboard-response","205","409147","0.0-1.0-272.0","0","0","47309","","null","","","null","30","","","","","","","","","","","","","","","",""
"","ISI","","html-keyboard-response","206","411157","0.0-1.0-273.0","0","0","47309","","null","","","null","30","NaN","","","","","","","","","","","","","","",""
"","S2","","html-keyboard-response","207","411423","0.0-1.0-274.0","0","0","47309","","null","","","null","30","","NaN","","","","","","","","","","","","","",""
"","response","","html-keyboard-response","208","412621","0.0-1.0-275.0-0.0","0","0","47309","","1189","","","68","30","","","1","30","training","adjacent","ED","5","4","N.jpg","M.jpg","0","0","1","",""
"","feedback","","html-keyboard-response","209","413634","0.0-1.0-276.0-0.0","0","0","47309","","null","","","null","30","","","","","","","","","","","","","","","",""
"","ITI","","html-keyboard-response","210","414647","0.0-1.0-279.0","0","0","47309","","null","","","null","30","","","","","","","","","","","","","","","NaN",""
"","S1","","html-keyboard-response","211","414910","0.0-1.0-281.0","0","0","47309","","null","","","null","31","","","","","","","","","","","","","","","",""
"","ISI","","html-keyboard-response","212","416921","0.0-1.0-282.0","0","0","47309","","null","","","null","31","NaN","","","","","","","","","","","","","","",""
"","S2","","html-keyboard-response","213","417181","0.0-1.0-283.0","0","0","47309","","null","","","null","31","","NaN","","","","","","","","","","","","","",""
"","response","","html-keyboard-response","214","418939","0.0-1.0-284.0-0.0","0","0","47309","","null","","","null","31","","","1","31","training","adjacent","GF","7","6","L.jpg","P.jpg","NaN","0","0","",""
"","too_slow_prompt","","html-keyboard-response","215","419949","0.0-1.0-286.0-0.0","1","0","47309","","null","","","null","","","","","","","","","","","","","","","","",""
"","time_out","","html-keyboard-response","216","421957","0.0-1.0-287.0-0.0","0","0","47309","","null","","","null","31","","","","","","","","","","","","","","","",""
"","ITI","","html-keyboard-response","217","422967","0.0-1.0-288.0","0","0","47309","","null","","","null","31","","","","","","","","","","","","","","","NaN",""
"","S1","","html-keyboard-response","218","423227","0.0-1.0-290.0","0","0","47309","","null","","","null","32","","","","","","","","","","","","","","","",""
"","ISI","","html-keyboard-response","219","425236","0.0-1.0-291.0","0","0","47309","","null","","","null","32","NaN","","","","","","","","","","","","","","",""
"","S2","","html-keyboard-response","220","425501","0.0-1.0-292.0","0","0","47309","","null","","","null","32","","NaN","","","","","","","","","","","","","",""
"","response","","html-keyboard-response","221","425836","0.0-1.0-293.0-0.0","0","0","47309","","322","","","68","32","","","1","32","training","adjacent","ED","5","4","N.jpg","M.jpg","0","0","1","",""
"","feedback","","html-keyboard-response","222","426847","0.0-1.0-294.0-0.0","0","0","47309","","null","","","null","32","","","","","","","","","","","","","","","",""
"","ITI","","html-keyboard-response","223","427857","0.0-1.0-297.0","0","0","47309","","null","","","null","32","","","","","","","","","","","","","","","NaN",""
"","S1","","html-keyboard-response","224","428119","0.0-1.0-299.0","0","0","47309","","null","","","null","33","","","","","","","","","","","","","","","",""
"","ISI","","html-keyboard-response","225","430129","0.0-1.0-300.0","0","0","47309","","null","","","null","33","NaN","","","","","","","","","","","","","","",""
"","S2","","html-keyboard-response","226","430391","0.0-1.0-301.0","0","0","47309","","null","","","null","33","","NaN","","","","","","","","","","","","","",""
"","response","","html-keyboard-response","227","430794","0.0-1.0-302.0-0.0","0","0","47309","","394","","","75","33","","","1","33","training","adjacent","CB","3","2","Q.jpg","O.jpg","1","0","0","",""
"","feedback","","html-keyboard-response","228","431807","0.0-1.0-303.0-0.0","0","0","47309","","null","","","null","33","","","","","","","","","","","","","","","",""
"","time_out","","html-keyboard-response","229","433820","0.0-1.0-305.0-0.0","0","0","47309","","null","","","null","33","","","","","","","","","","","","","","","",""
"","ITI","","html-keyboard-response","230","434830","0.0-1.0-306.0","0","0","47309","","null","","","null","33","","","","","","","","","","","","","","","NaN",""
"","S1","","html-keyboard-response","231","435086","0.0-1.0-308.0","0","0","47309","","null","","","null","34","","","","","","","","","","","","","","","",""
"","ISI","","html-keyboard-response","232","437093","0.0-1.0-309.0","0","0","47309","","null","","","null","34","NaN","","","","","","","","","","","","","","",""
"","S2","","html-keyboard-response","233","437351","0.0-1.0-310.0","0","0","47309","","null","","","null","34","","NaN","","","","","","","","","","","","","",""
"","response","","html-keyboard-response","234","437799","0.0-1.0-311.0-0.0","0","0","47309","","440","","","68","34","","","1","34","training","adjacent","AB","1","2","R.jpg","O.jpg","0","1","0","",""
"","feedback","","html-keyboard-response","235","438807","0.0-1.0-312.0-0.0","0","0","47309","","null","","","null","34","","","","","","","","","","","","","","","",""
"","time_out","","html-keyboard-response","236","440817","0.0-1.0-314.0-0.0","0","0","47309","","null","","","null","34","","","","","","","","","","","","","","","",""
"","ITI","","html-keyboard-response","237","441830","0.0-1.0-315.0","0","0","47309","","null","","","null","34","","","","","","","","","","","","","","","NaN",""
"","S1","","html-keyboard-response","238","442090","0.0-1.0-317.0","0","0","47309","","null","","","null","35","","","","","","","","","","","","","","","",""
"","ISI","","html-keyboard-response","239","444096","0.0-1.0-318.0","0","0","47309","","null","","","null","35","NaN","","","","","","","","","","","","","","",""
"","S2","","html-keyboard-response","240","444352","0.0-1.0-319.0","0","0","47309","","null","","","null","35","","NaN","","","","","","","","","","","","","",""
"","response","","html-keyboard-response","241","445907","0.0-1.0-320.0-0.0","0","0","47309","","1546","","","68","35","","","1","35","training","adjacent","FE","6","5","P.jpg","N.jpg","0","0","1","",""
"","feedback","","html-keyboard-response","242","446922","0.0-1.0-321.0-0.0","0","0","47309","","null","","","null","35","","","","","","","","","","","","","","","",""
"","ITI","","html-keyboard-response","243","447936","0.0-1.0-324.0","0","0","47309","","null","","","null","35","","","","","","","","","","","","","","","NaN",""
"","S1","","html-keyboard-response","244","448204","0.0-1.0-326.0","0","0","47309","","null","","","null","36","","","","","","","","","","","","","","","",""
"","ISI","","html-keyboard-response","245","450214","0.0-1.0-327.0","0","0","47309","","null","","","null","36","NaN","","","","","","","","","","","","","","",""
"","S2","","html-keyboard-response","246","450476","0.0-1.0-328.0","0","0","47309","","null","","","null","36","","NaN","","","","","","","","","","","","","",""
"","response","","html-keyboard-response","247","451596","0.0-1.0-329.0-0.0","0","0","47309","","1113","","","75","36","","","1","36","training","adjacent","CB","3","2","Q.jpg","O.jpg","1","0","0","",""
"","feedback","","html-keyboard-response","248","452608","0.0-1.0-330.0-0.0","0","0","47309","","null","","","null","36","","","","","","","","","","","","","","","",""
"","time_out","","html-keyboard-response","249","454617","0.0-1.0-332.0-0.0","0","0","47309","","null","","","null","36","","","","","","","","","","","","","","","",""
"","ITI","","html-keyboard-response","250","455628","0.0-1.0-333.0","0","0","47309","","null","","","null","36","","","","","","","","","","","","","","","NaN",""
"","S1","","html-keyboard-response","251","455888","0.0-1.0-335.0","0","0","47309","","null","","","null","37","","","","","","","","","","","","","","","",""
"","ISI","","html-keyboard-response","252","457894","0.0-1.0-336.0","0","0","47309","","null","","","null","37","NaN","","","","","","","","","","","","","","",""
"","S2","","html-keyboard-response","253","458155","0.0-1.0-337.0","0","0","47309","","null","","","null","37","","NaN","","","","","","","","","","","","","",""
"","response","","html-keyboard-response","254","458685","0.0-1.0-338.0-0.0","0","0","47309","","517","","","68","37","","","1","37","training","adjacent","ED","5","4","N.jpg","M.jpg","0","0","1","",""
"","feedback","","html-keyboard-response","255","459696","0.0-1.0-339.0-0.0","0","0","47309","","null","","","null","37","","","","","","","","","","","","","","","",""
"","ITI","","html-keyboard-response","256","460710","0.0-1.0-342.0","0","0","47309","","null","","","null","37","","","","","","","","","","","","","","","NaN",""
"","S1","","html-keyboard-response","257","460969","0.0-1.0-344.0","0","0","47309","","null","","","null","38","","","","","","","","","","","","","","","",""
"","ISI","","html-keyboard-response","258","462976","0.0-1.0-345.0","0","0","47309","","null","","","null","38","NaN","","","","","","","","","","","","","","",""
"","S2","","html-keyboard-response","259","463234","0.0-1.0-346.0","0","0","47309","","null","","","null","38","","NaN","","","","","","","","","","","","","",""
"","response","","html-keyboard-response","260","464711","0.0-1.0-347.0-0.0","0","0","47309","","1470","","","68","38","","","1","38","training","adjacent","AB","1","2","R.jpg","O.jpg","0","1","0","",""
"","feedback","","html-keyboard-response","261","465723","0.0-1.0-348.0-0.0","0","0","47309","","null","","","null","38","","","","","","","","","","","","","","","",""
"","time_out","","html-keyboard-response","262","467735","0.0-1.0-350.0-0.0","0","0","47309","","null","","","null","38","","","","","","","","","","","","","","","",""
"","ITI","","html-keyboard-response","263","468746","0.0-1.0-351.0","0","0","47309","","null","","","null","38","","","","","","","","","","","","","","","NaN",""
"","S1","","html-keyboard-response","264","469013","0.0-1.0-353.0","0","0","47309","","null","","","null","39","","","","","","","","","","","","","","","",""
"","ISI","","html-keyboard-response","265","471025","0.0-1.0-354.0","0","0","47309","","null","","","null","39","NaN","","","","","","","","","","","","","","",""
"","S2","","html-keyboard-response","266","471287","0.0-1.0-355.0","0","0","47309","","null","","","null","39","","NaN","","","","","","","","","","","","","",""
"","response","","html-keyboard-response","267","472318","0.0-1.0-356.0-0.0","0","0","47309","","1022","","","75","39","","","1","39","training","adjacent","DC","4","3","M.jpg","Q.jpg","1","0","0","",""
"","feedback","","html-keyboard-response","268","473330","0.0-1.0-357.0-0.0","0","0","47309","","null","","","null","39","","","","","","","","","","","","","","","",""
"","time_out","","html-keyboard-response","269","475345","0.0-1.0-359.0-0.0","0","0","47309","","null","","","null","39","","","","","","","","","","","","","","","",""
"","ITI","","html-keyboard-response","270","476354","0.0-1.0-360.0","0","0","47309","","null","","","null","39","","","","","","","","","","","","","","","NaN",""
"","S1","","html-keyboard-response","271","476612","0.0-1.0-362.0","0","0","47309","","null","","","null","40","","","","","","","","","","","","","","","",""
"","ISI","","html-keyboard-response","272","478617","0.0-1.0-363.0","0","0","47309","","null","","","null","40","NaN","","","","","","","","","","","","","","",""
"","S2","","html-keyboard-response","273","478874","0.0-1.0-364.0","0","0","47309","","null","","","null","40","","NaN","","","","","","","","","","","","","",""
"","response","","html-keyboard-response","274","479800","0.0-1.0-365.0-0.0","0","0","47309","","919","","","68","40","","","1","40","training","adjacent","FE","6","5","P.jpg","N.jpg","0","0","1","",""
"","feedback","","html-keyboard-response","275","480812","0.0-1.0-366.0-0.0","0","0","47309","","null","","","null","40","","","","","","","","","","","","","","","",""
"","ITI","","html-keyboard-response","276","481828","0.0-1.0-369.0","0","0","47309","","null","","","null","40","","","","","","","","","","","","","","","NaN",""
"","S1","","html-keyboard-response","277","482092","0.0-1.0-371.0","0","0","47309","","null","","","null","41","","","","","","","","","","","","","","","",""
"","ISI","","html-keyboard-response","278","484104","0.0-1.0-372.0","0","0","47309","","null","","","null","41","NaN","","","","","","","","","","","","","","",""
"","S2","","html-keyboard-response","279","484369","0.0-1.0-373.0","0","0","47309","","null","","","null","41","","NaN","","","","","","","","","","","","","",""
"","response","","html-keyboard-response","280","485497","0.0-1.0-374.0-0.0","0","0","47309","","1119","","","75","41","","","1","41","training","adjacent","DE","4","5","M.jpg","N.jpg","1","1","1","",""
"","feedback","","html-keyboard-response","281","486510","0.0-1.0-375.0-0.0","0","0","47309","","null","","","null","41","","","","","","","","","","","","","","","",""
"","ITI","","html-keyboard-response","282","487521","0.0-1.0-378.0","0","0","47309","","null","","","null","41","","","","","","","","","","","","","","","NaN",""
"","S1","","html-keyboard-response","283","487779","0.0-1.0-380.0","0","0","47309","","null","","","null","42","","","","","","","","","","","","","","","",""
"","ISI","","html-keyboard-response","284","489784","0.0-1.0-381.0","0","0","47309","","null","","","null","42","NaN","","","","","","","","","","","","","","",""
"","S2","","html-keyboard-response","285","490042","0.0-1.0-382.0","0","0","47309","","null","","","null","42","","NaN","","","","","","","","","","","","","",""
"","response","","html-keyboard-response","286","490611","0.0-1.0-383.0-0.0","0","0","47309","","562","","","75","42","","","1","42","training","adjacent","BA","2","1","O.jpg","R.jpg","1","0","0","",""
"","feedback","","html-keyboard-response","287","491623","0.0-1.0-384.0-0.0","0","0","47309","","null","","","null","42","","","","","","","","","","","","","","","",""
"","time_out","","html-keyboard-response","288","493636","0.0-1.0-386.0-0.0","0","0","47309","","null","","","null","42","","","","","","","","","","","","","","","",""
"","ITI","","html-keyboard-response","289","494651","0.0-1.0-387.0","0","0","47309","","null","","","null","42","","","","","","","","","","","","","","","NaN",""
"","S1","","html-keyboard-response","290","494911","0.0-1.0-389.0","0","0","47309","","null","","","null","43","","","","","","","","","","","","","","","",""
"","ISI","","html-keyboard-response","291","496918","0.0-1.0-390.0","0","0","47309","","null","","","null","43","NaN","","","","","","","","","","","","","","",""
"","S2","","html-keyboard-response","292","497179","0.0-1.0-391.0","0","0","47309","","null","","","null","43","","NaN","","","","","","","","","","","","","",""
"","response","","html-keyboard-response","293","498171","0.0-1.0-392.0-0.0","0","0","47309","","980","","","68","43","","","1","43","training","adjacent","CD","3","4","Q.jpg","M.jpg","0","1","0","",""
"","feedback","","html-keyboard-response","294","499182","0.0-1.0-393.0-0.0","0","0","47309","","null","","","null","43","","","","","","","","","","","","","","","",""
"","time_out","","html-keyboard-response","295","501196","0.0-1.0-395.0-0.0","0","0","47309","","null","","","null","43","","","","","","","","","","","","","","","",""
"","ITI","","html-keyboard-response","296","502210","0.0-1.0-396.0","0","0","47309","","null","","","null","43","","","","","","","","","","","","","","","NaN",""
"","S1","","html-keyboard-response","297","502472","0.0-1.0-398.0","0","0","47309","","null","","","null","44","","","","","","","","","","","","","","","",""
"","ISI","","html-keyboard-response","298","504483","0.0-1.0-399.0","0","0","47309","","null","","","null","44","NaN","","","","","","","","","","","","","","",""
"","S2","","html-keyboard-response","299","504746","0.0-1.0-400.0","0","0","47309","","null","","","null","44","","NaN","","","","","","","","","","","","","",""
"","response","","html-keyboard-response","300","504827","0.0-1.0-401.0-0.0","0","0","47309","","74","","","68","44","","","1","44","training","adjacent","BC","2","3","O.jpg","Q.jpg","0","1","0","",""
"","feedback","","html-keyboard-response","301","505838","0.0-1.0-402.0-0.0","0","0","47309","","null","","","null","44","","","","","","","","","","","","","","","",""
"","time_out","","html-keyboard-response","302","507852","0.0-1.0-404.0-0.0","0","0","47309","","null","","","null","44","","","","","","","","","","","","","","","",""
"","ITI","","html-keyboard-response","303","508864","0.0-1.0-405.0","0","0","47309","","null","","","null","44","","","","","","","","","","","","","","","NaN",""
"","S1","","html-keyboard-response","304","509124","0.0-1.0-407.0","0","0","47309","","null","","","null","45","","","","","","","","","","","","","","","",""
"","ISI","","html-keyboard-response","305","511134","0.0-1.0-408.0","0","0","47309","","null","","","null","45","NaN","","","","","","","","","","","","","","",""
"","S2","","html-keyboard-response","306","511395","0.0-1.0-409.0","0","0","47309","","null","","","null","45","","NaN","","","","","","","","","","","","","",""
"","response","","html-keyboard-response","307","512615","0.0-1.0-410.0-0.0","0","0","47309","","1208","","","75","45","","","1","45","training","adjacent","FE","6","5","P.jpg","N.jpg","1","0","0","",""
"","feedback","","html-keyboard-response","308","513628","0.0-1.0-411.0-0.0","0","0","47309","","null","","","null","45","","","","","","","","","","","","","","","",""
"","time_out","","html-keyboard-response","309","515651","0.0-1.0-413.0-0.0","0","0","47309","","null","","","null","45","","","","","","","","","","","","","","","",""
"","ITI","","html-keyboard-response","310","516662","0.0-1.0-414.0","0","0","47309","","null","","","null","45","","","","","","","","","","","","","","","NaN",""
"","S1","","html-keyboard-response","311","516927","0.0-1.0-416.0","0","0","47309","","null","","","null","46","","","","","","","","","","","","","","","",""
"","ISI","","html-keyboard-response","312","518939","0.0-1.0-417.0","0","0","47309","","null","","","null","46","NaN","","","","","","","","","","","","","","",""
"","S2","","html-keyboard-response","313","519205","0.0-1.0-418.0","0","0","47309","","null","","","null","46","","NaN","","","","","","","","","","","","","",""
"","response","","html-keyboard-response","314","520215","0.0-1.0-419.0-0.0","0","0","47309","","1000","","","68","46","","","1","46","training","adjacent","CB","3","2","Q.jpg","O.jpg","0","0","1","",""
"","feedback","","html-keyboard-response","315","521226","0.0-1.0-420.0-0.0","0","0","47309","","null","","","null","46","","","","","","","","","","","","","","","",""
"","ITI","","html-keyboard-response","316","522243","0.0-1.0-423.0","0","0","47309","","null","","","null","46","","","","","","","","","","","","","","","NaN",""
"","S1","","html-keyboard-response","317","522507","0.0-1.0-425.0","0","0","47309","","null","","","null","47","","","","","","","","","","","","","","","",""
"","ISI","","html-keyboard-response","318","524520","0.0-1.0-426.0","0","0","47309","","null","","","null","47","NaN","","","","","","","","","","","","","","",""
"","S2","","html-keyboard-response","319","524781","0.0-1.0-427.0","0","0","47309","","null","","","null","47","","NaN","","","","","","","","","","","","","",""
"","response","","html-keyboard-response","320","526334","0.0-1.0-428.0-0.0","0","0","47309","","1545","","","75","47","","","1","47","training","adjacent","EF","5","6","N.jpg","P.jpg","1","1","1","",""
"","feedback","","html-keyboard-response","321","527344","0.0-1.0-429.0-0.0","0","0","47309","","null","","","null","47","","","","","","","","","","","","","","","",""
"","ITI","","html-keyboard-response","322","528359","0.0-1.0-432.0","0","0","47309","","null","","","null","47","","","","","","","","","","","","","","","NaN",""
"","block_over","","html-keyboard-response","323","537099","0.0-1.0-433.0-0.0","0","0","47309","","8702","","","32","47","","","","","","","","","","","","","","","",""
"","S1","","html-keyboard-response","324","537356","0.0-1.0-434.0","0","0","47309","","null","","","null","48","","","","","","","","","","","","","","","",""
"","ISI","","html-keyboard-response","325","539365","0.0-1.0-435.0","0","0","47309","","null","","","null","48","NaN","","","","","","","","","","","","","","",""
"","S2","","html-keyboard-response","326","539625","0.0-1.0-436.0","0","0","47309","","null","","","null","48","","NaN","","","","","","","","","","","","","",""
"","response","","html-keyboard-response","327","541383","0.0-1.0-437.0-0.0","0","0","47309","","null","","","null","48","","","2","48","training","adjacent","EF","5","6","N.jpg","P.jpg","NaN","1","0","",""
"","too_slow_prompt","","html-keyboard-response","328","542392","0.0-1.0-439.0-0.0","1","0","47309","","null","","","null","","","","","","","","","","","","","","","","",""
"","time_out","","html-keyboard-response","329","544399","0.0-1.0-440.0-0.0","0","0","47309","","null","","","null","48","","","","","","","","","","","","","","","",""
"","ITI","","html-keyboard-response","330","545405","0.0-1.0-441.0","0","0","47309","","null","","","null","48","","","","","","","","","","","","","","","NaN",""
"","S1","","html-keyboard-response","331","545663","0.0-1.0-443.0","0","0","47309","","null","","","null","49","","","","","","","","","","","","","","","",""
"","ISI","","html-keyboard-response","332","547674","0.0-1.0-444.0","0","0","47309","","1095","","","75","49","k","","","","","","","","","","","","","","",""
"","S2","","html-keyboard-response","333","547937","0.0-1.0-445.0","0","0","47309","","null","","","null","49","","NaN","","","","","","","","","","","","","",""
"","response","","html-keyboard-response","334","548420","0.0-1.0-446.0-0.0","0","0","47309","","474","","","75","49","","","2","49","training","adjacent","BA","2","1","O.jpg","R.jpg","1","0","0","",""
"","feedback","","html-keyboard-response","335","549431","0.0-1.0-447.0-0.0","0","0","47309","","null","","","null","49","","","","","","","","","","","","","","","",""
"","time_out","","html-keyboard-response","336","551442","0.0-1.0-449.0-0.0","0","0","47309","","null","","","null","49","","","","","","","","","","","","","","","",""
"","ITI","","html-keyboard-response","337","552455","0.0-1.0-450.0","0","0","47309","","null","","","null","49","","","","","","","","","","","","","","","NaN",""
"","S1","","html-keyboard-response","338","552719","0.0-1.0-452.0","0","0","47309","","null","","","null","50","","","","","","","","","","","","","","","",""
"","ISI","","html-keyboard-response","339","554731","0.0-1.0-453.0","0","0","47309","","null","","","null","50","NaN","","","","","","","","","","","","","","",""
"","S2","","html-keyboard-response","340","554990","0.0-1.0-454.0","0","0","47309","","null","","","null","50","","NaN","","","","","","","","","","","","","",""
"","response","","html-keyboard-response","341","555888","0.0-1.0-455.0-0.0","0","0","47309","","886","","","68","50","","","2","50","training","adjacent","DE","4","5","M.jpg","N.jpg","0","1","0","",""
"","feedback","","html-keyboard-response","342","556904","0.0-1.0-456.0-0.0","0","0","47309","","null","","","null","50","","","","","","","","","","","","","","","",""
"","time_out","","html-keyboard-response","343","558918","0.0-1.0-458.0-0.0","0","0","47309","","null","","","null","50","","","","","","","","","","","","","","","",""
"","ITI","","html-keyboard-response","344","559931","0.0-1.0-459.0","0","0","47309","","null","","","null","50","","","","","","","","","","","","","","","NaN",""
"","S1","","html-keyboard-response","345","560191","0.0-1.0-461.0","0","0","47309","","null","","","null","51","","","","","","","","","","","","","","","",""
"","ISI","","html-keyboard-response","346","562197","0.0-1.0-462.0","0","0","47309","","null","","","null","51","NaN","","","","","","","","","","","","","","",""
"","S2","","html-keyboard-response","347","562456","0.0-1.0-463.0","0","0","47309","","null","","","null","51","","NaN","","","","","","","","","","","","","",""
"","response","","html-keyboard-response","348","562847","0.0-1.0-464.0-0.0","0","0","47309","","379","","","68","51","","","2","51","training","adjacent","EF","5","6","N.jpg","P.jpg","0","1","0","",""
"","feedback","","html-keyboard-response","349","563858","0.0-1.0-465.0-0.0","0","0","47309","","null","","","null","51","","","","","","","","","","","","","","","",""
"","time_out","","html-keyboard-response","350","565877","0.0-1.0-467.0-0.0","0","0","47309","","null","","","null","51","","","","","","","","","","","","","","","",""
"","ITI","","html-keyboard-response","351","566890","0.0-1.0-468.0","0","0","47309","","null","","","null","51","","","","","","","","","","","","","","","NaN",""
"","S1","","html-keyboard-response","352","567149","0.0-1.0-470.0","0","0","47309","","null","","","null","52","","","","","","","","","","","","","","","",""
"","ISI","","html-keyboard-response","353","569157","0.0-1.0-471.0","0","0","47309","","null","","","null","52","NaN","","","","","","","","","","","","","","",""
"","S2","","html-keyboard-response","354","569417","0.0-1.0-472.0","0","0","47309","","null","","","null","52","","NaN","","","","","","","","","","","","","",""
"","response","","html-keyboard-response","355","569864","0.0-1.0-473.0-0.0","0","0","47309","","439","","","75","52","","","2","52","training","adjacent","FE","6","5","P.jpg","N.jpg","1","0","0","",""
"","feedback","","html-keyboard-response","356","570875","0.0-1.0-474.0-0.0","0","0","47309","","null","","","null","52","","","","","","","","","","","","","","","",""
"","time_out","","html-keyboard-response","357","572889","0.0-1.0-476.0-0.0","0","0","47309","","null","","","null","52","","","","","","","","","","","","","","","",""
"","ITI","","html-keyboard-response","358","573899","0.0-1.0-477.0","0","0","47309","","null","","","null","52","","","","","","","","","","","","","","","NaN",""
"","S1","","html-keyboard-response","359","574163","0.0-1.0-479.0","0","0","47309","","null","","","null","53","","","","","","","","","","","","","","","",""
"","ISI","","html-keyboard-response","360","576174","0.0-1.0-480.0","0","0","47309","","null","","","null","53","NaN","","","","","","","","","","","","","","",""
"","S2","","html-keyboard-response","361","576435","0.0-1.0-481.0","0","0","47309","","null","","","null","53","","NaN","","","","","","","","","","","","","",""
"","response","","html-keyboard-response","362","577528","0.0-1.0-482.0-0.0","0","0","47309","","1086","","","68","53","","","2","53","training","adjacent","DE","4","5","M.jpg","N.jpg","0","1","0","",""
"","feedback","","html-keyboard-response","363","578541","0.0-1.0-483.0-0.0","0","0","47309","","null","","","null","53","","","","","","","","","","","","","","","",""
"","time_out","","html-keyboard-response","364","580549","0.0-1.0-485.0-0.0","0","0","47309","","null","","","null","53","","","","","","","","","","","","","","","",""
"","ITI","","html-keyboard-response","365","581560","0.0-1.0-486.0","0","0","47309","","null","","","null","53","","","","","","","","","","","","","","","NaN",""
"","S1","","html-keyboard-response","366","581824","0.0-1.0-488.0","0","0","47309","","null","","","null","54","","","","","","","","","","","","","","","",""
"","ISI","","html-keyboard-response","367","583834","0.0-1.0-489.0","0","0","47309","","null","","","null","54","NaN","","","","","","","","","","","","","","",""
"","S2","","html-keyboard-response","368","584096","0.0-1.0-490.0","0","0","47309","","null","","","null","54","","NaN","","","","","","","","","","","","","",""
"","response","","html-keyboard-response","369","584485","0.0-1.0-491.0-0.0","0","0","47309","","380","","","68","54","","","2","54","training","adjacent","GF","7","6","L.jpg","P.jpg","0","0","1","",""
"","feedback","","html-keyboard-response","370","585497","0.0-1.0-492.0-0.0","0","0","47309","","null","","","null","54","","","","","","","","","","","","","","","",""
"","ITI","","html-keyboard-response","371","586510","0.0-1.0-495.0","0","0","47309","","null","","","null","54","","","","","","","","","","","","","","","NaN",""
"","S1","","html-keyboard-response","372","586772","0.0-1.0-497.0","0","0","47309","","null","","","null","55","","","","","","","","","","","","","","","",""
"","ISI","","html-keyboard-response","373","588785","0.0-1.0-498.0","0","0","47309","","null","","","null","55","NaN","","","","","","","","","","","","","","",""
"","S2","","html-keyboard-response","374","589044","0.0-1.0-499.0","0","0","47309","","null","","","null","55","","NaN","","","","","","","","","","","","","",""
"","response","","html-keyboard-response","375","590665","0.0-1.0-500.0-0.0","0","0","47309","","1610","","","75","55","","","2","55","training","adjacent","GF","7","6","L.jpg","P.jpg","1","0","0","",""
"","feedback","","html-keyboard-response","376","591677","0.0-1.0-501.0-0.0","0","0","47309","","null","","","null","55","","","","","","","","","","","","","","","",""
"","time_out","","html-keyboard-response","377","593694","0.0-1.0-503.0-0.0","0","0","47309","","null","","","null","55","","","","","","","","","","","","","","","",""
"","ITI","","html-keyboard-response","378","594706","0.0-1.0-504.0","0","0","47309","","null","","","null","55","","","","","","","","","","","","","","","NaN",""
"","S1","","html-keyboard-response","379","594966","0.0-1.0-506.0","0","0","47309","","null","","","null","56","","","","","","","","","","","","","","","",""
"","ISI","","html-keyboard-response","380","596975","0.0-1.0-507.0","0","0","47309","","null","","","null","56","NaN","","","","","","","","","","","","","","",""
"","S2","","html-keyboard-response","381","597238","0.0-1.0-508.0","0","0","47309","","null","","","null","56","","NaN","","","","","","","","","","","","","",""
"","response","","html-keyboard-response","382","597679","0.0-1.0-509.0-0.0","0","0","47309","","433","","","75","56","","","2","56","training","adjacent","BC","2","3","O.jpg","Q.jpg","1","1","1","",""
"","feedback","","html-keyboard-response","383","598692","0.0-1.0-510.0-0.0","0","0","47309","","null","","","null","56","","","","","","","","","","","","","","","",""
"","ITI","","html-keyboard-response","384","599707","0.0-1.0-513.0","0","0","47309","","null","","","null","56","","","","","","","","","","","","","","","NaN",""
"","S1","","html-keyboard-response","385","599970","0.0-1.0-515.0","0","0","47309","","null","","","null","57","","","","","","","","","","","","","","","",""
"","ISI","","html-keyboard-response","386","601980","0.0-1.0-516.0","0","0","47309","","null","","","null","57","NaN","","","","","","","","","","","","","","",""
"","S2","","html-keyboard-response","387","602240","0.0-1.0-517.0","0","0","47309","","null","","","null","57","","NaN","","","","","","","","","","","","","",""
"","response","","html-keyboard-response","388","603892","0.0-1.0-518.0-0.0","0","0","47309","","1641","","","75","57","","","2","57","training","adjacent","FE","6","5","P.jpg","N.jpg","1","0","0","",""
"","feedback","","html-keyboard-response","389","604905","0.0-1.0-519.0-0.0","0","0","47309","","null","","","null","57","","","","","","","","","","","","","","","",""
"","time_out","","html-keyboard-response","390","606920","0.0-1.0-521.0-0.0","0","0","47309","","null","","","null","57","","","","","","","","","","","","","","","",""
"","ITI","","html-keyboard-response","391","607933","0.0-1.0-522.0","0","0","47309","","null","","","null","57","","","","","","","","","","","","","","","NaN",""
"","S1","","html-keyboard-response","392","608196","0.0-1.0-524.0","0","0","47309","","null","","","null","58","","","","","","","","","","","","","","","",""
"","ISI","","html-keyboard-response","393","610206","0.0-1.0-525.0","0","0","47309","","null","","","null","58","NaN","","","","","","","","","","","","","","",""
"","S2","","html-keyboard-response","394","610466","0.0-1.0-526.0","0","0","47309","","null","","","null","58","","NaN","","","","","","","","","","","","","",""
"","response","","html-keyboard-response","395","610865","0.0-1.0-527.0-0.0","0","0","47309","","389","","","75","58","","","2","58","training","adjacent","BC","2","3","O.jpg","Q.jpg","1","1","1","",""
"","feedback","","html-keyboard-response","396","611877","0.0-1.0-528.0-0.0","0","0","47309","","null","","","null","58","","","","","","","","","","","","","","","",""
"","ITI","","html-keyboard-response","397","612891","0.0-1.0-531.0","0","0","47309","","null","","","null","58","","","","","","","","","","","","","","","NaN",""
"","S1","","html-keyboard-response","398","613153","0.0-1.0-533.0","0","0","47309","","null","","","null","59","","","","","","","","","","","","","","","",""
"","ISI","","html-keyboard-response","399","615162","0.0-1.0-534.0","0","0","47309","","null","","","null","59","NaN","","","","","","","","","","","","","","",""
"","S2","","html-keyboard-response","400","615428","0.0-1.0-535.0","0","0","47309","","null","","","null","59","","NaN","","","","","","","","","","","","","",""
"","response","","html-keyboard-response","401","615710","0.0-1.0-536.0-0.0","0","0","47309","","271","","","75","59","","","2","59","training","adjacent","ED","5","4","N.jpg","M.jpg","1","0","0","",""
"","feedback","","html-keyboard-response","402","616721","0.0-1.0-537.0-0.0","0","0","47309","","null","","","null","59","","","","","","","","","","","","","","","",""
"","time_out","","html-keyboard-response","403","618735","0.0-1.0-539.0-0.0","0","0","47309","","null","","","null","59","","","","","","","","","","","","","","","",""
"","ITI","","html-keyboard-response","404","619747","0.0-1.0-540.0","0","0","47309","","null","","","null","59","","","","","","","","","","","","","","","NaN",""
"","S1","","html-keyboard-response","405","620010","0.0-1.0-542.0","0","0","47309","","null","","","null","60","","","","","","","","","","","","","","","",""
"","ISI","","html-keyboard-response","406","622019","0.0-1.0-543.0","0","0","47309","","null","","","null","60","NaN","","","","","","","","","","","","","","",""
"","S2","","html-keyboard-response","407","622281","0.0-1.0-544.0","0","0","47309","","null","","","null","60","","NaN","","","","","","","","","","","","","",""
"","response","","html-keyboard-response","408","622683","0.0-1.0-545.0-0.0","0","0","47309","","391","","","68","60","","","2","60","training","adjacent","DC","4","3","M.jpg","Q.jpg","0","0","1","",""
"","feedback","","html-keyboard-response","409","623695","0.0-1.0-546.0-0.0","0","0","47309","","null","","","null","60","","","","","","","","","","","","","","","",""
"","ITI","","html-keyboard-response","410","624710","0.0-1.0-549.0","0","0","47309","","null","","","null","60","","","","","","","","","","","","","","","NaN",""
"","S1","","html-keyboard-response","411","624976","0.0-1.0-551.0","0","0","47309","","null","","","null","61","","","","","","","","","","","","","","","",""
"","ISI","","html-keyboard-response","412","626989","0.0-1.0-552.0","0","0","47309","","null","","","null","61","NaN","","","","","","","","","","","","","","",""
"","S2","","html-keyboard-response","413","627250","0.0-1.0-553.0","0","0","47309","","null","","","null","61","","NaN","","","","","","","","","","","","","",""
"","response","","html-keyboard-response","414","627649","0.0-1.0-554.0-0.0","0","0","47309","","392","","","75","61","","","2","61","training","adjacent","CB","3","2","Q.jpg","O.jpg","1","0","0","",""
"","feedback","","html-keyboard-response","415","628660","0.0-1.0-555.0-0.0","0","0","47309","","null","","","null","61","","","","","","","","","","","","","","","",""
"","time_out","","html-keyboard-response","416","630675","0.0-1.0-557.0-0.0","0","0","47309","","null","","","null","61","","","","","","","","","","","","","","","",""
"","ITI","","html-keyboard-response","417","631687","0.0-1.0-558.0","0","0","47309","","null","","","null","61","","","","","","","","","","","","","","","NaN",""
"","S1","","html-keyboard-response","418","631950","0.0-1.0-560.0","0","0","47309","","null","","","null","62","","","","","","","","","","","","","","","",""
"","ISI","","html-keyboard-response","419","633961","0.0-1.0-561.0","0","0","47309","","null","","","null","62","NaN","","","","","","","","","","","","","","",""
"","S2","","html-keyboard-response","420","634225","0.0-1.0-562.0","0","0","47309","","null","","","null","62","","NaN","","","","","","","","","","","","","",""
"","response","","html-keyboard-response","421","634605","0.0-1.0-563.0-0.0","0","0","47309","","368","","","68","62","","","2","62","training","adjacent","CD","3","4","Q.jpg","M.jpg","0","1","0","",""
"","feedback","","html-keyboard-response","422","635617","0.0-1.0-564.0-0.0","0","0","47309","","null","","","null","62","","","","","","","","","","","","","","","",""
"","time_out","","html-keyboard-response","423","637635","0.0-1.0-566.0-0.0","0","0","47309","","null","","","null","62","","","","","","","","","","","","","","","",""
"","ITI","","html-keyboard-response","424","638649","0.0-1.0-567.0","0","0","47309","","null","","","null","62","","","","","","","","","","","","","","","NaN",""
"","S1","","html-keyboard-response","425","638908","0.0-1.0-569.0","0","0","47309","","null","","","null","63","","","","","","","","","","","","","","","",""
"","ISI","","html-keyboard-response","426","640916","0.0-1.0-570.0","0","0","47309","","null","","","null","63","NaN","","","","","","","","","","","","","","",""
"","S2","","html-keyboard-response","427","641177","0.0-1.0-571.0","0","0","47309","","null","","","null","63","","NaN","","","","","","","","","","","","","",""
"","response","","html-keyboard-response","428","641382","0.0-1.0-572.0-0.0","0","0","47309","","195","","","68","63","","","2","63","training","adjacent","FG","6","7","P.jpg","L.jpg","0","1","0","",""
"","feedback","","html-keyboard-response","429","642394","0.0-1.0-573.0-0.0","0","0","47309","","null","","","null","63","","","","","","","","","","","","","","","",""
"","time_out","","html-keyboard-response","430","644409","0.0-1.0-575.0-0.0","0","0","47309","","null","","","null","63","","","","","","","","","","","","","","","",""
"","ITI","","html-keyboard-response","431","645424","0.0-1.0-576.0","0","0","47309","","null","","","null","63","","","","","","","","","","","","","","","NaN",""
"","S1","","html-keyboard-response","432","645689","0.0-1.0-578.0","0","0","47309","","null","","","null","64","","","","","","","","","","","","","","","",""
"","ISI","","html-keyboard-response","433","647700","0.0-1.0-579.0","0","0","47309","","null","","","null","64","NaN","","","","","","","","","","","","","","",""
"","S2","","html-keyboard-response","434","647965","0.0-1.0-580.0","0","0","47309","","null","","","null","64","","NaN","","","","","","","","","","","","","",""
"","response","","html-keyboard-response","435","649106","0.0-1.0-581.0-0.0","0","0","47309","","1128","","","75","64","","","2","64","training","adjacent","FG","6","7","P.jpg","L.jpg","1","1","1","",""
"","feedback","","html-keyboard-response","436","650118","0.0-1.0-582.0-0.0","0","0","47309","","null","","","null","64","","","","","","","","","","","","","","","",""
"","ITI","","html-keyboard-response","437","651133","0.0-1.0-585.0","0","0","47309","","null","","","null","64","","","","","","","","","","","","","","","NaN",""
"","S1","","html-keyboard-response","438","651398","0.0-1.0-587.0","0","0","47309","","null","","","null","65","","","","","","","","","","","","","","","",""
"","ISI","","html-keyboard-response","439","653410","0.0-1.0-588.0","0","0","47309","","null","","","null","65","NaN","","","","","","","","","","","","","","",""
"","S2","","html-keyboard-response","440","653671","0.0-1.0-589.0","0","0","47309","","null","","","null","65","","NaN","","","","","","","","","","","","","",""
"","response","","html-keyboard-response","441","654013","0.0-1.0-590.0-0.0","0","0","47309","","335","","","68","65","","","2","65","training","adjacent","DE","4","5","M.jpg","N.jpg","0","1","0","",""
"","feedback","","html-keyboard-response","442","655027","0.0-1.0-591.0-0.0","0","0","47309","","null","","","null","65","","","","","","","","","","","","","","","",""
"","time_out","","html-keyboard-response","443","657048","0.0-1.0-593.0-0.0","0","0","47309","","null","","","null","65","","","","","","","","","","","","","","","",""
"","ITI","","html-keyboard-response","444","658059","0.0-1.0-594.0","0","0","47309","","null","","","null","65","","","","","","","","","","","","","","","NaN",""
"","S1","","html-keyboard-response","445","658322","0.0-1.0-596.0","0","0","47309","","null","","","null","66","","","","","","","","","","","","","","","",""
"","ISI","","html-keyboard-response","446","660335","0.0-1.0-597.0","0","0","47309","","null","","","null","66","NaN","","","","","","","","","","","","","","",""
"","S2","","html-keyboard-response","447","660597","0.0-1.0-598.0","0","0","47309","","null","","","null","66","","NaN","","","","","","","","","","","","","",""
"","response","","html-keyboard-response","448","661018","0.0-1.0-599.0-0.0","0","0","47309","","414","","","75","66","","","2","66","training","adjacent","GF","7","6","L.jpg","P.jpg","1","0","0","",""
"","feedback","","html-keyboard-response","449","662028","0.0-1.0-600.0-0.0","0","0","47309","","null","","","null","66","","","","","","","","","","","","","","","",""
"","time_out","","html-keyboard-response","450","664039","0.0-1.0-602.0-0.0","0","0","47309","","null","","","null","66","","","","","","","","","","","","","","","",""
"","ITI","","html-keyboard-response","451","665049","0.0-1.0-603.0","0","0","47309","","null","","","null","66","","","","","","","","","","","","","","","NaN",""
"","S1","","html-keyboard-response","452","665306","0.0-1.0-605.0","0","0","47309","","null","","","null","67","","","","","","","","","","","","","","","",""
"","ISI","","html-keyboard-response","453","667316","0.0-1.0-606.0","0","0","47309","","null","","","null","67","NaN","","","","","","","","","","","","","","",""
"","S2","","html-keyboard-response","454","667583","0.0-1.0-607.0","0","0","47309","","null","","","null","67","","NaN","","","","","","","","","","","","","",""
"","response","","html-keyboard-response","455","667885","0.0-1.0-608.0-0.0","0","0","47309","","292","","","68","67","","","2","67","training","adjacent","CD","3","4","Q.jpg","M.jpg","0","1","0","",""
"","feedback","","html-keyboard-response","456","668897","0.0-1.0-609.0-0.0","0","0","47309","","null","","","null","67","","","","","","","","","","","","","","","",""
"","time_out","","html-keyboard-response","457","670915","0.0-1.0-611.0-0.0","0","0","47309","","null","","","null","67","","","","","","","","","","","","","","","",""
"","ITI","","html-keyboard-response","458","671927","0.0-1.0-612.0","0","0","47309","","null","","","null","67","","","","","","","","","","","","","","","NaN",""
"","S1","","html-keyboard-response","459","672191","0.0-1.0-614.0","0","0","47309","","null","","","null","68","","","","","","","","","","","","","","","",""
"","ISI","","html-keyboard-response","460","674203","0.0-1.0-615.0","0","0","47309","","null","","","null","68","NaN","","","","","","","","","","","","","","",""
"","S2","","html-keyboard-response","461","674422","0.0-1.0-616.0","0","0","47309","","203","","","68","68","","d","2","68","training","adjacent","FG","6","7","P.jpg","L.jpg","0","1","0","",""
"","feedback","","html-keyboard-response","462","675434","0.0-1.0-618.0-0.0","0","0","47309","","null","","","null","68","","","","","","","","","","","","","","","",""
"","time_out","","html-keyboard-response","463","677450","0.0-1.0-620.0-0.0","0","0","47309","","null","","","null","68","","","","","","","","","","","","","","","",""
"","ITI","","html-keyboard-response","464","678463","0.0-1.0-621.0","0","0","47309","","null","","","null","68","","","","","","","","","","","","","","","NaN",""
"","S1","","html-keyboard-response","465","678724","0.0-1.0-623.0","0","0","47309","","null","","","null","69","","","","","","","","","","","","","","","",""
"","ISI","","html-keyboard-response","466","680733","0.0-1.0-624.0","0","0","47309","","null","","","null","69","NaN","","","","","","","","","","","","","","",""
"","S2","","html-keyboard-response","467","680995","0.0-1.0-625.0","0","0","47309","","null","","","null","69","","NaN","","","","","","","","","","","","","",""
"","response","","html-keyboard-response","468","681384","0.0-1.0-626.0-0.0","0","0","47309","","382","","","75","69","","","2","69","training","adjacent","AB","1","2","R.jpg","O.jpg","1","1","1","",""
"","feedback","","html-keyboard-response","469","682398","0.0-1.0-627.0-0.0","0","0","47309","","null","","","null","69","","","","","","","","","","","","","","","",""
"","ITI","","html-keyboard-response","470","683414","0.0-1.0-630.0","0","0","47309","","null","","","null","69","","","","","","","","","","","","","","","NaN",""
"","S1","","html-keyboard-response","471","683679","0.0-1.0-632.0","0","0","47309","","null","","","null","70","","","","","","","","","","","","","","","",""
"","ISI","","html-keyboard-response","472","685691","0.0-1.0-633.0","0","0","47309","","null","","","null","70","NaN","","","","","","","","","","","","","","",""
"","S2","","html-keyboard-response","473","685951","0.0-1.0-634.0","0","0","47309","","null","","","null","70","","NaN","","","","","","","","","","","","","",""
"","response","","html-keyboard-response","474","686354","0.0-1.0-635.0-0.0","0","0","47309","","393","","","68","70","","","2","70","training","adjacent","AB","1","2","R.jpg","O.jpg","0","1","0","",""
"","feedback","","html-keyboard-response","475","687363","0.0-1.0-636.0-0.0","0","0","47309","","null","","","null","70","","","","","","","","","","","","","","","",""
"","time_out","","html-keyboard-response","476","689405","0.0-1.0-638.0-0.0","0","0","47309","","null","","","null","70","","","","","","","","","","","","","","","",""
"","ITI","","html-keyboard-response","477","690417","0.0-1.0-639.0","0","0","47309","","null","","","null","70","","","","","","","","","","","","","","","NaN",""
"","S1","","html-keyboard-response","478","690679","0.0-1.0-641.0","0","0","47309","","null","","","null","71","","","","","","","","","","","","","","","",""
"","ISI","","html-keyboard-response","479","692688","0.0-1.0-642.0","0","0","47309","","null","","","null","71","NaN","","","","","","","","","","","","","","",""
"","S2","","html-keyboard-response","480","692948","0.0-1.0-643.0","0","0","47309","","null","","","null","71","","NaN","","","","","","","","","","","","","",""
"","response","","html-keyboard-response","481","693306","0.0-1.0-644.0-0.0","0","0","47309","","352","","","68","71","","","2","71","training","adjacent","DC","4","3","M.jpg","Q.jpg","0","0","1","",""
"","feedback","","html-keyboard-response","482","694321","0.0-1.0-645.0-0.0","0","0","47309","","null","","","null","71","","","","","","","","","","","","","","","",""
"","ITI","","html-keyboard-response","483","695340","0.0-1.0-648.0","0","0","47309","","null","","","null","71","","","","","","","","","","","","","","","NaN",""
"","S1","","html-keyboard-response","484","695610","0.0-1.0-650.0","0","0","47309","","null","","","null","72","","","","","","","","","","","","","","","",""
"","ISI","","html-keyboard-response","485","697621","0.0-1.0-651.0","0","0","47309","","null","","","null","72","NaN","","","","","","","","","","","","","","",""
"","S2","","html-keyboard-response","486","697882","0.0-1.0-652.0","0","0","47309","","null","","","null","72","","NaN","","","","","","","","","","","","","",""
"","response","","html-keyboard-response","487","698577","0.0-1.0-653.0-0.0","0","0","47309","","684","","","75","72","","","2","72","training","adjacent","FE","6","5","P.jpg","N.jpg","1","0","0","",""
"","feedback","","html-keyboard-response","488","699589","0.0-1.0-654.0-0.0","0","0","47309","","null","","","null","72","","","","","","","","","","","","","","","",""
"","time_out","","html-keyboard-response","489","701599","0.0-1.0-656.0-0.0","0","0","47309","","null","","","null","72","","","","","","","","","","","","","","","",""
"","ITI","","html-keyboard-response","490","702613","0.0-1.0-657.0","0","0","47309","","null","","","null","72","","","","","","","","","","","","","","","NaN",""
"","S1","","html-keyboard-response","491","702874","0.0-1.0-659.0","0","0","47309","","null","","","null","73","","","","","","","","","","","","","","","",""
"","ISI","","html-keyboard-response","492","704881","0.0-1.0-660.0","0","0","47309","","null","","","null","73","NaN","","","","","","","","","","","","","","",""
"","S2","","html-keyboard-response","493","705146","0.0-1.0-661.0","0","0","47309","","null","","","null","73","","NaN","","","","","","","","","","","","","",""
"","response","","html-keyboard-response","494","705383","0.0-1.0-662.0-0.0","0","0","47309","","224","","","68","73","","","2","73","training","adjacent","FG","6","7","P.jpg","L.jpg","0","1","0","",""
"","feedback","","html-keyboard-response","495","706396","0.0-1.0-663.0-0.0","0","0","47309","","null","","","null","73","","","","","","","","","","","","","","","",""
"","time_out","","html-keyboard-response","496","708412","0.0-1.0-665.0-0.0","0","0","47309","","null","","","null","73","","","","","","","","","","","","","","","",""
"","ITI","","html-keyboard-response","497","709423","0.0-1.0-666.0","0","0","47309","","null","","","null","73","","","","","","","","","","","","","","","NaN",""
"","S1","","html-keyboard-response","498","709685","0.0-1.0-668.0","0","0","47309","","null","","","null","74","","","","","","","","","","","","","","","",""
"","ISI","","html-keyboard-response","499","711695","0.0-1.0-669.0","0","0","47309","","null","","","null","74","NaN","","","","","","","","","","","","","","",""
"","S2","","html-keyboard-response","500","711959","0.0-1.0-670.0","0","0","47309","","null","","","null","74","","NaN","","","","","","","","","","","","","",""
"","response","","html-keyboard-response","501","712249","0.0-1.0-671.0-0.0","0","0","47309","","277","","","75","74","","","2","74","training","adjacent","ED","5","4","N.jpg","M.jpg","1","0","0","",""
"","feedback","","html-keyboard-response","502","713258","0.0-1.0-672.0-0.0","0","0","47309","","null","","","null","74","","","","","","","","","","","","","","","",""
"","time_out","","html-keyboard-response","503","715270","0.0-1.0-674.0-0.0","0","0","47309","","null","","","null","74","","","","","","","","","","","","","","","",""
"","ITI","","html-keyboard-response","504","716283","0.0-1.0-675.0","0","0","47309","","null","","","null","74","","","","","","","","","","","","","","","NaN",""
"","S1","","html-keyboard-response","505","716544","0.0-1.0-677.0","0","0","47309","","null","","","null","75","","","","","","","","","","","","","","","",""
"","ISI","","html-keyboard-response","506","718550","0.0-1.0-678.0","0","0","47309","","null","","","null","75","NaN","","","","","","","","","","","","","","",""
"","S2","","html-keyboard-response","507","718807","0.0-1.0-679.0","0","0","47309","","null","","","null","75","","NaN","","","","","","","","","","","","","",""
"","response","","html-keyboard-response","508","719211","0.0-1.0-680.0-0.0","0","0","47309","","397","","","75","75","","","2","75","training","adjacent","BA","2","1","O.jpg","R.jpg","1","0","0","",""
"","feedback","","html-keyboard-response","509","720225","0.0-1.0-681.0-0.0","0","0","47309","","null","","","null","75","","","","","","","","","","","","","","","",""
"","time_out","","html-keyboard-response","510","722241","0.0-1.0-683.0-0.0","0","0","47309","","null","","","null","75","","","","","","","","","","","","","","","",""
"","ITI","","html-keyboard-response","511","723254","0.0-1.0-684.0","0","0","47309","","null","","","null","75","","","","","","","","","","","","","","","NaN",""
"","S1","","html-keyboard-response","512","723518","0.0-1.0-686.0","0","0","47309","","null","","","null","76","","","","","","","","","","","","","","","",""
"","ISI","","html-keyboard-response","513","725529","0.0-1.0-687.0","0","0","47309","","null","","","null","76","NaN","","","","","","","","","","","","","","",""
"","S2","","html-keyboard-response","514","725790","0.0-1.0-688.0","0","0","47309","","null","","","null","76","","NaN","","","","","","","","","","","","","",""
"","response","","html-keyboard-response","515","726168","0.0-1.0-689.0-0.0","0","0","47309","","369","","","68","76","","","2","76","training","adjacent","BC","2","3","O.jpg","Q.jpg","0","1","0","",""
"","feedback","","html-keyboard-response","516","727184","0.0-1.0-690.0-0.0","0","0","47309","","null","","","null","76","","","","","","","","","","","","","","","",""
"","time_out","","html-keyboard-response","517","729200","0.0-1.0-692.0-0.0","0","0","47309","","null","","","null","76","","","","","","","","","","","","","","","",""
"","ITI","","html-keyboard-response","518","730212","0.0-1.0-693.0","0","0","47309","","null","","","null","76","","","","","","","","","","","","","","","NaN",""
"","S1","","html-keyboard-response","519","730476","0.0-1.0-695.0","0","0","47309","","null","","","null","77","","","","","","","","","","","","","","","",""
"","ISI","","html-keyboard-response","520","732487","0.0-1.0-696.0","0","0","47309","","null","","","null","77","NaN","","","","","","","","","","","","","","",""
"","S2","","html-keyboard-response","521","732752","0.0-1.0-697.0","0","0","47309","","null","","","null","77","","NaN","","","","","","","","","","","","","",""
"","response","","html-keyboard-response","522","733020","0.0-1.0-698.0-0.0","0","0","47309","","256","","","75","77","","","2","77","training","adjacent","ED","5","4","N.jpg","M.jpg","1","0","0","",""
"","feedback","","html-keyboard-response","523","734032","0.0-1.0-699.0-0.0","0","0","47309","","null","","","null","77","","","","","","","","","","","","","","","",""
"","time_out","","html-keyboard-response","524","736048","0.0-1.0-701.0-0.0","0","0","47309","","null","","","null","77","","","","","","","","","","","","","","","",""
"","ITI","","html-keyboard-response","525","737061","0.0-1.0-702.0","0","0","47309","","null","","","null","77","","","","","","","","","","","","","","","NaN",""
"","S1","","html-keyboard-response","526","737326","0.0-1.0-704.0","0","0","47309","","null","","","null","78","","","","","","","","","","","","","","","",""
"","ISI","","html-keyboard-response","527","739338","0.0-1.0-705.0","0","0","47309","","null","","","null","78","NaN","","","","","","","","","","","","","","",""
"","S2","","html-keyboard-response","528","739604","0.0-1.0-706.0","0","0","47309","","null","","","null","78","","NaN","","","","","","","","","","","","","",""
"","response","","html-keyboard-response","529","739861","0.0-1.0-707.0-0.0","0","0","47309","","245","","","75","78","","","2","78","training","adjacent","DC","4","3","M.jpg","Q.jpg","1","0","0","",""
"","feedback","","html-keyboard-response","530","740873","0.0-1.0-708.0-0.0","0","0","47309","","null","","","null","78","","","","","","","","","","","","","","","",""
"","time_out","","html-keyboard-response","531","742890","0.0-1.0-710.0-0.0","0","0","47309","","null","","","null","78","","","","","","","","","","","","","","","",""
"","ITI","","html-keyboard-response","532","743903","0.0-1.0-711.0","0","0","47309","","null","","","null","78","","","","","","","","","","","","","","","NaN",""
"","S1","","html-keyboard-response","533","744169","0.0-1.0-713.0","0","0","47309","","null","","","null","79","","","","","","","","","","","","","","","",""
"","ISI","","html-keyboard-response","534","746181","0.0-1.0-714.0","0","0","47309","","null","","","null","79","NaN","","","","","","","","","","","","","","",""
"","S2","","html-keyboard-response","535","746446","0.0-1.0-715.0","0","0","47309","","null","","","null","79","","NaN","","","","","","","","","","","","","",""
"","response","","html-keyboard-response","536","746672","0.0-1.0-716.0-0.0","0","0","47309","","217","","","75","79","","","2","79","training","adjacent","AB","1","2","R.jpg","O.jpg","1","1","1","",""
"","feedback","","html-keyboard-response","537","747687","0.0-1.0-717.0-0.0","0","0","47309","","null","","","null","79","","","","","","","","","","","","","","","",""
"","ITI","","html-keyboard-response","538","748704","0.0-1.0-720.0","0","0","47309","","null","","","null","79","","","","","","","","","","","","","","","NaN",""
"","S1","","html-keyboard-response","539","748972","0.0-1.0-722.0","0","0","47309","","null","","","null","80","","","","","","","","","","","","","","","",""
"","ISI","","html-keyboard-response","540","750986","0.0-1.0-723.0","0","0","47309","","null","","","null","80","NaN","","","","","","","","","","","","","","",""
"","S2","","html-keyboard-response","541","751251","0.0-1.0-724.0","0","0","47309","","null","","","null","80","","NaN","","","","","","","","","","","","","",""
"","response","","html-keyboard-response","542","751843","0.0-1.0-725.0-0.0","0","0","47309","","578","","","75","80","","","2","80","training","adjacent","CD","3","4","Q.jpg","M.jpg","1","1","1","",""
"","feedback","","html-keyboard-response","543","752855","0.0-1.0-726.0-0.0","0","0","47309","","null","","","null","80","","","","","","","","","","","","","","","",""
"","ITI","","html-keyboard-response","544","753872","0.0-1.0-729.0","0","0","47309","","null","","","null","80","","","","","","","","","","","","","","","NaN",""
"","S1","","html-keyboard-response","545","754133","0.0-1.0-731.0","0","0","47309","","null","","","null","81","","","","","","","","","","","","","","","",""
"","ISI","","html-keyboard-response","546","756143","0.0-1.0-732.0","0","0","47309","","null","","","null","81","NaN","","","","","","","","","","","","","","",""
"","S2","","html-keyboard-response","547","756408","0.0-1.0-733.0","0","0","47309","","null","","","null","81","","NaN","","","","","","","","","","","","","",""
"","response","","html-keyboard-response","548","756600","0.0-1.0-734.0-0.0","0","0","47309","","176","","","75","81","","","2","81","training","adjacent","DE","4","5","M.jpg","N.jpg","1","1","1","",""
"","feedback","","html-keyboard-response","549","757614","0.0-1.0-735.0-0.0","0","0","47309","","null","","","null","81","","","","","","","","","","","","","","","",""
"","ITI","","html-keyboard-response","550","758628","0.0-1.0-738.0","0","0","47309","","null","","","null","81","","","","","","","","","","","","","","","NaN",""
"","S1","","html-keyboard-response","551","758890","0.0-1.0-740.0","0","0","47309","","null","","","null","82","","","","","","","","","","","","","","","",""
"","ISI","","html-keyboard-response","552","760902","0.0-1.0-741.0","0","0","47309","","null","","","null","82","NaN","","","","","","","","","","","","","","",""
"","S2","","html-keyboard-response","553","761167","0.0-1.0-742.0","0","0","47309","","null","","","null","82","","NaN","","","","","","","","","","","","","",""
"","response","","html-keyboard-response","554","761416","0.0-1.0-743.0-0.0","0","0","47309","","238","","","75","82","","","2","82","training","adjacent","AB","1","2","R.jpg","O.jpg","1","1","1","",""
"","feedback","","html-keyboard-response","555","762429","0.0-1.0-744.0-0.0","0","0","47309","","null","","","null","82","","","","","","","","","","","","","","","",""
"","ITI","","html-keyboard-response","556","763442","0.0-1.0-747.0","0","0","47309","","null","","","null","82","","","","","","","","","","","","","","","NaN",""
"","S1","","html-keyboard-response","557","763700","0.0-1.0-749.0","0","0","47309","","null","","","null","83","","","","","","","","","","","","","","","",""
"","ISI","","html-keyboard-response","558","765708","0.0-1.0-750.0","0","0","47309","","null","","","null","83","NaN","","","","","","","","","","","","","","",""
"","S2","","html-keyboard-response","559","765969","0.0-1.0-751.0","0","0","47309","","null","","","null","83","","NaN","","","","","","","","","","","","","",""
"","response","","html-keyboard-response","560","766123","0.0-1.0-752.0-0.0","0","0","47309","","142","","","75","83","","","2","83","training","adjacent","FE","6","5","P.jpg","N.jpg","1","0","0","",""
"","feedback","","html-keyboard-response","561","767134","0.0-1.0-753.0-0.0","0","0","47309","","null","","","null","83","","","","","","","","","","","","","","","",""
"","time_out","","html-keyboard-response","562","769145","0.0-1.0-755.0-0.0","0","0","47309","","null","","","null","83","","","","","","","","","","","","","","","",""
"","ITI","","html-keyboard-response","563","770157","0.0-1.0-756.0","0","0","47309","","null","","","null","83","","","","","","","","","","","","","","","NaN",""
"","S1","","html-keyboard-response","564","770421","0.0-1.0-758.0","0","0","47309","","null","","","null","84","","","","","","","","","","","","","","","",""
"","ISI","","html-keyboard-response","565","772433","0.0-1.0-759.0","0","0","47309","","492","","","75","84","k","","","","","","","","","","","","","","",""
"","S2","","html-keyboard-response","566","772700","0.0-1.0-760.0","0","0","47309","","null","","","null","84","","NaN","","","","","","","","","","","","","",""
"","response","","html-keyboard-response","567","773864","0.0-1.0-761.0-0.0","0","0","47309","","1150","","","75","84","","","2","84","training","adjacent","ED","5","4","N.jpg","M.jpg","1","0","0","",""
"","feedback","","html-keyboard-response","568","774876","0.0-1.0-762.0-0.0","0","0","47309","","null","","","null","84","","","","","","","","","","","","","","","",""
"","time_out","","html-keyboard-response","569","776893","0.0-1.0-764.0-0.0","0","0","47309","","null","","","null","84","","","","","","","","","","","","","","","",""
"","ITI","","html-keyboard-response","570","777906","0.0-1.0-765.0","0","0","47309","","null","","","null","84","","","","","","","","","","","","","","","NaN",""
"","S1","","html-keyboard-response","571","778171","0.0-1.0-767.0","0","0","47309","","null","","","null","85","","","","","","","","","","","","","","","",""
"","ISI","","html-keyboard-response","572","780182","0.0-1.0-768.0","0","0","47309","","null","","","null","85","NaN","","","","","","","","","","","","","","",""
"","S2","","html-keyboard-response","573","780447","0.0-1.0-769.0","0","0","47309","","null","","","null","85","","NaN","","","","","","","","","","","","","",""
"","response","","html-keyboard-response","574","780658","0.0-1.0-770.0-0.0","0","0","47309","","197","","","68","85","","","2","85","training","adjacent","EF","5","6","N.jpg","P.jpg","0","1","0","",""
"","feedback","","html-keyboard-response","575","781673","0.0-1.0-771.0-0.0","0","0","47309","","null","","","null","85","","","","","","","","","","","","","","","",""
"","time_out","","html-keyboard-response","576","783692","0.0-1.0-773.0-0.0","0","0","47309","","null","","","null","85","","","","","","","","","","","","","","","",""
"","ITI","","html-keyboard-response","577","784705","0.0-1.0-774.0","0","0","47309","","null","","","null","85","","","","","","","","","","","","","","","NaN",""
"","S1","","html-keyboard-response","578","784970","0.0-1.0-776.0","0","0","47309","","null","","","null","86","","","","","","","","","","","","","","","",""
"","ISI","","html-keyboard-response","579","786980","0.0-1.0-777.0","0","0","47309","","573","","","75","86","k","","","","","","","","","","","","","","",""
"","S2","","html-keyboard-response","580","787247","0.0-1.0-778.0","0","0","47309","","null","","","null","86","","NaN","","","","","","","","","","","","","",""
