"success","ttype","start_time","trial_type","trial_index","time_elapsed","internal_node_id","warning","missed_checkup","PID","view_history","rt","responses","repeat_instructions","key_press","index","keypress_isi","keypress_S2","block","trial_num","phase","group_type","pair_type","S1_stim","S2_stim","S1_img","S2_img","S1_chosen","S1_higher","accuracy","keypress_iti","total_bonus_tally"
"true","full_screen","d08052022hr1249","fullscreen","0","23538","0.0-0.0","0","0","47944","","","","","","","","","","","","","","","","","","","","","",""
"","instructions","","instructions","1","262899","0.0-1.0-0.0-0.0","0","0","47944","[{""page_index"":0,""viewing_time"":35253},{""page_index"":1,""viewing_time"":47689},{""page_index"":2,""viewing_time"":54521},{""page_index"":3,""viewing_time"":6142},{""page_index"":2,""viewing_time"":1457},{""page_index"":1,""viewing_time"":3153},{""page_index"":0,""viewing_time"":12544},{""page_index"":1,""viewing_time"":47575},{""page_index"":2,""viewing_time"":15249},{""page_index"":3,""viewing_time"":15776}]","239360","","","","","","","","","","","","","","","","","","","",""
"","comprehension_check","","survey-multi-choice","2","419329","0.0-1.0-0.0-1.0","0","0","47944","","156425","{""Q0"":""True"",""Q1"":""D"",""Q2"":""Once the second image appears and while the screen 'MAKE A CHOICE' is shown"",""Q3"":""Green mark"",""Q4"":""either D or K""}","0","","","","","","","","","","","","","","","","","",""
"","start_exp","","html-keyboard-response","3","440436","0.0-1.0-1.0","0","0","47944","","21102","","","32","","","","","","","","","","","","","","","","",""
"","S1","","html-keyboard-response","4","440690","0.0-1.0-2.0","0","0","47944","","null","","","null","0","","","","","","","","","","","","","","","",""
"","ISI","","html-keyboard-response","5","442692","0.0-1.0-3.0","0","0","47944","","1381","","","68","0","d","","","","","","","","","","","","","","",""
"","S2","","html-keyboard-response","6","442945","0.0-1.0-4.0","0","0","47944","","null","","","null","0","","NaN","","","","","","","","","","","","","",""
"","response","","html-keyboard-response","7","444147","0.0-1.0-5.0-0.0","0","0","47944","","1200","","","75","0","","","1","0","training","adjacent","CB","3","2","Q.jpg","L.jpg","0","0","1","",""
"","feedback","","html-keyboard-response","8","445150","0.0-1.0-6.0-0.0","0","0","47944","","null","","","null","0","","","","","","","","","","","","","","","",""
"","ITI","","html-keyboard-response","9","446154","0.0-1.0-9.0","0","0","47944","","null","","","null","0","","","","","","","","","","","","","","","NaN",""
"","S1","","html-keyboard-response","10","446407","0.0-1.0-11.0","0","0","47944","","null","","","null","1","","","","","","","","","","","","","","","",""
"","ISI","","html-keyboard-response","11","448410","0.0-1.0-12.0","0","0","47944","","453","","","68","1","d","","","","","","","","","","","","","","",""
"","S2","","html-keyboard-response","12","448663","0.0-1.0-13.0","0","0","47944","","null","","","null","1","","NaN","","","","","","","","","","","","","",""
"","response","","html-keyboard-response","13","449773","0.0-1.0-14.0-0.0","0","0","47944","","1108","","","75","1","","","1","1","training","adjacent","FG","6","7","M.jpg","R.jpg","0","1","0","",""
"","feedback","","html-keyboard-response","14","450776","0.0-1.0-15.0-0.0","0","0","47944","","null","","","null","1","","","","","","","","","","","","","","","",""
"","time_out","","html-keyboard-response","15","452779","0.0-1.0-17.0-0.0","0","0","47944","","null","","","null","1","","","","","","","","","","","","","","","",""
"","ITI","","html-keyboard-response","16","453782","0.0-1.0-18.0","0","0","47944","","null","","","null","1","","","","","","","","","","","","","","","NaN",""
"","S1","","html-keyboard-response","17","454035","0.0-1.0-20.0","0","0","47944","","null","","","null","2","","","","","","","","","","","","","","","",""
"","ISI","","html-keyboard-response","18","456038","0.0-1.0-21.0","0","0","47944","","1428","","","68","2","d","","","","","","","","","","","","","","",""
"","S2","","html-keyboard-response","19","456291","0.0-1.0-22.0","0","0","47944","","null","","","null","2","","NaN","","","","","","","","","","","","","",""
"","response","","html-keyboard-response","20","457322","0.0-1.0-23.0-0.0","0","0","47944","","1028","","","75","2","","","1","2","training","adjacent","FG","6","7","M.jpg","R.jpg","0","1","0","",""
"","feedback","","html-keyboard-response","21","458325","0.0-1.0-24.0-0.0","0","0","47944","","null","","","null","2","","","","","","","","","","","","","","","",""
"","time_out","","html-keyboard-response","22","460328","0.0-1.0-26.0-0.0","0","0","47944","","null","","","null","2","","","","","","","","","","","","","","","",""
"","ITI","","html-keyboard-response","23","461330","0.0-1.0-27.0","0","0","47944","","null","","","null","2","","","","","","","","","","","","","","","NaN",""
"","S1","","html-keyboard-response","24","461583","0.0-1.0-29.0","0","0","47944","","null","","","null","3","","","","","","","","","","","","","","","",""
"","ISI","","html-keyboard-response","25","463586","0.0-1.0-30.0","0","0","47944","","null","","","null","3","NaN","","","","","","","","","","","","","","",""
"","S2","","html-keyboard-response","26","463839","0.0-1.0-31.0","0","0","47944","","null","","","null","3","","NaN","","","","","","","","","","","","","",""
"","response","","html-keyboard-response","27","464555","0.0-1.0-32.0-0.0","0","0","47944","","714","","","68","3","","","1","3","training","adjacent","FG","6","7","M.jpg","R.jpg","1","1","1","",""
"","feedback","","html-keyboard-response","28","465566","0.0-1.0-33.0-0.0","0","0","47944","","null","","","null","3","","","","","","","","","","","","","","","",""
"","ITI","","html-keyboard-response","29","466568","0.0-1.0-36.0","0","0","47944","","null","","","null","3","","","","","","","","","","","","","","","NaN",""
"","S1","","html-keyboard-response","30","466823","0.0-1.0-38.0","0","0","47944","","null","","","null","4","","","","","","","","","","","","","","","",""
"","ISI","","html-keyboard-response","31","468826","0.0-1.0-39.0","0","0","47944","","null","","","null","4","NaN","","","","","","","","","","","","","","",""
"","S2","","html-keyboard-response","32","469080","0.0-1.0-40.0","0","0","47944","","null","","","null","4","","NaN","","","","","","","","","","","","","",""
"","response","","html-keyboard-response","33","469753","0.0-1.0-41.0-0.0","0","0","47944","","671","","","75","4","","","1","4","training","adjacent","AB","1","2","N.jpg","L.jpg","0","1","0","",""
"","feedback","","html-keyboard-response","34","470755","0.0-1.0-42.0-0.0","0","0","47944","","null","","","null","4","","","","","","","","","","","","","","","",""
"","time_out","","html-keyboard-response","35","472758","0.0-1.0-44.0-0.0","0","0","47944","","null","","","null","4","","","","","","","","","","","","","","","",""
"","ITI","","html-keyboard-response","36","473760","0.0-1.0-45.0","0","0","47944","","null","","","null","4","","","","","","","","","","","","","","","NaN",""
"","S1","","html-keyboard-response","37","474014","0.0-1.0-47.0","0","0","47944","","null","","","null","5","","","","","","","","","","","","","","","",""
"","ISI","","html-keyboard-response","38","476016","0.0-1.0-48.0","0","0","47944","","null","","","null","5","NaN","","","","","","","","","","","","","","",""
"","S2","","html-keyboard-response","39","476270","0.0-1.0-49.0","0","0","47944","","null","","","null","5","","NaN","","","","","","","","","","","","","",""
"","response","","html-keyboard-response","40","476965","0.0-1.0-50.0-0.0","0","0","47944","","693","","","68","5","","","1","5","training","adjacent","BC","2","3","L.jpg","Q.jpg","1","1","1","",""
"","feedback","","html-keyboard-response","41","477969","0.0-1.0-51.0-0.0","0","0","47944","","null","","","null","5","","","","","","","","","","","","","","","",""
"","ITI","","html-keyboard-response","42","478972","0.0-1.0-54.0","0","0","47944","","null","","","null","5","","","","","","","","","","","","","","","NaN",""
"","S1","","html-keyboard-response","43","479225","0.0-1.0-56.0","0","0","47944","","null","","","null","6","","","","","","","","","","","","","","","",""
"","ISI","","html-keyboard-response","44","481228","0.0-1.0-57.0","0","0","47944","","null","","","null","6","NaN","","","","","","","","","","","","","","",""
"","S2","","html-keyboard-response","45","481480","0.0-1.0-58.0","0","0","47944","","null","","","null","6","","NaN","","","","","","","","","","","","","",""
"","response","","html-keyboard-response","46","482123","0.0-1.0-59.0-0.0","0","0","47944","","641","","","75","6","","","1","6","training","adjacent","EF","5","6","P.jpg","M.jpg","0","1","0","",""
"","feedback","","html-keyboard-response","47","483126","0.0-1.0-60.0-0.0","0","0","47944","","null","","","null","6","","","","","","","","","","","","","","","",""
"","time_out","","html-keyboard-response","48","485129","0.0-1.0-62.0-0.0","0","0","47944","","null","","","null","6","","","","","","","","","","","","","","","",""
"","ITI","","html-keyboard-response","49","486133","0.0-1.0-63.0","0","0","47944","","null","","","null","6","","","","","","","","","","","","","","","NaN",""
"","S1","","html-keyboard-response","50","486386","0.0-1.0-65.0","0","0","47944","","null","","","null","7","","","","","","","","","","","","","","","",""
"","ISI","","html-keyboard-response","51","488388","0.0-1.0-66.0","0","0","47944","","792","","","68","7","d","","","","","","","","","","","","","","",""
"","S2","","html-keyboard-response","52","488641","0.0-1.0-67.0","0","0","47944","","null","","","null","7","","NaN","","","","","","","","","","","","","",""
"","response","","html-keyboard-response","53","489712","0.0-1.0-68.0-0.0","0","0","47944","","1069","","","68","7","","","1","7","training","adjacent","DE","4","5","O.jpg","P.jpg","1","1","1","",""
"","feedback","","html-keyboard-response","54","490716","0.0-1.0-69.0-0.0","0","0","47944","","null","","","null","7","","","","","","","","","","","","","","","",""
"","ITI","","html-keyboard-response","55","491719","0.0-1.0-72.0","0","0","47944","","null","","","null","7","","","","","","","","","","","","","","","NaN",""
"","S1","","html-keyboard-response","56","491972","0.0-1.0-74.0","0","0","47944","","null","","","null","8","","","","","","","","","","","","","","","",""
"","ISI","","html-keyboard-response","57","493975","0.0-1.0-75.0","0","0","47944","","null","","","null","8","NaN","","","","","","","","","","","","","","",""
"","S2","","html-keyboard-response","58","494228","0.0-1.0-76.0","0","0","47944","","null","","","null","8","","NaN","","","","","","","","","","","","","",""
"","response","","html-keyboard-response","59","494918","0.0-1.0-77.0-0.0","0","0","47944","","688","","","68","8","","","1","8","training","adjacent","BA","2","1","L.jpg","N.jpg","1","0","0","",""
"","feedback","","html-keyboard-response","60","495921","0.0-1.0-78.0-0.0","0","0","47944","","null","","","null","8","","","","","","","","","","","","","","","",""
"","time_out","","html-keyboard-response","61","497924","0.0-1.0-80.0-0.0","0","0","47944","","null","","","null","8","","","","","","","","","","","","","","","",""
"","ITI","","html-keyboard-response","62","498934","0.0-1.0-81.0","0","0","47944","","null","","","null","8","","","","","","","","","","","","","","","NaN",""
"","S1","","html-keyboard-response","63","499187","0.0-1.0-83.0","0","0","47944","","null","","","null","9","","","","","","","","","","","","","","","",""
"","ISI","","html-keyboard-response","64","501189","0.0-1.0-84.0","0","0","47944","","null","","","null","9","NaN","","","","","","","","","","","","","","",""
"","S2","","html-keyboard-response","65","501446","0.0-1.0-85.0","0","0","47944","","null","","","null","9","","NaN","","","","","","","","","","","","","",""
"","response","","html-keyboard-response","66","502677","0.0-1.0-86.0-0.0","0","0","47944","","1231","","","75","9","","","1","9","training","adjacent","FE","6","5","M.jpg","P.jpg","0","0","1","",""
"","feedback","","html-keyboard-response","67","503680","0.0-1.0-87.0-0.0","0","0","47944","","null","","","null","9","","","","","","","","","","","","","","","",""
"","ITI","","html-keyboard-response","68","504683","0.0-1.0-90.0","0","0","47944","","null","","","null","9","","","","","","","","","","","","","","","NaN",""
"","S1","","html-keyboard-response","69","504935","0.0-1.0-92.0","0","0","47944","","null","","","null","10","","","","","","","","","","","","","","","",""
"","ISI","","html-keyboard-response","70","506939","0.0-1.0-93.0","0","0","47944","","null","","","null","10","NaN","","","","","","","","","","","","","","",""
"","S2","","html-keyboard-response","71","507192","0.0-1.0-94.0","0","0","47944","","null","","","null","10","","NaN","","","","","","","","","","","","","",""
"","response","","html-keyboard-response","72","508372","0.0-1.0-95.0-0.0","0","0","47944","","1178","","","68","10","","","1","10","training","adjacent","CD","3","4","Q.jpg","O.jpg","1","1","1","",""
"","feedback","","html-keyboard-response","73","509376","0.0-1.0-96.0-0.0","0","0","47944","","null","","","null","10","","","","","","","","","","","","","","","",""
"","ITI","","html-keyboard-response","74","510379","0.0-1.0-99.0","0","0","47944","","null","","","null","10","","","","","","","","","","","","","","","NaN",""
"","S1","","html-keyboard-response","75","510632","0.0-1.0-101.0","0","0","47944","","null","","","null","11","","","","","","","","","","","","","","","",""
"","ISI","","html-keyboard-response","76","512635","0.0-1.0-102.0","0","0","47944","","null","","","null","11","NaN","","","","","","","","","","","","","","",""
"","S2","","html-keyboard-response","77","512888","0.0-1.0-103.0","0","0","47944","","null","","","null","11","","NaN","","","","","","","","","","","","","",""
"","response","","html-keyboard-response","78","513815","0.0-1.0-104.0-0.0","0","0","47944","","925","","","68","11","","","1","11","training","adjacent","FE","6","5","M.jpg","P.jpg","1","0","0","",""
"","feedback","","html-keyboard-response","79","514818","0.0-1.0-105.0-0.0","0","0","47944","","null","","","null","11","","","","","","","","","","","","","","","",""
"","time_out","","html-keyboard-response","80","516821","0.0-1.0-107.0-0.0","0","0","47944","","null","","","null","11","","","","","","","","","","","","","","","",""
"","ITI","","html-keyboard-response","81","517824","0.0-1.0-108.0","0","0","47944","","null","","","null","11","","","","","","","","","","","","","","","NaN",""
"","S1","","html-keyboard-response","82","518077","0.0-1.0-110.0","0","0","47944","","null","","","null","12","","","","","","","","","","","","","","","",""
"","ISI","","html-keyboard-response","83","520081","0.0-1.0-111.0","0","0","47944","","null","","","null","12","NaN","","","","","","","","","","","","","","",""
"","S2","","html-keyboard-response","84","520334","0.0-1.0-112.0","0","0","47944","","null","","","null","12","","NaN","","","","","","","","","","","","","",""
"","response","","html-keyboard-response","85","521383","0.0-1.0-113.0-0.0","0","0","47944","","1047","","","68","12","","","1","12","training","adjacent","CB","3","2","Q.jpg","L.jpg","1","0","0","",""
"","feedback","","html-keyboard-response","86","522387","0.0-1.0-114.0-0.0","0","0","47944","","null","","","null","12","","","","","","","","","","","","","","","",""
"","time_out","","html-keyboard-response","87","524389","0.0-1.0-116.0-0.0","0","0","47944","","null","","","null","12","","","","","","","","","","","","","","","",""
"","ITI","","html-keyboard-response","88","525392","0.0-1.0-117.0","0","0","47944","","null","","","null","12","","","","","","","","","","","","","","","NaN",""
"","S1","","html-keyboard-response","89","525646","0.0-1.0-119.0","0","0","47944","","null","","","null","13","","","","","","","","","","","","","","","",""
"","ISI","","html-keyboard-response","90","527649","0.0-1.0-120.0","0","0","47944","","null","","","null","13","NaN","","","","","","","","","","","","","","",""
"","S2","","html-keyboard-response","91","527901","0.0-1.0-121.0","0","0","47944","","null","","","null","13","","NaN","","","","","","","","","","","","","",""
"","response","","html-keyboard-response","92","528685","0.0-1.0-122.0-0.0","0","0","47944","","782","","","75","13","","","1","13","training","adjacent","FE","6","5","M.jpg","P.jpg","0","0","1","",""
"","feedback","","html-keyboard-response","93","529689","0.0-1.0-123.0-0.0","0","0","47944","","null","","","null","13","","","","","","","","","","","","","","","",""
"","ITI","","html-keyboard-response","94","530691","0.0-1.0-126.0","0","0","47944","","null","","","null","13","","","","","","","","","","","","","","","NaN",""
"","S1","","html-keyboard-response","95","530944","0.0-1.0-128.0","0","0","47944","","null","","","null","14","","","","","","","","","","","","","","","",""
"","ISI","","html-keyboard-response","96","532948","0.0-1.0-129.0","0","0","47944","","null","","","null","14","NaN","","","","","","","","","","","","","","",""
"","S2","","html-keyboard-response","97","533201","0.0-1.0-130.0","0","0","47944","","null","","","null","14","","NaN","","","","","","","","","","","","","",""
"","response","","html-keyboard-response","98","534143","0.0-1.0-131.0-0.0","0","0","47944","","939","","","75","14","","","1","14","training","adjacent","AB","1","2","N.jpg","L.jpg","0","1","0","",""
"","feedback","","html-keyboard-response","99","535146","0.0-1.0-132.0-0.0","0","0","47944","","null","","","null","14","","","","","","","","","","","","","","","",""
"","time_out","","html-keyboard-response","100","537149","0.0-1.0-134.0-0.0","0","0","47944","","null","","","null","14","","","","","","","","","","","","","","","",""
"","ITI","","html-keyboard-response","101","538152","0.0-1.0-135.0","0","0","47944","","null","","","null","14","","","","","","","","","","","","","","","NaN",""
"","S1","","html-keyboard-response","102","538405","0.0-1.0-137.0","0","0","47944","","null","","","null","15","","","","","","","","","","","","","","","",""
"","ISI","","html-keyboard-response","103","540408","0.0-1.0-138.0","0","0","47944","","null","","","null","15","NaN","","","","","","","","","","","","","","",""
"","S2","","html-keyboard-response","104","540660","0.0-1.0-139.0","0","0","47944","","null","","","null","15","","NaN","","","","","","","","","","","","","",""
"","response","","html-keyboard-response","105","541420","0.0-1.0-140.0-0.0","0","0","47944","","758","","","68","15","","","1","15","training","adjacent","DC","4","3","O.jpg","Q.jpg","1","0","0","",""
"","feedback","","html-keyboard-response","106","542423","0.0-1.0-141.0-0.0","0","0","47944","","null","","","null","15","","","","","","","","","","","","","","","",""
"","time_out","","html-keyboard-response","107","544426","0.0-1.0-143.0-0.0","0","0","47944","","null","","","null","15","","","","","","","","","","","","","","","",""
"","ITI","","html-keyboard-response","108","545429","0.0-1.0-144.0","0","0","47944","","null","","","null","15","","","","","","","","","","","","","","","NaN",""
"","S1","","html-keyboard-response","109","545681","0.0-1.0-146.0","0","0","47944","","null","","","null","16","","","","","","","","","","","","","","","",""
"","ISI","","html-keyboard-response","110","547684","0.0-1.0-147.0","0","0","47944","","null","","","null","16","NaN","","","","","","","","","","","","","","",""
"","S2","","html-keyboard-response","111","547938","0.0-1.0-148.0","0","0","47944","","null","","","null","16","","NaN","","","","","","","","","","","","","",""
"","response","","html-keyboard-response","112","548594","0.0-1.0-149.0-0.0","0","0","47944","","653","","","75","16","","","1","16","training","adjacent","DE","4","5","O.jpg","P.jpg","0","1","0","",""
"","feedback","","html-keyboard-response","113","549597","0.0-1.0-150.0-0.0","0","0","47944","","null","","","null","16","","","","","","","","","","","","","","","",""
"","time_out","","html-keyboard-response","114","551599","0.0-1.0-152.0-0.0","0","0","47944","","null","","","null","16","","","","","","","","","","","","","","","",""
"","ITI","","html-keyboard-response","115","552601","0.0-1.0-153.0","0","0","47944","","null","","","null","16","","","","","","","","","","","","","","","NaN",""
"","S1","","html-keyboard-response","116","552854","0.0-1.0-155.0","0","0","47944","","null","","","null","17","","","","","","","","","","","","","","","",""
"","ISI","","html-keyboard-response","117","554857","0.0-1.0-156.0","0","0","47944","","null","","","null","17","NaN","","","","","","","","","","","","","","",""
"","S2","","html-keyboard-response","118","555111","0.0-1.0-157.0","0","0","47944","","null","","","null","17","","NaN","","","","","","","","","","","","","",""
"","response","","html-keyboard-response","119","555705","0.0-1.0-158.0-0.0","0","0","47944","","592","","","68","17","","","1","17","training","adjacent","ED","5","4","P.jpg","O.jpg","1","0","0","",""
"","feedback","","html-keyboard-response","120","556708","0.0-1.0-159.0-0.0","0","0","47944","","null","","","null","17","","","","","","","","","","","","","","","",""
"","time_out","","html-keyboard-response","121","558712","0.0-1.0-161.0-0.0","0","0","47944","","null","","","null","17","","","","","","","","","","","","","","","",""
"","ITI","","html-keyboard-response","122","559715","0.0-1.0-162.0","0","0","47944","","null","","","null","17","","","","","","","","","","","","","","","NaN",""
"","S1","","html-keyboard-response","123","559969","0.0-1.0-164.0","0","0","47944","","null","","","null","18","","","","","","","","","","","","","","","",""
"","ISI","","html-keyboard-response","124","561972","0.0-1.0-165.0","0","0","47944","","null","","","null","18","NaN","","","","","","","","","","","","","","",""
"","S2","","html-keyboard-response","125","562225","0.0-1.0-166.0","0","0","47944","","null","","","null","18","","NaN","","","","","","","","","","","","","",""
"","response","","html-keyboard-response","126","562938","0.0-1.0-167.0-0.0","0","0","47944","","712","","","75","18","","","1","18","training","adjacent","CD","3","4","Q.jpg","O.jpg","0","1","0","",""
"","feedback","","html-keyboard-response","127","563942","0.0-1.0-168.0-0.0","0","0","47944","","null","","","null","18","","","","","","","","","","","","","","","",""
"","time_out","","html-keyboard-response","128","565944","0.0-1.0-170.0-0.0","0","0","47944","","null","","","null","18","","","","","","","","","","","","","","","",""
"","ITI","","html-keyboard-response","129","566946","0.0-1.0-171.0","0","0","47944","","null","","","null","18","","","","","","","","","","","","","","","NaN",""
"","S1","","html-keyboard-response","130","567200","0.0-1.0-173.0","0","0","47944","","null","","","null","19","","","","","","","","","","","","","","","",""
"","ISI","","html-keyboard-response","131","569202","0.0-1.0-174.0","0","0","47944","","null","","","null","19","NaN","","","","","","","","","","","","","","",""
"","S2","","html-keyboard-response","132","569455","0.0-1.0-175.0","0","0","47944","","null","","","null","19","","NaN","","","","","","","","","","","","","",""
"","response","","html-keyboard-response","133","570085","0.0-1.0-176.0-0.0","0","0","47944","","627","","","68","19","","","1","19","training","adjacent","GF","7","6","R.jpg","M.jpg","1","0","0","",""
"","feedback","","html-keyboard-response","134","571087","0.0-1.0-177.0-0.0","0","0","47944","","null","","","null","19","","","","","","","","","","","","","","","",""
"","time_out","","html-keyboard-response","135","573090","0.0-1.0-179.0-0.0","0","0","47944","","null","","","null","19","","","","","","","","","","","","","","","",""
"","ITI","","html-keyboard-response","136","574094","0.0-1.0-180.0","0","0","47944","","null","","","null","19","","","","","","","","","","","","","","","NaN",""
"","S1","","html-keyboard-response","137","574346","0.0-1.0-182.0","0","0","47944","","null","","","null","20","","","","","","","","","","","","","","","",""
"","ISI","","html-keyboard-response","138","576350","0.0-1.0-183.0","0","0","47944","","null","","","null","20","NaN","","","","","","","","","","","","","","",""
"","S2","","html-keyboard-response","139","576603","0.0-1.0-184.0","0","0","47944","","null","","","null","20","","NaN","","","","","","","","","","","","","",""
"","response","","html-keyboard-response","140","577223","0.0-1.0-185.0-0.0","0","0","47944","","619","","","75","20","","","1","20","training","adjacent","ED","5","4","P.jpg","O.jpg","0","0","1","",""
"","feedback","","html-keyboard-response","141","578226","0.0-1.0-186.0-0.0","0","0","47944","","null","","","null","20","","","","","","","","","","","","","","","",""
"","ITI","","html-keyboard-response","142","579229","0.0-1.0-189.0","0","0","47944","","null","","","null","20","","","","","","","","","","","","","","","NaN",""
"","S1","","html-keyboard-response","143","579488","0.0-1.0-191.0","0","0","47944","","null","","","null","21","","","","","","","","","","","","","","","",""
"","ISI","","html-keyboard-response","144","581491","0.0-1.0-192.0","0","0","47944","","null","","","null","21","NaN","","","","","","","","","","","","","","",""
"","S2","","html-keyboard-response","145","581744","0.0-1.0-193.0","0","0","47944","","null","","","null","21","","NaN","","","","","","","","","","","","","",""
"","response","","html-keyboard-response","146","582385","0.0-1.0-194.0-0.0","0","0","47944","","639","","","68","21","","","1","21","training","adjacent","AB","1","2","N.jpg","L.jpg","1","1","1","",""
"","feedback","","html-keyboard-response","147","583388","0.0-1.0-195.0-0.0","0","0","47944","","null","","","null","21","","","","","","","","","","","","","","","",""
"","ITI","","html-keyboard-response","148","584390","0.0-1.0-198.0","0","0","47944","","null","","","null","21","","","","","","","","","","","","","","","NaN",""
"","S1","","html-keyboard-response","149","584644","0.0-1.0-200.0","0","0","47944","","null","","","null","22","","","","","","","","","","","","","","","",""
"","ISI","","html-keyboard-response","150","586647","0.0-1.0-201.0","0","0","47944","","null","","","null","22","NaN","","","","","","","","","","","","","","",""
"","S2","","html-keyboard-response","151","586901","0.0-1.0-202.0","0","0","47944","","null","","","null","22","","NaN","","","","","","","","","","","","","",""
"","response","","html-keyboard-response","152","587983","0.0-1.0-203.0-0.0","0","0","47944","","1080","","","75","22","","","1","22","training","adjacent","FE","6","5","M.jpg","P.jpg","0","0","1","",""
"","feedback","","html-keyboard-response","153","588985","0.0-1.0-204.0-0.0","0","0","47944","","null","","","null","22","","","","","","","","","","","","","","","",""
"","ITI","","html-keyboard-response","154","589988","0.0-1.0-207.0","0","0","47944","","null","","","null","22","","","","","","","","","","","","","","","NaN",""
"","S1","","html-keyboard-response","155","590241","0.0-1.0-209.0","0","0","47944","","null","","","null","23","","","","","","","","","","","","","","","",""
"","ISI","","html-keyboard-response","156","592243","0.0-1.0-210.0","0","0","47944","","null","","","null","23","NaN","","","","","","","","","","","","","","",""
"","S2","","html-keyboard-response","157","592497","0.0-1.0-211.0","0","0","47944","","null","","","null","23","","NaN","","","","","","","","","","","","","",""
"","response","","html-keyboard-response","158","593205","0.0-1.0-212.0-0.0","0","0","47944","","705","","","68","23","","","1","23","training","adjacent","CB","3","2","Q.jpg","L.jpg","1","0","0","",""
"","feedback","","html-keyboard-response","159","594208","0.0-1.0-213.0-0.0","0","0","47944","","null","","","null","23","","","","","","","","","","","","","","","",""
"","time_out","","html-keyboard-response","160","596210","0.0-1.0-215.0-0.0","0","0","47944","","null","","","null","23","","","","","","","","","","","","","","","",""
"","ITI","","html-keyboard-response","161","597212","0.0-1.0-216.0","0","0","47944","","null","","","null","23","","","","","","","","","","","","","","","NaN",""
"","S1","","html-keyboard-response","162","597465","0.0-1.0-218.0","0","0","47944","","null","","","null","24","","","","","","","","","","","","","","","",""
"","ISI","","html-keyboard-response","163","599468","0.0-1.0-219.0","0","0","47944","","1106","","","75","24","k","","","","","","","","","","","","","","",""
"","S2","","html-keyboard-response","164","599721","0.0-1.0-220.0","0","0","47944","","null","","","null","24","","NaN","","","","","","","","","","","","","",""
"","response","","html-keyboard-response","165","600293","0.0-1.0-221.0-0.0","0","0","47944","","571","","","75","24","","","1","24","training","adjacent","GF","7","6","R.jpg","M.jpg","0","0","1","",""
"","feedback","","html-keyboard-response","166","601296","0.0-1.0-222.0-0.0","0","0","47944","","null","","","null","24","","","","","","","","","","","","","","","",""
"","ITI","","html-keyboard-response","167","602299","0.0-1.0-225.0","0","0","47944","","null","","","null","24","","","","","","","","","","","","","","","NaN",""
"","S1","","html-keyboard-response","168","602552","0.0-1.0-227.0","0","0","47944","","null","","","null","25","","","","","","","","","","","","","","","",""
"","ISI","","html-keyboard-response","169","604555","0.0-1.0-228.0","0","0","47944","","null","","","null","25","NaN","","","","","","","","","","","","","","",""
"","S2","","html-keyboard-response","170","604808","0.0-1.0-229.0","0","0","47944","","null","","","null","25","","NaN","","","","","","","","","","","","","",""
"","response","","html-keyboard-response","171","605774","0.0-1.0-230.0-0.0","0","0","47944","","963","","","68","25","","","1","25","training","adjacent","GF","7","6","R.jpg","M.jpg","1","0","0","",""
"","feedback","","html-keyboard-response","172","606777","0.0-1.0-231.0-0.0","0","0","47944","","null","","","null","25","","","","","","","","","","","","","","","",""
"","time_out","","html-keyboard-response","173","608781","0.0-1.0-233.0-0.0","0","0","47944","","null","","","null","25","","","","","","","","","","","","","","","",""
"","ITI","","html-keyboard-response","174","609784","0.0-1.0-234.0","0","0","47944","","null","","","null","25","","","","","","","","","","","","","","","NaN",""
"","S1","","html-keyboard-response","175","610038","0.0-1.0-236.0","0","0","47944","","null","","","null","26","","","","","","","","","","","","","","","",""
"","ISI","","html-keyboard-response","176","612040","0.0-1.0-237.0","0","0","47944","","null","","","null","26","NaN","","","","","","","","","","","","","","",""
"","S2","","html-keyboard-response","177","612294","0.0-1.0-238.0","0","0","47944","","null","","","null","26","","NaN","","","","","","","","","","","","","",""
"","response","","html-keyboard-response","178","613163","0.0-1.0-239.0-0.0","0","0","47944","","867","","","75","26","","","1","26","training","adjacent","DE","4","5","O.jpg","P.jpg","0","1","0","",""
"","feedback","","html-keyboard-response","179","614167","0.0-1.0-240.0-0.0","0","0","47944","","null","","","null","26","","","","","","","","","","","","","","","",""
"","time_out","","html-keyboard-response","180","616169","0.0-1.0-242.0-0.0","0","0","47944","","null","","","null","26","","","","","","","","","","","","","","","",""
"","ITI","","html-keyboard-response","181","617172","0.0-1.0-243.0","0","0","47944","","null","","","null","26","","","","","","","","","","","","","","","NaN",""
"","S1","","html-keyboard-response","182","617424","0.0-1.0-245.0","0","0","47944","","null","","","null","27","","","","","","","","","","","","","","","",""
"","ISI","","html-keyboard-response","183","619428","0.0-1.0-246.0","0","0","47944","","null","","","null","27","NaN","","","","","","","","","","","","","","",""
"","S2","","html-keyboard-response","184","619681","0.0-1.0-247.0","0","0","47944","","null","","","null","27","","NaN","","","","","","","","","","","","","",""
"","response","","html-keyboard-response","185","620685","0.0-1.0-248.0-0.0","0","0","47944","","1002","","","68","27","","","1","27","training","adjacent","BC","2","3","L.jpg","Q.jpg","1","1","1","",""
"","feedback","","html-keyboard-response","186","621689","0.0-1.0-249.0-0.0","0","0","47944","","null","","","null","27","","","","","","","","","","","","","","","",""
"","ITI","","html-keyboard-response","187","622693","0.0-1.0-252.0","0","0","47944","","null","","","null","27","","","","","","","","","","","","","","","NaN",""
"","S1","","html-keyboard-response","188","622945","0.0-1.0-254.0","0","0","47944","","null","","","null","28","","","","","","","","","","","","","","","",""
"","ISI","","html-keyboard-response","189","624948","0.0-1.0-255.0","0","0","47944","","null","","","null","28","NaN","","","","","","","","","","","","","","",""
"","S2","","html-keyboard-response","190","625201","0.0-1.0-256.0","0","0","47944","","null","","","null","28","","NaN","","","","","","","","","","","","","",""
"","response","","html-keyboard-response","191","626153","0.0-1.0-257.0-0.0","0","0","47944","","951","","","68","28","","","1","28","training","adjacent","DE","4","5","O.jpg","P.jpg","1","1","1","",""
"","feedback","","html-keyboard-response","192","627156","0.0-1.0-258.0-0.0","0","0","47944","","null","","","null","28","","","","","","","","","","","","","","","",""
"","ITI","","html-keyboard-response","193","628158","0.0-1.0-261.0","0","0","47944","","null","","","null","28","","","","","","","","","","","","","","","NaN",""
"","S1","","html-keyboard-response","194","628411","0.0-1.0-263.0","0","0","47944","","null","","","null","29","","","","","","","","","","","","","","","",""
"","ISI","","html-keyboard-response","195","630414","0.0-1.0-264.0","0","0","47944","","null","","","null","29","NaN","","","","","","","","","","","","","","",""
"","S2","","html-keyboard-response","196","630668","0.0-1.0-265.0","0","0","47944","","null","","","null","29","","NaN","","","","","","","","","","","","","",""
"","response","","html-keyboard-response","197","631695","0.0-1.0-266.0-0.0","0","0","47944","","1025","","","68","29","","","1","29","training","adjacent","GF","7","6","R.jpg","M.jpg","1","0","0","",""
"","feedback","","html-keyboard-response","198","632699","0.0-1.0-267.0-0.0","0","0","47944","","null","","","null","29","","","","","","","","","","","","","","","",""
"","time_out","","html-keyboard-response","199","634703","0.0-1.0-269.0-0.0","0","0","47944","","null","","","null","29","","","","","","","","","","","","","","","",""
"","ITI","","html-keyboard-response","200","635705","0.0-1.0-270.0","0","0","47944","","null","","","null","29","","","","","","","","","","","","","","","NaN",""
"","S1","","html-keyboard-response","201","635958","0.0-1.0-272.0","0","0","47944","","null","","","null","30","","","","","","","","","","","","","","","",""
"","ISI","","html-keyboard-response","202","637961","0.0-1.0-273.0","0","0","47944","","null","","","null","30","NaN","","","","","","","","","","","","","","",""
"","S2","","html-keyboard-response","203","638213","0.0-1.0-274.0","0","0","47944","","null","","","null","30","","NaN","","","","","","","","","","","","","",""
"","response","","html-keyboard-response","204","639043","0.0-1.0-275.0-0.0","0","0","47944","","828","","","75","30","","","1","30","training","adjacent","AB","1","2","N.jpg","L.jpg","0","1","0","",""
"","feedback","","html-keyboard-response","205","640047","0.0-1.0-276.0-0.0","0","0","47944","","null","","","null","30","","","","","","","","","","","","","","","",""
"","time_out","","html-keyboard-response","206","642049","0.0-1.0-278.0-0.0","0","0","47944","","null","","","null","30","","","","","","","","","","","","","","","",""
"","ITI","","html-keyboard-response","207","643051","0.0-1.0-279.0","0","0","47944","","null","","","null","30","","","","","","","","","","","","","","","NaN",""
"","S1","","html-keyboard-response","208","643305","0.0-1.0-281.0","0","0","47944","","null","","","null","31","","","","","","","","","","","","","","","",""
"","ISI","","html-keyboard-response","209","645308","0.0-1.0-282.0","0","0","47944","","null","","","null","31","NaN","","","","","","","","","","","","","","",""
"","S2","","html-keyboard-response","210","645562","0.0-1.0-283.0","0","0","47944","","null","","","null","31","","NaN","","","","","","","","","","","","","",""
"","response","","html-keyboard-response","211","646366","0.0-1.0-284.0-0.0","0","0","47944","","802","","","68","31","","","1","31","training","adjacent","ED","5","4","P.jpg","O.jpg","1","0","0","",""
"","feedback","","html-keyboard-response","212","647369","0.0-1.0-285.0-0.0","0","0","47944","","null","","","null","31","","","","","","","","","","","","","","","",""
"","time_out","","html-keyboard-response","213","649372","0.0-1.0-287.0-0.0","0","0","47944","","null","","","null","31","","","","","","","","","","","","","","","",""
"","ITI","","html-keyboard-response","214","650374","0.0-1.0-288.0","0","0","47944","","null","","","null","31","","","","","","","","","","","","","","","NaN",""
"","S1","","html-keyboard-response","215","650628","0.0-1.0-290.0","0","0","47944","","null","","","null","32","","","","","","","","","","","","","","","",""
"","ISI","","html-keyboard-response","216","652629","0.0-1.0-291.0","0","0","47944","","null","","","null","32","NaN","","","","","","","","","","","","","","",""
"","S2","","html-keyboard-response","217","652883","0.0-1.0-292.0","0","0","47944","","null","","","null","32","","NaN","","","","","","","","","","","","","",""
"","response","","html-keyboard-response","218","653923","0.0-1.0-293.0-0.0","0","0","47944","","1039","","","75","32","","","1","32","training","adjacent","BA","2","1","L.jpg","N.jpg","0","0","1","",""
"","feedback","","html-keyboard-response","219","654933","0.0-1.0-294.0-0.0","0","0","47944","","null","","","null","32","","","","","","","","","","","","","","","",""
"","ITI","","html-keyboard-response","220","655936","0.0-1.0-297.0","0","0","47944","","null","","","null","32","","","","","","","","","","","","","","","NaN",""
"","S1","","html-keyboard-response","221","656188","0.0-1.0-299.0","0","0","47944","","null","","","null","33","","","","","","","","","","","","","","","",""
"","ISI","","html-keyboard-response","222","658191","0.0-1.0-300.0","0","0","47944","","null","","","null","33","NaN","","","","","","","","","","","","","","",""
"","S2","","html-keyboard-response","223","658444","0.0-1.0-301.0","0","0","47944","","null","","","null","33","","NaN","","","","","","","","","","","","","",""
"","response","","html-keyboard-response","224","659146","0.0-1.0-302.0-0.0","0","0","47944","","700","","","75","33","","","1","33","training","adjacent","BA","2","1","L.jpg","N.jpg","0","0","1","",""
"","feedback","","html-keyboard-response","225","660149","0.0-1.0-303.0-0.0","0","0","47944","","null","","","null","33","","","","","","","","","","","","","","","",""
"","ITI","","html-keyboard-response","226","661153","0.0-1.0-306.0","0","0","47944","","null","","","null","33","","","","","","","","","","","","","","","NaN",""
"","S1","","html-keyboard-response","227","661406","0.0-1.0-308.0","0","0","47944","","null","","","null","34","","","","","","","","","","","","","","","",""
"","ISI","","html-keyboard-response","228","663408","0.0-1.0-309.0","0","0","47944","","null","","","null","34","NaN","","","","","","","","","","","","","","",""
"","S2","","html-keyboard-response","229","663662","0.0-1.0-310.0","0","0","47944","","null","","","null","34","","NaN","","","","","","","","","","","","","",""
"","response","","html-keyboard-response","230","664704","0.0-1.0-311.0-0.0","0","0","47944","","1040","","","75","34","","","1","34","training","adjacent","BC","2","3","L.jpg","Q.jpg","0","1","0","",""
"","feedback","","html-keyboard-response","231","665708","0.0-1.0-312.0-0.0","0","0","47944","","null","","","null","34","","","","","","","","","","","","","","","",""
"","time_out","","html-keyboard-response","232","667712","0.0-1.0-314.0-0.0","0","0","47944","","null","","","null","34","","","","","","","","","","","","","","","",""
"","ITI","","html-keyboard-response","233","668715","0.0-1.0-315.0","0","0","47944","","null","","","null","34","","","","","","","","","","","","","","","NaN",""
"","S1","","html-keyboard-response","234","668968","0.0-1.0-317.0","0","0","47944","","null","","","null","35","","","","","","","","","","","","","","","",""
"","ISI","","html-keyboard-response","235","670971","0.0-1.0-318.0","0","0","47944","","null","","","null","35","NaN","","","","","","","","","","","","","","",""
"","S2","","html-keyboard-response","236","671224","0.0-1.0-319.0","0","0","47944","","null","","","null","35","","NaN","","","","","","","","","","","","","",""
"","response","","html-keyboard-response","237","672215","0.0-1.0-320.0-0.0","0","0","47944","","989","","","68","35","","","1","35","training","adjacent","ED","5","4","P.jpg","O.jpg","1","0","0","",""
"","feedback","","html-keyboard-response","238","673220","0.0-1.0-321.0-0.0","0","0","47944","","null","","","null","35","","","","","","","","","","","","","","","",""
"","time_out","","html-keyboard-response","239","675222","0.0-1.0-323.0-0.0","0","0","47944","","null","","","null","35","","","","","","","","","","","","","","","",""
"","ITI","","html-keyboard-response","240","676225","0.0-1.0-324.0","0","0","47944","","null","","","null","35","","","","","","","","","","","","","","","NaN",""
"","S1","","html-keyboard-response","241","676479","0.0-1.0-326.0","0","0","47944","","null","","","null","36","","","","","","","","","","","","","","","",""
"","ISI","","html-keyboard-response","242","678482","0.0-1.0-327.0","0","0","47944","","null","","","null","36","NaN","","","","","","","","","","","","","","",""
"","S2","","html-keyboard-response","243","678735","0.0-1.0-328.0","0","0","47944","","null","","","null","36","","NaN","","","","","","","","","","","","","",""
"","response","","html-keyboard-response","244","679713","0.0-1.0-329.0-0.0","0","0","47944","","977","","","75","36","","","1","36","training","adjacent","BC","2","3","L.jpg","Q.jpg","0","1","0","",""
"","feedback","","html-keyboard-response","245","680716","0.0-1.0-330.0-0.0","0","0","47944","","null","","","null","36","","","","","","","","","","","","","","","",""
"","time_out","","html-keyboard-response","246","682718","0.0-1.0-332.0-0.0","0","0","47944","","null","","","null","36","","","","","","","","","","","","","","","",""
"","ITI","","html-keyboard-response","247","683720","0.0-1.0-333.0","0","0","47944","","null","","","null","36","","","","","","","","","","","","","","","NaN",""
"","S1","","html-keyboard-response","248","683973","0.0-1.0-335.0","0","0","47944","","null","","","null","37","","","","","","","","","","","","","","","",""
"","ISI","","html-keyboard-response","249","685976","0.0-1.0-336.0","0","0","47944","","null","","","null","37","NaN","","","","","","","","","","","","","","",""
"","S2","","html-keyboard-response","250","686230","0.0-1.0-337.0","0","0","47944","","null","","","null","37","","NaN","","","","","","","","","","","","","",""
"","response","","html-keyboard-response","251","687176","0.0-1.0-338.0-0.0","0","0","47944","","944","","","68","37","","","1","37","training","adjacent","CB","3","2","Q.jpg","L.jpg","1","0","0","",""
"","feedback","","html-keyboard-response","252","688179","0.0-1.0-339.0-0.0","0","0","47944","","null","","","null","37","","","","","","","","","","","","","","","",""
"","time_out","","html-keyboard-response","253","690181","0.0-1.0-341.0-0.0","0","0","47944","","null","","","null","37","","","","","","","","","","","","","","","",""
"","ITI","","html-keyboard-response","254","691183","0.0-1.0-342.0","0","0","47944","","null","","","null","37","","","","","","","","","","","","","","","NaN",""
"","S1","","html-keyboard-response","255","691436","0.0-1.0-344.0","0","0","47944","","null","","","null","38","","","","","","","","","","","","","","","",""
"","ISI","","html-keyboard-response","256","693438","0.0-1.0-345.0","0","0","47944","","null","","","null","38","NaN","","","","","","","","","","","","","","",""
"","S2","","html-keyboard-response","257","693693","0.0-1.0-346.0","0","0","47944","","null","","","null","38","","NaN","","","","","","","","","","","","","",""
"","response","","html-keyboard-response","258","694653","0.0-1.0-347.0-0.0","0","0","47944","","958","","","75","38","","","1","38","training","adjacent","DC","4","3","O.jpg","Q.jpg","0","0","1","",""
"","feedback","","html-keyboard-response","259","695657","0.0-1.0-348.0-0.0","0","0","47944","","null","","","null","38","","","","","","","","","","","","","","","",""
"","ITI","","html-keyboard-response","260","696660","0.0-1.0-351.0","0","0","47944","","null","","","null","38","","","","","","","","","","","","","","","NaN",""
"","S1","","html-keyboard-response","261","696912","0.0-1.0-353.0","0","0","47944","","null","","","null","39","","","","","","","","","","","","","","","",""
"","ISI","","html-keyboard-response","262","698928","0.0-1.0-354.0","0","0","47944","","null","","","null","39","NaN","","","","","","","","","","","","","","",""
"","S2","","html-keyboard-response","263","699182","0.0-1.0-355.0","0","0","47944","","null","","","null","39","","NaN","","","","","","","","","","","","","",""
"","response","","html-keyboard-response","264","700114","0.0-1.0-356.0-0.0","0","0","47944","","930","","","68","39","","","1","39","training","adjacent","EF","5","6","P.jpg","M.jpg","1","1","1","",""
"","feedback","","html-keyboard-response","265","701116","0.0-1.0-357.0-0.0","0","0","47944","","null","","","null","39","","","","","","","","","","","","","","","",""
"","ITI","","html-keyboard-response","266","702120","0.0-1.0-360.0","0","0","47944","","null","","","null","39","","","","","","","","","","","","","","","NaN",""
"","S1","","html-keyboard-response","267","702373","0.0-1.0-362.0","0","0","47944","","null","","","null","40","","","","","","","","","","","","","","","",""
"","ISI","","html-keyboard-response","268","704376","0.0-1.0-363.0","0","0","47944","","null","","","null","40","NaN","","","","","","","","","","","","","","",""
"","S2","","html-keyboard-response","269","704629","0.0-1.0-364.0","0","0","47944","","null","","","null","40","","NaN","","","","","","","","","","","","","",""
"","response","","html-keyboard-response","270","705604","0.0-1.0-365.0-0.0","0","0","47944","","972","","","68","40","","","1","40","training","adjacent","CD","3","4","Q.jpg","O.jpg","1","1","1","",""
"","feedback","","html-keyboard-response","271","706607","0.0-1.0-366.0-0.0","0","0","47944","","null","","","null","40","","","","","","","","","","","","","","","",""
"","ITI","","html-keyboard-response","272","707609","0.0-1.0-369.0","0","0","47944","","null","","","null","40","","","","","","","","","","","","","","","NaN",""
"","S1","","html-keyboard-response","273","707862","0.0-1.0-371.0","0","0","47944","","null","","","null","41","","","","","","","","","","","","","","","",""
"","ISI","","html-keyboard-response","274","709864","0.0-1.0-372.0","0","0","47944","","null","","","null","41","NaN","","","","","","","","","","","","","","",""
"","S2","","html-keyboard-response","275","710117","0.0-1.0-373.0","0","0","47944","","null","","","null","41","","NaN","","","","","","","","","","","","","",""
"","response","","html-keyboard-response","276","711126","0.0-1.0-374.0-0.0","0","0","47944","","1006","","","75","41","","","1","41","training","adjacent","EF","5","6","P.jpg","M.jpg","0","1","0","",""
"","feedback","","html-keyboard-response","277","712129","0.0-1.0-375.0-0.0","0","0","47944","","null","","","null","41","","","","","","","","","","","","","","","",""
"","time_out","","html-keyboard-response","278","714132","0.0-1.0-377.0-0.0","0","0","47944","","null","","","null","41","","","","","","","","","","","","","","","",""
"","ITI","","html-keyboard-response","279","715134","0.0-1.0-378.0","0","0","47944","","null","","","null","41","","","","","","","","","","","","","","","NaN",""
"","S1","","html-keyboard-response","280","715387","0.0-1.0-380.0","0","0","47944","","null","","","null","42","","","","","","","","","","","","","","","",""
"","ISI","","html-keyboard-response","281","717390","0.0-1.0-381.0","0","0","47944","","null","","","null","42","NaN","","","","","","","","","","","","","","",""
"","S2","","html-keyboard-response","282","717644","0.0-1.0-382.0","0","0","47944","","null","","","null","42","","NaN","","","","","","","","","","","","","",""
"","response","","html-keyboard-response","283","719253","0.0-1.0-383.0-0.0","0","0","47944","","1607","","","75","42","","","1","42","training","adjacent","DC","4","3","O.jpg","Q.jpg","0","0","1","",""
"","feedback","","html-keyboard-response","284","720256","0.0-1.0-384.0-0.0","0","0","47944","","null","","","null","42","","","","","","","","","","","","","","","",""
"","ITI","","html-keyboard-response","285","721260","0.0-1.0-387.0","0","0","47944","","null","","","null","42","","","","","","","","","","","","","","","NaN",""
"","S1","","html-keyboard-response","286","721512","0.0-1.0-389.0","0","0","47944","","null","","","null","43","","","","","","","","","","","","","","","",""
"","ISI","","html-keyboard-response","287","723514","0.0-1.0-390.0","0","0","47944","","null","","","null","43","NaN","","","","","","","","","","","","","","",""
"","S2","","html-keyboard-response","288","723767","0.0-1.0-391.0","0","0","47944","","null","","","null","43","","NaN","","","","","","","","","","","","","",""
"","response","","html-keyboard-response","289","724811","0.0-1.0-392.0-0.0","0","0","47944","","1041","","","68","43","","","1","43","training","adjacent","FG","6","7","M.jpg","R.jpg","1","1","1","",""
"","feedback","","html-keyboard-response","290","725814","0.0-1.0-393.0-0.0","0","0","47944","","null","","","null","43","","","","","","","","","","","","","","","",""
"","ITI","","html-keyboard-response","291","726818","0.0-1.0-396.0","0","0","47944","","null","","","null","43","","","","","","","","","","","","","","","NaN",""
"","S1","","html-keyboard-response","292","727071","0.0-1.0-398.0","0","0","47944","","null","","","null","44","","","","","","","","","","","","","","","",""
"","ISI","","html-keyboard-response","293","729074","0.0-1.0-399.0","0","0","47944","","null","","","null","44","NaN","","","","","","","","","","","","","","",""
"","S2","","html-keyboard-response","294","729328","0.0-1.0-400.0","0","0","47944","","null","","","null","44","","NaN","","","","","","","","","","","","","",""
"","response","","html-keyboard-response","295","730454","0.0-1.0-401.0-0.0","0","0","47944","","1124","","","75","44","","","1","44","training","adjacent","DC","4","3","O.jpg","Q.jpg","0","0","1","",""
"","feedback","","html-keyboard-response","296","731458","0.0-1.0-402.0-0.0","0","0","47944","","null","","","null","44","","","","","","","","","","","","","","","",""
"","ITI","","html-keyboard-response","297","732461","0.0-1.0-405.0","0","0","47944","","null","","","null","44","","","","","","","","","","","","","","","NaN",""
"","S1","","html-keyboard-response","298","732715","0.0-1.0-407.0","0","0","47944","","null","","","null","45","","","","","","","","","","","","","","","",""
"","ISI","","html-keyboard-response","299","734718","0.0-1.0-408.0","0","0","47944","","null","","","null","45","NaN","","","","","","","","","","","","","","",""
"","S2","","html-keyboard-response","300","734972","0.0-1.0-409.0","0","0","47944","","null","","","null","45","","NaN","","","","","","","","","","","","","",""
"","response","","html-keyboard-response","301","735746","0.0-1.0-410.0-0.0","0","0","47944","","772","","","75","45","","","1","45","training","adjacent","CD","3","4","Q.jpg","O.jpg","0","1","0","",""
"","feedback","","html-keyboard-response","302","736750","0.0-1.0-411.0-0.0","0","0","47944","","null","","","null","45","","","","","","","","","","","","","","","",""
"","time_out","","html-keyboard-response","303","738753","0.0-1.0-413.0-0.0","0","0","47944","","null","","","null","45","","","","","","","","","","","","","","","",""
"","ITI","","html-keyboard-response","304","739756","0.0-1.0-414.0","0","0","47944","","null","","","null","45","","","","","","","","","","","","","","","NaN",""
"","S1","","html-keyboard-response","305","740009","0.0-1.0-416.0","0","0","47944","","null","","","null","46","","","","","","","","","","","","","","","",""
"","ISI","","html-keyboard-response","306","742012","0.0-1.0-417.0","0","0","47944","","904","","","75","46","k","","","","","","","","","","","","","","",""
"","S2","","html-keyboard-response","307","742266","0.0-1.0-418.0","0","0","47944","","null","","","null","46","","NaN","","","","","","","","","","","","","",""
"","response","","html-keyboard-response","308","743604","0.0-1.0-419.0-0.0","0","0","47944","","1335","","","75","46","","","1","46","training","adjacent","BA","2","1","L.jpg","N.jpg","0","0","1","",""
"","feedback","","html-keyboard-response","309","744608","0.0-1.0-420.0-0.0","0","0","47944","","null","","","null","46","","","","","","","","","","","","","","","",""
"","ITI","","html-keyboard-response","310","745611","0.0-1.0-423.0","0","0","47944","","null","","","null","46","","","","","","","","","","","","","","","NaN",""
"","S1","","html-keyboard-response","311","745863","0.0-1.0-425.0","0","0","47944","","null","","","null","47","","","","","","","","","","","","","","","",""
"","ISI","","html-keyboard-response","312","747865","0.0-1.0-426.0","0","0","47944","","null","","","null","47","NaN","","","","","","","","","","","","","","",""
"","S2","","html-keyboard-response","313","748119","0.0-1.0-427.0","0","0","47944","","null","","","null","47","","NaN","","","","","","","","","","","","","",""
"","response","","html-keyboard-response","314","749326","0.0-1.0-428.0-0.0","0","0","47944","","1204","","","75","47","","","1","47","training","adjacent","EF","5","6","P.jpg","M.jpg","0","1","0","",""
"","feedback","","html-keyboard-response","315","750329","0.0-1.0-429.0-0.0","0","0","47944","","null","","","null","47","","","","","","","","","","","","","","","",""
"","time_out","","html-keyboard-response","316","752331","0.0-1.0-431.0-0.0","0","0","47944","","null","","","null","47","","","","","","","","","","","","","","","",""
"","ITI","","html-keyboard-response","317","753334","0.0-1.0-432.0","0","0","47944","","null","","","null","47","","","","","","","","","","","","","","","NaN",""
"","block_over","","html-keyboard-response","318","807324","0.0-1.0-433.0-0.0","0","0","47944","","53989","","","32","47","","","","","","","","","","","","","","","",""
"","S1","","html-keyboard-response","319","807578","0.0-1.0-434.0","0","0","47944","","null","","","null","48","","","","","","","","","","","","","","","",""
"","ISI","","html-keyboard-response","320","809587","0.0-1.0-435.0","0","0","47944","","null","","","null","48","NaN","","","","","","","","","","","","","","",""
"","S2","","html-keyboard-response","321","809839","0.0-1.0-436.0","0","0","47944","","null","","","null","48","","NaN","","","","","","","","","","","","","",""
"","response","","html-keyboard-response","322","811102","0.0-1.0-437.0-0.0","0","0","47944","","1261","","","75","48","","","2","48","training","adjacent","CB","3","2","Q.jpg","L.jpg","0","0","1","",""
"","feedback","","html-keyboard-response","323","812105","0.0-1.0-438.0-0.0","0","0","47944","","null","","","null","48","","","","","","","","","","","","","","","",""
"","ITI","","html-keyboard-response","324","813109","0.0-1.0-441.0","0","0","47944","","null","","","null","48","","","","","","","","","","","","","","","NaN",""
"","S1","","html-keyboard-response","325","813361","0.0-1.0-443.0","0","0","47944","","null","","","null","49","","","","","","","","","","","","","","","",""
"","ISI","","html-keyboard-response","326","815363","0.0-1.0-444.0","0","0","47944","","null","","","null","49","NaN","","","","","","","","","","","","","","",""
"","S2","","html-keyboard-response","327","815617","0.0-1.0-445.0","0","0","47944","","null","","","null","49","","NaN","","","","","","","","","","","","","",""
"","response","","html-keyboard-response","328","816723","0.0-1.0-446.0-0.0","0","0","47944","","1104","","","68","49","","","2","49","training","adjacent","DE","4","5","O.jpg","P.jpg","1","1","1","",""
"","feedback","","html-keyboard-response","329","817726","0.0-1.0-447.0-0.0","0","0","47944","","null","","","null","49","","","","","","","","","","","","","","","",""
"","ITI","","html-keyboard-response","330","818728","0.0-1.0-450.0","0","0","47944","","null","","","null","49","","","","","","","","","","","","","","","NaN",""
"","S1","","html-keyboard-response","331","818980","0.0-1.0-452.0","0","0","47944","","null","","","null","50","","","","","","","","","","","","","","","",""
"","ISI","","html-keyboard-response","332","820983","0.0-1.0-453.0","0","0","47944","","null","","","null","50","NaN","","","","","","","","","","","","","","",""
"","S2","","html-keyboard-response","333","821236","0.0-1.0-454.0","0","0","47944","","null","","","null","50","","NaN","","","","","","","","","","","","","",""
"","response","","html-keyboard-response","334","822125","0.0-1.0-455.0-0.0","0","0","47944","","886","","","68","50","","","2","50","training","adjacent","EF","5","6","P.jpg","M.jpg","1","1","1","",""
"","feedback","","html-keyboard-response","335","823128","0.0-1.0-456.0-0.0","0","0","47944","","null","","","null","50","","","","","","","","","","","","","","","",""
"","ITI","","html-keyboard-response","336","824131","0.0-1.0-459.0","0","0","47944","","null","","","null","50","","","","","","","","","","","","","","","NaN",""
"","S1","","html-keyboard-response","337","824384","0.0-1.0-461.0","0","0","47944","","null","","","null","51","","","","","","","","","","","","","","","",""
"","ISI","","html-keyboard-response","338","826387","0.0-1.0-462.0","0","0","47944","","null","","","null","51","NaN","","","","","","","","","","","","","","",""
"","S2","","html-keyboard-response","339","826639","0.0-1.0-463.0","0","0","47944","","null","","","null","51","","NaN","","","","","","","","","","","","","",""
"","response","","html-keyboard-response","340","827647","0.0-1.0-464.0-0.0","0","0","47944","","1006","","","68","51","","","2","51","training","adjacent","GF","7","6","R.jpg","M.jpg","1","0","0","",""
"","feedback","","html-keyboard-response","341","828651","0.0-1.0-465.0-0.0","0","0","47944","","null","","","null","51","","","","","","","","","","","","","","","",""
"","time_out","","html-keyboard-response","342","830653","0.0-1.0-467.0-0.0","0","0","47944","","null","","","null","51","","","","","","","","","","","","","","","",""
"","ITI","","html-keyboard-response","343","831655","0.0-1.0-468.0","0","0","47944","","null","","","null","51","","","","","","","","","","","","","","","NaN",""
"","S1","","html-keyboard-response","344","831908","0.0-1.0-470.0","0","0","47944","","null","","","null","52","","","","","","","","","","","","","","","",""
"","ISI","","html-keyboard-response","345","833909","0.0-1.0-471.0","0","0","47944","","null","","","null","52","NaN","","","","","","","","","","","","","","",""
"","S2","","html-keyboard-response","346","834162","0.0-1.0-472.0","0","0","47944","","null","","","null","52","","NaN","","","","","","","","","","","","","",""
"","response","","html-keyboard-response","347","835436","0.0-1.0-473.0-0.0","0","0","47944","","1272","","","75","52","","","2","52","training","adjacent","BC","2","3","L.jpg","Q.jpg","0","1","0","",""
"","feedback","","html-keyboard-response","348","836439","0.0-1.0-474.0-0.0","0","0","47944","","null","","","null","52","","","","","","","","","","","","","","","",""
"","time_out","","html-keyboard-response","349","838442","0.0-1.0-476.0-0.0","0","0","47944","","null","","","null","52","","","","","","","","","","","","","","","",""
"","ITI","","html-keyboard-response","350","839445","0.0-1.0-477.0","0","0","47944","","null","","","null","52","","","","","","","","","","","","","","","NaN",""
"","S1","","html-keyboard-response","351","839698","0.0-1.0-479.0","0","0","47944","","null","","","null","53","","","","","","","","","","","","","","","",""
"","ISI","","html-keyboard-response","352","841700","0.0-1.0-480.0","0","0","47944","","null","","","null","53","NaN","","","","","","","","","","","","","","",""
"","S2","","html-keyboard-response","353","841954","0.0-1.0-481.0","0","0","47944","","null","","","null","53","","NaN","","","","","","","","","","","","","",""
"","response","","html-keyboard-response","354","842964","0.0-1.0-482.0-0.0","0","0","47944","","1009","","","68","53","","","2","53","training","adjacent","CB","3","2","Q.jpg","L.jpg","1","0","0","",""
"","feedback","","html-keyboard-response","355","843968","0.0-1.0-483.0-0.0","0","0","47944","","null","","","null","53","","","","","","","","","","","","","","","",""
"","time_out","","html-keyboard-response","356","845972","0.0-1.0-485.0-0.0","0","0","47944","","null","","","null","53","","","","","","","","","","","","","","","",""
"","ITI","","html-keyboard-response","357","846974","0.0-1.0-486.0","0","0","47944","","null","","","null","53","","","","","","","","","","","","","","","NaN",""
"","S1","","html-keyboard-response","358","847228","0.0-1.0-488.0","0","0","47944","","null","","","null","54","","","","","","","","","","","","","","","",""
"","ISI","","html-keyboard-response","359","849230","0.0-1.0-489.0","0","0","47944","","null","","","null","54","NaN","","","","","","","","","","","","","","",""
"","S2","","html-keyboard-response","360","849483","0.0-1.0-490.0","0","0","47944","","null","","","null","54","","NaN","","","","","","","","","","","","","",""
"","response","","html-keyboard-response","361","851126","0.0-1.0-491.0-0.0","0","0","47944","","1640","","","75","54","","","2","54","training","adjacent","EF","5","6","P.jpg","M.jpg","0","1","0","",""
"","feedback","","html-keyboard-response","362","852128","0.0-1.0-492.0-0.0","0","0","47944","","null","","","null","54","","","","","","","","","","","","","","","",""
"","time_out","","html-keyboard-response","363","854131","0.0-1.0-494.0-0.0","0","0","47944","","null","","","null","54","","","","","","","","","","","","","","","",""
"","ITI","","html-keyboard-response","364","855133","0.0-1.0-495.0","0","0","47944","","null","","","null","54","","","","","","","","","","","","","","","NaN",""
"","S1","","html-keyboard-response","365","855387","0.0-1.0-497.0","0","0","47944","","null","","","null","55","","","","","","","","","","","","","","","",""
"","ISI","","html-keyboard-response","366","857390","0.0-1.0-498.0","0","0","47944","","null","","","null","55","NaN","","","","","","","","","","","","","","",""
"","S2","","html-keyboard-response","367","857642","0.0-1.0-499.0","0","0","47944","","null","","","null","55","","NaN","","","","","","","","","","","","","",""
"","response","","html-keyboard-response","368","859034","0.0-1.0-500.0-0.0","0","0","47944","","1390","","","75","55","","","2","55","training","adjacent","FE","6","5","M.jpg","P.jpg","0","0","1","",""
"","feedback","","html-keyboard-response","369","860038","0.0-1.0-501.0-0.0","0","0","47944","","null","","","null","55","","","","","","","","","","","","","","","",""
"","ITI","","html-keyboard-response","370","861041","0.0-1.0-504.0","0","0","47944","","null","","","null","55","","","","","","","","","","","","","","","NaN",""
"","S1","","html-keyboard-response","371","861294","0.0-1.0-506.0","0","0","47944","","null","","","null","56","","","","","","","","","","","","","","","",""
"","ISI","","html-keyboard-response","372","863298","0.0-1.0-507.0","0","0","47944","","null","","","null","56","NaN","","","","","","","","","","","","","","",""
"","S2","","html-keyboard-response","373","863551","0.0-1.0-508.0","0","0","47944","","null","","","null","56","","NaN","","","","","","","","","","","","","",""
"","response","","html-keyboard-response","374","864877","0.0-1.0-509.0-0.0","0","0","47944","","1323","","","75","56","","","2","56","training","adjacent","BA","2","1","L.jpg","N.jpg","0","0","1","",""
"","feedback","","html-keyboard-response","375","865880","0.0-1.0-510.0-0.0","0","0","47944","","null","","","null","56","","","","","","","","","","","","","","","",""
"","ITI","","html-keyboard-response","376","866884","0.0-1.0-513.0","0","0","47944","","null","","","null","56","","","","","","","","","","","","","","","NaN",""
"","S1","","html-keyboard-response","377","867136","0.0-1.0-515.0","0","0","47944","","null","","","null","57","","","","","","","","","","","","","","","",""
"","ISI","","html-keyboard-response","378","869138","0.0-1.0-516.0","0","0","47944","","null","","","null","57","NaN","","","","","","","","","","","","","","",""
"","S2","","html-keyboard-response","379","869391","0.0-1.0-517.0","0","0","47944","","null","","","null","57","","NaN","","","","","","","","","","","","","",""
"","response","","html-keyboard-response","380","870483","0.0-1.0-518.0-0.0","0","0","47944","","1090","","","68","57","","","2","57","training","adjacent","AB","1","2","N.jpg","L.jpg","1","1","1","",""
"","feedback","","html-keyboard-response","381","871487","0.0-1.0-519.0-0.0","0","0","47944","","null","","","null","57","","","","","","","","","","","","","","","",""
"","ITI","","html-keyboard-response","382","872490","0.0-1.0-522.0","0","0","47944","","null","","","null","57","","","","","","","","","","","","","","","NaN",""
"","S1","","html-keyboard-response","383","872742","0.0-1.0-524.0","0","0","47944","","null","","","null","58","","","","","","","","","","","","","","","",""
"","ISI","","html-keyboard-response","384","874744","0.0-1.0-525.0","0","0","47944","","null","","","null","58","NaN","","","","","","","","","","","","","","",""
"","S2","","html-keyboard-response","385","875001","0.0-1.0-526.0","0","0","47944","","null","","","null","58","","NaN","","","","","","","","","","","","","",""
"","response","","html-keyboard-response","386","876315","0.0-1.0-527.0-0.0","0","0","47944","","1312","","","68","58","","","2","58","training","adjacent","EF","5","6","P.jpg","M.jpg","1","1","1","",""
"","feedback","","html-keyboard-response","387","877318","0.0-1.0-528.0-0.0","0","0","47944","","null","","","null","58","","","","","","","","","","","","","","","",""
"","ITI","","html-keyboard-response","388","878321","0.0-1.0-531.0","0","0","47944","","null","","","null","58","","","","","","","","","","","","","","","NaN",""
"","S1","","html-keyboard-response","389","878574","0.0-1.0-533.0","0","0","47944","","null","","","null","59","","","","","","","","","","","","","","","",""
"","ISI","","html-keyboard-response","390","880578","0.0-1.0-534.0","0","0","47944","","null","","","null","59","NaN","","","","","","","","","","","","","","",""
"","S2","","html-keyboard-response","391","880832","0.0-1.0-535.0","0","0","47944","","null","","","null","59","","NaN","","","","","","","","","","","","","",""
"","response","","html-keyboard-response","392","881882","0.0-1.0-536.0-0.0","0","0","47944","","1049","","","75","59","","","2","59","training","adjacent","EF","5","6","P.jpg","M.jpg","0","1","0","",""
"","feedback","","html-keyboard-response","393","882885","0.0-1.0-537.0-0.0","0","0","47944","","null","","","null","59","","","","","","","","","","","","","","","",""
"","time_out","","html-keyboard-response","394","884888","0.0-1.0-539.0-0.0","0","0","47944","","null","","","null","59","","","","","","","","","","","","","","","",""
"","ITI","","html-keyboard-response","395","885890","0.0-1.0-540.0","0","0","47944","","null","","","null","59","","","","","","","","","","","","","","","NaN",""
"","S1","","html-keyboard-response","396","886143","0.0-1.0-542.0","0","0","47944","","null","","","null","60","","","","","","","","","","","","","","","",""
"","ISI","","html-keyboard-response","397","888146","0.0-1.0-543.0","0","0","47944","","null","","","null","60","NaN","","","","","","","","","","","","","","",""
"","S2","","html-keyboard-response","398","888399","0.0-1.0-544.0","0","0","47944","","null","","","null","60","","NaN","","","","","","","","","","","","","",""
"","response","","html-keyboard-response","399","890099","0.0-1.0-545.0-0.0","0","0","47944","","1697","","","75","60","","","2","60","training","adjacent","CD","3","4","Q.jpg","O.jpg","0","1","0","",""
"","feedback","","html-keyboard-response","400","891102","0.0-1.0-546.0-0.0","0","0","47944","","null","","","null","60","","","","","","","","","","","","","","","",""
"","time_out","","html-keyboard-response","401","893104","0.0-1.0-548.0-0.0","0","0","47944","","null","","","null","60","","","","","","","","","","","","","","","",""
"","ITI","","html-keyboard-response","402","894108","0.0-1.0-549.0","0","0","47944","","null","","","null","60","","","","","","","","","","","","","","","NaN",""
"","S1","","html-keyboard-response","403","894361","0.0-1.0-551.0","0","0","47944","","null","","","null","61","","","","","","","","","","","","","","","",""
"","ISI","","html-keyboard-response","404","896364","0.0-1.0-552.0","0","0","47944","","null","","","null","61","NaN","","","","","","","","","","","","","","",""
"","S2","","html-keyboard-response","405","896617","0.0-1.0-553.0","0","0","47944","","null","","","null","61","","NaN","","","","","","","","","","","","","",""
"","response","","html-keyboard-response","406","897983","0.0-1.0-554.0-0.0","0","0","47944","","1364","","","68","61","","","2","61","training","adjacent","BC","2","3","L.jpg","Q.jpg","1","1","1","",""
"","feedback","","html-keyboard-response","407","898987","0.0-1.0-555.0-0.0","0","0","47944","","null","","","null","61","","","","","","","","","","","","","","","",""
"","ITI","","html-keyboard-response","408","899990","0.0-1.0-558.0","0","0","47944","","null","","","null","61","","","","","","","","","","","","","","","NaN",""
"","S1","","html-keyboard-response","409","900243","0.0-1.0-560.0","0","0","47944","","null","","","null","62","","","","","","","","","","","","","","","",""
"","ISI","","html-keyboard-response","410","902245","0.0-1.0-561.0","0","0","47944","","null","","","null","62","NaN","","","","","","","","","","","","","","",""
"","S2","","html-keyboard-response","411","902499","0.0-1.0-562.0","0","0","47944","","null","","","null","62","","NaN","","","","","","","","","","","","","",""
"","response","","html-keyboard-response","412","903566","0.0-1.0-563.0-0.0","0","0","47944","","1065","","","68","62","","","2","62","training","adjacent","DE","4","5","O.jpg","P.jpg","1","1","1","",""
"","feedback","","html-keyboard-response","413","904569","0.0-1.0-564.0-0.0","0","0","47944","","null","","","null","62","","","","","","","","","","","","","","","",""
"","ITI","","html-keyboard-response","414","905575","0.0-1.0-567.0","0","0","47944","","null","","","null","62","","","","","","","","","","","","","","","NaN",""
"","S1","","html-keyboard-response","415","905830","0.0-1.0-569.0","0","0","47944","","null","","","null","63","","","","","","","","","","","","","","","",""
"","ISI","","html-keyboard-response","416","907836","0.0-1.0-570.0","0","0","47944","","null","","","null","63","NaN","","","","","","","","","","","","","","",""
"","S2","","html-keyboard-response","417","908089","0.0-1.0-571.0","0","0","47944","","null","","","null","63","","NaN","","","","","","","","","","","","","",""
"","response","","html-keyboard-response","418","909823","0.0-1.0-572.0-0.0","0","0","47944","","1732","","","68","63","","","2","63","training","adjacent","GF","7","6","R.jpg","M.jpg","1","0","0","",""
"","feedback","","html-keyboard-response","419","910827","0.0-1.0-573.0-0.0","0","0","47944","","null","","","null","63","","","","","","","","","","","","","","","",""
"","time_out","","html-keyboard-response","420","912830","0.0-1.0-575.0-0.0","0","0","47944","","null","","","null","63","","","","","","","","","","","","","","","",""
"","ITI","","html-keyboard-response","421","913832","0.0-1.0-576.0","0","0","47944","","null","","","null","63","","","","","","","","","","","","","","","NaN",""
"","S1","","html-keyboard-response","422","914085","0.0-1.0-578.0","0","0","47944","","null","","","null","64","","","","","","","","","","","","","","","",""
"","ISI","","html-keyboard-response","423","916095","0.0-1.0-579.0","0","0","47944","","null","","","null","64","NaN","","","","","","","","","","","","","","",""
"","S2","","html-keyboard-response","424","916348","0.0-1.0-580.0","0","0","47944","","null","","","null","64","","NaN","","","","","","","","","","","","","",""
"","response","","html-keyboard-response","425","918101","0.0-1.0-581.0-0.0","0","0","47944","","null","","","null","64","","","2","64","training","adjacent","FG","6","7","M.jpg","R.jpg","NaN","1","0","",""
"","too_slow_prompt","","html-keyboard-response","426","919103","0.0-1.0-583.0-0.0","1","0","47944","","null","","","null","","","","","","","","","","","","","","","","",""
"","time_out","","html-keyboard-response","427","921106","0.0-1.0-584.0-0.0","0","0","47944","","null","","","null","64","","","","","","","","","","","","","","","",""
"","ITI","","html-keyboard-response","428","922109","0.0-1.0-585.0","0","0","47944","","null","","","null","64","","","","","","","","","","","","","","","NaN",""
"","S1","","html-keyboard-response","429","922362","0.0-1.0-587.0","0","0","47944","","null","","","null","65","","","","","","","","","","","","","","","",""
"","ISI","","html-keyboard-response","430","924364","0.0-1.0-588.0","0","0","47944","","null","","","null","65","NaN","","","","","","","","","","","","","","",""
"","S2","","html-keyboard-response","431","924618","0.0-1.0-589.0","0","0","47944","","null","","","null","65","","NaN","","","","","","","","","","","","","",""
"","response","","html-keyboard-response","432","925444","0.0-1.0-590.0-0.0","0","0","47944","","825","","","75","65","","","2","65","training","adjacent","AB","1","2","N.jpg","L.jpg","0","1","0","",""
"","feedback","","html-keyboard-response","433","926449","0.0-1.0-591.0-0.0","0","0","47944","","null","","","null","65","","","","","","","","","","","","","","","",""
"","time_out","","html-keyboard-response","434","928451","0.0-1.0-593.0-0.0","0","0","47944","","null","","","null","65","","","","","","","","","","","","","","","",""
"","ITI","","html-keyboard-response","435","929455","0.0-1.0-594.0","0","0","47944","","null","","","null","65","","","","","","","","","","","","","","","NaN",""
"","S1","","html-keyboard-response","436","929708","0.0-1.0-596.0","0","0","47944","","null","","","null","66","","","","","","","","","","","","","","","",""
"","ISI","","html-keyboard-response","437","931711","0.0-1.0-597.0","0","0","47944","","null","","","null","66","NaN","","","","","","","","","","","","","","",""
"","S2","","html-keyboard-response","438","931965","0.0-1.0-598.0","0","0","47944","","null","","","null","66","","NaN","","","","","","","","","","","","","",""
"","response","","html-keyboard-response","439","932667","0.0-1.0-599.0-0.0","0","0","47944","","700","","","68","66","","","2","66","training","adjacent","AB","1","2","N.jpg","L.jpg","1","1","1","",""
"","feedback","","html-keyboard-response","440","933670","0.0-1.0-600.0-0.0","0","0","47944","","null","","","null","66","","","","","","","","","","","","","","","",""
"","ITI","","html-keyboard-response","441","934673","0.0-1.0-603.0","0","0","47944","","null","","","null","66","","","","","","","","","","","","","","","NaN",""
"","S1","","html-keyboard-response","442","934926","0.0-1.0-605.0","0","0","47944","","null","","","null","67","","","","","","","","","","","","","","","",""
"","ISI","","html-keyboard-response","443","936928","0.0-1.0-606.0","0","0","47944","","null","","","null","67","NaN","","","","","","","","","","","","","","",""
"","S2","","html-keyboard-response","444","937181","0.0-1.0-607.0","0","0","47944","","null","","","null","67","","NaN","","","","","","","","","","","","","",""
"","response","","html-keyboard-response","445","938214","0.0-1.0-608.0-0.0","0","0","47944","","1030","","","75","67","","","2","67","training","adjacent","GF","7","6","R.jpg","M.jpg","0","0","1","",""
"","feedback","","html-keyboard-response","446","939218","0.0-1.0-609.0-0.0","0","0","47944","","null","","","null","67","","","","","","","","","","","","","","","",""
"","ITI","","html-keyboard-response","447","940222","0.0-1.0-612.0","0","0","47944","","null","","","null","67","","","","","","","","","","","","","","","NaN",""
"","S1","","html-keyboard-response","448","940474","0.0-1.0-614.0","0","0","47944","","null","","","null","68","","","","","","","","","","","","","","","",""
"","ISI","","html-keyboard-response","449","942477","0.0-1.0-615.0","0","0","47944","","null","","","null","68","NaN","","","","","","","","","","","","","","",""
"","S2","","html-keyboard-response","450","942730","0.0-1.0-616.0","0","0","47944","","null","","","null","68","","NaN","","","","","","","","","","","","","",""
"","response","","html-keyboard-response","451","943301","0.0-1.0-617.0-0.0","0","0","47944","","569","","","75","68","","","2","68","training","adjacent","ED","5","4","P.jpg","O.jpg","0","0","1","",""
"","feedback","","html-keyboard-response","452","944304","0.0-1.0-618.0-0.0","0","0","47944","","null","","","null","68","","","","","","","","","","","","","","","",""
"","ITI","","html-keyboard-response","453","945307","0.0-1.0-621.0","0","0","47944","","null","","","null","68","","","","","","","","","","","","","","","NaN",""
"","S1","","html-keyboard-response","454","945560","0.0-1.0-623.0","0","0","47944","","null","","","null","69","","","","","","","","","","","","","","","",""
"","ISI","","html-keyboard-response","455","947563","0.0-1.0-624.0","0","0","47944","","null","","","null","69","NaN","","","","","","","","","","","","","","",""
"","S2","","html-keyboard-response","456","947816","0.0-1.0-625.0","0","0","47944","","null","","","null","69","","NaN","","","","","","","","","","","","","",""
"","response","","html-keyboard-response","457","948584","0.0-1.0-626.0-0.0","0","0","47944","","766","","","75","69","","","2","69","training","adjacent","DC","4","3","O.jpg","Q.jpg","0","0","1","",""
"","feedback","","html-keyboard-response","458","949588","0.0-1.0-627.0-0.0","0","0","47944","","null","","","null","69","","","","","","","","","","","","","","","",""
"","ITI","","html-keyboard-response","459","950591","0.0-1.0-630.0","0","0","47944","","null","","","null","69","","","","","","","","","","","","","","","NaN",""
"","S1","","html-keyboard-response","460","950845","0.0-1.0-632.0","0","0","47944","","null","","","null","70","","","","","","","","","","","","","","","",""
"","ISI","","html-keyboard-response","461","952848","0.0-1.0-633.0","0","0","47944","","null","","","null","70","NaN","","","","","","","","","","","","","","",""
"","S2","","html-keyboard-response","462","953101","0.0-1.0-634.0","0","0","47944","","null","","","null","70","","NaN","","","","","","","","","","","","","",""
"","response","","html-keyboard-response","463","953856","0.0-1.0-635.0-0.0","0","0","47944","","753","","","68","70","","","2","70","training","adjacent","BC","2","3","L.jpg","Q.jpg","1","1","1","",""
"","feedback","","html-keyboard-response","464","954860","0.0-1.0-636.0-0.0","0","0","47944","","null","","","null","70","","","","","","","","","","","","","","","",""
"","ITI","","html-keyboard-response","465","955863","0.0-1.0-639.0","0","0","47944","","null","","","null","70","","","","","","","","","","","","","","","NaN",""
"","S1","","html-keyboard-response","466","956115","0.0-1.0-641.0","0","0","47944","","null","","","null","71","","","","","","","","","","","","","","","",""
"","ISI","","html-keyboard-response","467","958118","0.0-1.0-642.0","0","0","47944","","null","","","null","71","NaN","","","","","","","","","","","","","","",""
"","S2","","html-keyboard-response","468","958371","0.0-1.0-643.0","0","0","47944","","null","","","null","71","","NaN","","","","","","","","","","","","","",""
"","response","","html-keyboard-response","469","959004","0.0-1.0-644.0-0.0","0","0","47944","","631","","","68","71","","","2","71","training","adjacent","ED","5","4","P.jpg","O.jpg","1","0","0","",""
"","feedback","","html-keyboard-response","470","960008","0.0-1.0-645.0-0.0","0","0","47944","","null","","","null","71","","","","","","","","","","","","","","","",""
"","time_out","","html-keyboard-response","471","962012","0.0-1.0-647.0-0.0","0","0","47944","","null","","","null","71","","","","","","","","","","","","","","","",""
"","ITI","","html-keyboard-response","472","963014","0.0-1.0-648.0","0","0","47944","","null","","","null","71","","","","","","","","","","","","","","","NaN",""
"","S1","","html-keyboard-response","473","963267","0.0-1.0-650.0","0","0","47944","","null","","","null","72","","","","","","","","","","","","","","","",""
"","ISI","","html-keyboard-response","474","965269","0.0-1.0-651.0","0","0","47944","","null","","","null","72","NaN","","","","","","","","","","","","","","",""
"","S2","","html-keyboard-response","475","965522","0.0-1.0-652.0","0","0","47944","","null","","","null","72","","NaN","","","","","","","","","","","","","",""
"","response","","html-keyboard-response","476","966497","0.0-1.0-653.0-0.0","0","0","47944","","973","","","75","72","","","2","72","training","adjacent","ED","5","4","P.jpg","O.jpg","0","0","1","",""
"","feedback","","html-keyboard-response","477","967501","0.0-1.0-654.0-0.0","0","0","47944","","null","","","null","72","","","","","","","","","","","","","","","",""
"","ITI","","html-keyboard-response","478","968505","0.0-1.0-657.0","0","0","47944","","null","","","null","72","","","","","","","","","","","","","","","NaN",""
"","S1","","html-keyboard-response","479","968758","0.0-1.0-659.0","0","0","47944","","null","","","null","73","","","","","","","","","","","","","","","",""
"","ISI","","html-keyboard-response","480","970762","0.0-1.0-660.0","0","0","47944","","null","","","null","73","NaN","","","","","","","","","","","","","","",""
"","S2","","html-keyboard-response","481","971015","0.0-1.0-661.0","0","0","47944","","null","","","null","73","","NaN","","","","","","","","","","","","","",""
"","response","","html-keyboard-response","482","971774","0.0-1.0-662.0-0.0","0","0","47944","","757","","","75","73","","","2","73","training","adjacent","FG","6","7","M.jpg","R.jpg","0","1","0","",""
"","feedback","","html-keyboard-response","483","972778","0.0-1.0-663.0-0.0","0","0","47944","","null","","","null","73","","","","","","","","","","","","","","","",""
"","time_out","","html-keyboard-response","484","974782","0.0-1.0-665.0-0.0","0","0","47944","","null","","","null","73","","","","","","","","","","","","","","","",""
"","ITI","","html-keyboard-response","485","975784","0.0-1.0-666.0","0","0","47944","","null","","","null","73","","","","","","","","","","","","","","","NaN",""
"","S1","","html-keyboard-response","486","976038","0.0-1.0-668.0","0","0","47944","","null","","","null","74","","","","","","","","","","","","","","","",""
"","ISI","","html-keyboard-response","487","978041","0.0-1.0-669.0","0","0","47944","","null","","","null","74","NaN","","","","","","","","","","","","","","",""
"","S2","","html-keyboard-response","488","978294","0.0-1.0-670.0","0","0","47944","","null","","","null","74","","NaN","","","","","","","","","","","","","",""
"","response","","html-keyboard-response","489","978906","0.0-1.0-671.0-0.0","0","0","47944","","609","","","68","74","","","2","74","training","adjacent","CD","3","4","Q.jpg","O.jpg","1","1","1","",""
"","feedback","","html-keyboard-response","490","979909","0.0-1.0-672.0-0.0","0","0","47944","","null","","","null","74","","","","","","","","","","","","","","","",""
"","ITI","","html-keyboard-response","491","980911","0.0-1.0-675.0","0","0","47944","","null","","","null","74","","","","","","","","","","","","","","","NaN",""
"","S1","","html-keyboard-response","492","981165","0.0-1.0-677.0","0","0","47944","","null","","","null","75","","","","","","","","","","","","","","","",""
"","ISI","","html-keyboard-response","493","983167","0.0-1.0-678.0","0","0","47944","","null","","","null","75","NaN","","","","","","","","","","","","","","",""
"","S2","","html-keyboard-response","494","983420","0.0-1.0-679.0","0","0","47944","","null","","","null","75","","NaN","","","","","","","","","","","","","",""
"","response","","html-keyboard-response","495","984364","0.0-1.0-680.0-0.0","0","0","47944","","942","","","75","75","","","2","75","training","adjacent","DE","4","5","O.jpg","P.jpg","0","1","0","",""
"","feedback","","html-keyboard-response","496","985368","0.0-1.0-681.0-0.0","0","0","47944","","null","","","null","75","","","","","","","","","","","","","","","",""
"","time_out","","html-keyboard-response","497","987372","0.0-1.0-683.0-0.0","0","0","47944","","null","","","null","75","","","","","","","","","","","","","","","",""
"","ITI","","html-keyboard-response","498","988375","0.0-1.0-684.0","0","0","47944","","null","","","null","75","","","","","","","","","","","","","","","NaN",""
"","S1","","html-keyboard-response","499","988628","0.0-1.0-686.0","0","0","47944","","null","","","null","76","","","","","","","","","","","","","","","",""
"","ISI","","html-keyboard-response","500","990631","0.0-1.0-687.0","0","0","47944","","null","","","null","76","NaN","","","","","","","","","","","","","","",""
"","S2","","html-keyboard-response","501","990884","0.0-1.0-688.0","0","0","47944","","null","","","null","76","","NaN","","","","","","","","","","","","","",""
"","response","","html-keyboard-response","502","992066","0.0-1.0-689.0-0.0","0","0","47944","","1180","","","68","76","","","2","76","training","adjacent","ED","5","4","P.jpg","O.jpg","1","0","0","",""
"","feedback","","html-keyboard-response","503","993068","0.0-1.0-690.0-0.0","0","0","47944","","null","","","null","76","","","","","","","","","","","","","","","",""
"","time_out","","html-keyboard-response","504","995071","0.0-1.0-692.0-0.0","0","0","47944","","null","","","null","76","","","","","","","","","","","","","","","",""
"","ITI","","html-keyboard-response","505","996074","0.0-1.0-693.0","0","0","47944","","null","","","null","76","","","","","","","","","","","","","","","NaN",""
"","S1","","html-keyboard-response","506","996327","0.0-1.0-695.0","0","0","47944","","null","","","null","77","","","","","","","","","","","","","","","",""
"","ISI","","html-keyboard-response","507","998329","0.0-1.0-696.0","0","0","47944","","null","","","null","77","NaN","","","","","","","","","","","","","","",""
"","S2","","html-keyboard-response","508","998583","0.0-1.0-697.0","0","0","47944","","null","","","null","77","","NaN","","","","","","","","","","","","","",""
"","response","","html-keyboard-response","509","999164","0.0-1.0-698.0-0.0","0","0","47944","","579","","","75","77","","","2","77","training","adjacent","DE","4","5","O.jpg","P.jpg","0","1","0","",""
"","feedback","","html-keyboard-response","510","1000168","0.0-1.0-699.0-0.0","0","0","47944","","null","","","null","77","","","","","","","","","","","","","","","",""
"","time_out","","html-keyboard-response","511","1002171","0.0-1.0-701.0-0.0","0","0","47944","","null","","","null","77","","","","","","","","","","","","","","","",""
"","ITI","","html-keyboard-response","512","1003174","0.0-1.0-702.0","0","0","47944","","null","","","null","77","","","","","","","","","","","","","","","NaN",""
"","S1","","html-keyboard-response","513","1003427","0.0-1.0-704.0","0","0","47944","","null","","","null","78","","","","","","","","","","","","","","","",""
"","ISI","","html-keyboard-response","514","1005430","0.0-1.0-705.0","0","0","47944","","null","","","null","78","NaN","","","","","","","","","","","","","","",""
"","S2","","html-keyboard-response","515","1005683","0.0-1.0-706.0","0","0","47944","","null","","","null","78","","NaN","","","","","","","","","","","","","",""
"","response","","html-keyboard-response","516","1006265","0.0-1.0-707.0-0.0","0","0","47944","","580","","","68","78","","","2","78","training","adjacent","FG","6","7","M.jpg","R.jpg","1","1","1","",""
"","feedback","","html-keyboard-response","517","1007268","0.0-1.0-708.0-0.0","0","0","47944","","null","","","null","78","","","","","","","","","","","","","","","",""
"","ITI","","html-keyboard-response","518","1008273","0.0-1.0-711.0","0","0","47944","","null","","","null","78","","","","","","","","","","","","","","","NaN",""
"","S1","","html-keyboard-response","519","1008526","0.0-1.0-713.0","0","0","47944","","null","","","null","79","","","","","","","","","","","","","","","",""
"","ISI","","html-keyboard-response","520","1010529","0.0-1.0-714.0","0","0","47944","","null","","","null","79","NaN","","","","","","","","","","","","","","",""
"","S2","","html-keyboard-response","521","1010781","0.0-1.0-715.0","0","0","47944","","null","","","null","79","","NaN","","","","","","","","","","","","","",""
"","response","","html-keyboard-response","522","1011724","0.0-1.0-716.0-0.0","0","0","47944","","941","","","75","79","","","2","79","training","adjacent","BC","2","3","L.jpg","Q.jpg","0","1","0","",""
"","feedback","","html-keyboard-response","523","1012729","0.0-1.0-717.0-0.0","0","0","47944","","null","","","null","79","","","","","","","","","","","","","","","",""
"","time_out","","html-keyboard-response","524","1014733","0.0-1.0-719.0-0.0","0","0","47944","","null","","","null","79","","","","","","","","","","","","","","","",""
"","ITI","","html-keyboard-response","525","1015736","0.0-1.0-720.0","0","0","47944","","null","","","null","79","","","","","","","","","","","","","","","NaN",""
"","S1","","html-keyboard-response","526","1015988","0.0-1.0-722.0","0","0","47944","","null","","","null","80","","","","","","","","","","","","","","","",""
"","ISI","","html-keyboard-response","527","1017991","0.0-1.0-723.0","0","0","47944","","null","","","null","80","NaN","","","","","","","","","","","","","","",""
"","S2","","html-keyboard-response","528","1018244","0.0-1.0-724.0","0","0","47944","","null","","","null","80","","NaN","","","","","","","","","","","","","",""
"","response","","html-keyboard-response","529","1018886","0.0-1.0-725.0-0.0","0","0","47944","","640","","","75","80","","","2","80","training","adjacent","AB","1","2","N.jpg","L.jpg","0","1","0","",""
"","feedback","","html-keyboard-response","530","1019889","0.0-1.0-726.0-0.0","0","0","47944","","null","","","null","80","","","","","","","","","","","","","","","",""
"","time_out","","html-keyboard-response","531","1021892","0.0-1.0-728.0-0.0","0","0","47944","","null","","","null","80","","","","","","","","","","","","","","","",""
"","ITI","","html-keyboard-response","532","1022895","0.0-1.0-729.0","0","0","47944","","null","","","null","80","","","","","","","","","","","","","","","NaN",""
"","S1","","html-keyboard-response","533","1023148","0.0-1.0-731.0","0","0","47944","","null","","","null","81","","","","","","","","","","","","","","","",""
"","ISI","","html-keyboard-response","534","1025151","0.0-1.0-732.0","0","0","47944","","null","","","null","81","NaN","","","","","","","","","","","","","","",""
"","S2","","html-keyboard-response","535","1025404","0.0-1.0-733.0","0","0","47944","","null","","","null","81","","NaN","","","","","","","","","","","","","",""
"","response","","html-keyboard-response","536","1026203","0.0-1.0-734.0-0.0","0","0","47944","","796","","","75","81","","","2","81","training","adjacent","CD","3","4","Q.jpg","O.jpg","0","1","0","",""
"","feedback","","html-keyboard-response","537","1027217","0.0-1.0-735.0-0.0","0","0","47944","","null","","","null","81","","","","","","","","","","","","","","","",""
"","time_out","","html-keyboard-response","538","1029220","0.0-1.0-737.0-0.0","0","0","47944","","null","","","null","81","","","","","","","","","","","","","","","",""
"","ITI","","html-keyboard-response","539","1030222","0.0-1.0-738.0","0","0","47944","","null","","","null","81","","","","","","","","","","","","","","","NaN",""
"","S1","","html-keyboard-response","540","1030476","0.0-1.0-740.0","0","0","47944","","null","","","null","82","","","","","","","","","","","","","","","",""
"","ISI","","html-keyboard-response","541","1032479","0.0-1.0-741.0","0","0","47944","","null","","","null","82","NaN","","","","","","","","","","","","","","",""
"","S2","","html-keyboard-response","542","1032731","0.0-1.0-742.0","0","0","47944","","null","","","null","82","","NaN","","","","","","","","","","","","","",""
"","response","","html-keyboard-response","543","1033814","0.0-1.0-743.0-0.0","0","0","47944","","1081","","","75","82","","","2","82","training","adjacent","FE","6","5","M.jpg","P.jpg","0","0","1","",""
"","feedback","","html-keyboard-response","544","1034818","0.0-1.0-744.0-0.0","0","0","47944","","null","","","null","82","","","","","","","","","","","","","","","",""
"","ITI","","html-keyboard-response","545","1035822","0.0-1.0-747.0","0","0","47944","","null","","","null","82","","","","","","","","","","","","","","","NaN",""
"","S1","","html-keyboard-response","546","1036076","0.0-1.0-749.0","0","0","47944","","null","","","null","83","","","","","","","","","","","","","","","",""
"","ISI","","html-keyboard-response","547","1038078","0.0-1.0-750.0","0","0","47944","","null","","","null","83","NaN","","","","","","","","","","","","","","",""
"","S2","","html-keyboard-response","548","1038331","0.0-1.0-751.0","0","0","47944","","null","","","null","83","","NaN","","","","","","","","","","","","","",""
"","response","","html-keyboard-response","549","1039333","0.0-1.0-752.0-0.0","0","0","47944","","1000","","","75","83","","","2","83","training","adjacent","CD","3","4","Q.jpg","O.jpg","0","1","0","",""
"","feedback","","html-keyboard-response","550","1040338","0.0-1.0-753.0-0.0","0","0","47944","","null","","","null","83","","","","","","","","","","","","","","","",""
"","time_out","","html-keyboard-response","551","1042341","0.0-1.0-755.0-0.0","0","0","47944","","null","","","null","83","","","","","","","","","","","","","","","",""
"","ITI","","html-keyboard-response","552","1043344","0.0-1.0-756.0","0","0","47944","","null","","","null","83","","","","","","","","","","","","","","","NaN",""
"","S1","","html-keyboard-response","553","1043596","0.0-1.0-758.0","0","0","47944","","null","","","null","84","","","","","","","","","","","","","","","",""
"","ISI","","html-keyboard-response","554","1045599","0.0-1.0-759.0","0","0","47944","","null","","","null","84","NaN","","","","","","","","","","","","","","",""
"","S2","","html-keyboard-response","555","1045851","0.0-1.0-760.0","0","0","47944","","null","","","null","84","","NaN","","","","","","","","","","","","","",""
"","response","","html-keyboard-response","556","1046946","0.0-1.0-761.0-0.0","0","0","47944","","1093","","","75","84","","","2","84","training","adjacent","DC","4","3","O.jpg","Q.jpg","0","0","1","",""
"","feedback","","html-keyboard-response","557","1047950","0.0-1.0-762.0-0.0","0","0","47944","","null","","","null","84","","","","","","","","","","","","","","","",""
"","ITI","","html-keyboard-response","558","1048952","0.0-1.0-765.0","0","0","47944","","null","","","null","84","","","","","","","","","","","","","","","NaN",""
"","S1","","html-keyboard-response","559","1049206","0.0-1.0-767.0","0","0","47944","","null","","","null","85","","","","","","","","","","","","","","","",""
"","ISI","","html-keyboard-response","560","1051209","0.0-1.0-768.0","0","0","47944","","null","","","null","85","NaN","","","","","","","","","","","","","","",""
"","S2","","html-keyboard-response","561","1051463","0.0-1.0-769.0","0","0","47944","","null","","","null","85","","NaN","","","","","","","","","","","","","",""
"","response","","html-keyboard-response","562","1052160","0.0-1.0-770.0-0.0","0","0","47944","","696","","","75","85","","","2","85","training","adjacent","FE","6","5","M.jpg","P.jpg","0","0","1","",""
"","feedback","","html-keyboard-response","563","1053162","0.0-1.0-771.0-0.0","0","0","47944","","null","","","null","85","","","","","","","","","","","","","","","",""
"","ITI","","html-keyboard-response","564","1054164","0.0-1.0-774.0","0","0","47944","","null","","","null","85","","","","","","","","","","","","","","","NaN",""
"","S1","","html-keyboard-response","565","1054418","0.0-1.0-776.0","0","0","47944","","null","","","null","86","","","","","","","","","","","","","","","",""
"","ISI","","html-keyboard-response","566","1056421","0.0-1.0-777.0","0","0","47944","","null","","","null","86","NaN","","","","","","","","","","","","","","",""
"","S2","","html-keyboard-response","567","1056675","0.0-1.0-778.0","0","0","47944","","null","","","null","86","","NaN","","","","","","","","","","","","","",""
"","response","","html-keyboard-response","568","1058163","0.0-1.0-779.0-0.0","0","0","47944","","1486","","","68","86","","","2","86","training","adjacent","DC","4","3","O.jpg","Q.jpg","1","0","0","",""
"","feedback","","html-keyboard-response","569","1059167","0.0-1.0-780.0-0.0","0","0","47944","","null","","","null","86","","","","","","","","","","","","","","","",""
"","time_out","","html-keyboard-response","570","1061169","0.0-1.0-782.0-0.0","0","0","47944","","null","","","null","86","","","","","","","","","","","","","","","",""
"","ITI","","html-keyboard-response","571","1062170","0.0-1.0-783.0","0","0","47944","","null","","","null","86","","","","","","","","","","","","","","","NaN",""
"","S1","","html-keyboard-response","572","1062423","0.0-1.0-785.0","0","0","47944","","null","","","null","87","","","","","","","","","","","","","","","",""
"","ISI","","html-keyboard-response","573","1064426","0.0-1.0-786.0","0","0","47944","","null","","","null","87","NaN","","","","","","","","","","","","","","",""
"","S2","","html-keyboard-response","574","1064680","0.0-1.0-787.0","0","0","47944","","null","","","null","87","","NaN","","","","","","","","","","","","","",""
"","response","","html-keyboard-response","575","1066364","0.0-1.0-788.0-0.0","0","0","47944","","1681","","","68","87","","","2","87","training","adjacent","BA","2","1","L.jpg","N.jpg","1","0","0","",""
"","feedback","","html-keyboard-response","576","1067367","0.0-1.0-789.0-0.0","0","0","47944","","null","","","null","87","","","","","","","","","","","","","","","",""
"","time_out","","html-keyboard-response","577","1069370","0.0-1.0-791.0-0.0","0","0","47944","","null","","","null","87","","","","","","","","","","","","","","","",""
"","ITI","","html-keyboard-response","578","1070372","0.0-1.0-792.0","0","0","47944","","null","","","null","87","","","","","","","","","","","","","","","NaN",""
"","S1","","html-keyboard-response","579","1070625","0.0-1.0-794.0","0","0","47944","","null","","","null","88","","","","","","","","","","","","","","","",""
"","ISI","","html-keyboard-response","580","1072628","0.0-1.0-795.0","0","0","47944","","null","","","null","88","NaN","","","","","","","","","","","","","","",""
