"success","ttype","start_time","trial_type","trial_index","time_elapsed","internal_node_id","warning","missed_checkup","PID","view_history","rt","responses","repeat_instructions","key_press","index","keypress_isi","keypress_S2","block","trial_num","phase","group_type","pair_type","S1_stim","S2_stim","S1_img","S2_img","S1_chosen","S1_higher","accuracy","keypress_iti","total_bonus_tally"
"true","full_screen","d04142023hr2106","fullscreen","0","27438","0.0-0.0","0","0","53056","","","","","","","","","","","","","","","","","","","","","",""
"","instructions","","instructions","1","101433","0.0-1.0-0.0-0.0","0","0","53056","[{""page_index"":0,""viewing_time"":8021},{""page_index"":1,""viewing_time"":30052},{""page_index"":2,""viewing_time"":32177},{""page_index"":3,""viewing_time"":3741}]","73992","","","","","","","","","","","","","","","","","","","",""
"","comprehension_check","","survey-multi-choice","2","122204","0.0-1.0-0.0-1.0","0","0","53056","","20764","{""Q0"":""True"",""Q1"":""D"",""Q2"":""Once the second image appears and while the screen 'MAKE A CHOICE' is shown"",""Q3"":""Green mark"",""Q4"":""either D or K""}","0","","","","","","","","","","","","","","","","","",""
"","start_exp","","html-keyboard-response","3","123648","0.0-1.0-1.0","0","0","53056","","1441","","","32","","","","","","","","","","","","","","","","",""
"","S1","","html-keyboard-response","4","123909","0.0-1.0-2.0","0","0","53056","","null","","","null","0","","","","","","","","","","","","","","","",""
"","ISI","","html-keyboard-response","5","124919","0.0-1.0-3.0","0","0","53056","","null","","","null","0","NaN","","","","","","","","","","","","","","",""
"","S2","","html-keyboard-response","6","125180","0.0-1.0-4.0","0","0","53056","","null","","","null","0","","NaN","","","","","","","","","","","","","",""
"","response","","html-keyboard-response","7","125728","0.0-1.0-5.0-0.0","0","0","53056","","545","","","68","0","","","1","0","training","adjacent","FG","6","7","O.jpg","N.jpg","1","1","1","",""
"","feedback","","html-keyboard-response","8","126742","0.0-1.0-6.0-0.0","0","0","53056","","null","","","null","0","","","","","","","","","","","","","","","",""
"","ITI","","html-keyboard-response","9","127746","0.0-1.0-9.0","0","0","53056","","null","","","null","0","","","","","","","","","","","","","","","NaN",""
"","S1","","html-keyboard-response","10","128002","0.0-1.0-11.0","0","0","53056","","null","","","null","1","","","","","","","","","","","","","","","",""
"","ISI","","html-keyboard-response","11","129006","0.0-1.0-12.0","0","0","53056","","null","","","null","1","NaN","","","","","","","","","","","","","","",""
"","S2","","html-keyboard-response","12","129267","0.0-1.0-13.0","0","0","53056","","null","","","null","1","","NaN","","","","","","","","","","","","","",""
"","response","","html-keyboard-response","13","129624","0.0-1.0-14.0-0.0","0","0","53056","","354","","","68","1","","","1","1","training","adjacent","DE","4","5","Q.jpg","R.jpg","1","1","1","",""
"","feedback","","html-keyboard-response","14","130637","0.0-1.0-15.0-0.0","0","0","53056","","null","","","null","1","","","","","","","","","","","","","","","",""
"","ITI","","html-keyboard-response","15","131642","0.0-1.0-18.0","0","0","53056","","null","","","null","1","","","","","","","","","","","","","","","NaN",""
"","S1","","html-keyboard-response","16","131901","0.0-1.0-20.0","0","0","53056","","null","","","null","2","","","","","","","","","","","","","","","",""
"","ISI","","html-keyboard-response","17","132907","0.0-1.0-21.0","0","0","53056","","null","","","null","2","NaN","","","","","","","","","","","","","","",""
"","S2","","html-keyboard-response","18","133162","0.0-1.0-22.0","0","0","53056","","null","","","null","2","","NaN","","","","","","","","","","","","","",""
"","response","","html-keyboard-response","19","133501","0.0-1.0-23.0-0.0","0","0","53056","","336","","","68","2","","","1","2","training","adjacent","DC","4","3","Q.jpg","M.jpg","1","0","0","",""
"","feedback","","html-keyboard-response","20","134509","0.0-1.0-24.0-0.0","0","0","53056","","null","","","null","2","","","","","","","","","","","","","","","",""
"","time_out","","html-keyboard-response","21","136517","0.0-1.0-26.0-0.0","0","0","53056","","null","","","null","2","","","","","","","","","","","","","","","",""
"","ITI","","html-keyboard-response","22","137522","0.0-1.0-27.0","0","0","53056","","null","","","null","2","","","","","","","","","","","","","","","NaN",""
"","S1","","html-keyboard-response","23","137783","0.0-1.0-29.0","0","0","53056","","null","","","null","3","","","","","","","","","","","","","","","",""
"","ISI","","html-keyboard-response","24","138787","0.0-1.0-30.0","0","0","53056","","null","","","null","3","NaN","","","","","","","","","","","","","","",""
"","S2","","html-keyboard-response","25","139042","0.0-1.0-31.0","0","0","53056","","null","","","null","3","","NaN","","","","","","","","","","","","","",""
"","response","","html-keyboard-response","26","139672","0.0-1.0-32.0-0.0","0","0","53056","","627","","","75","3","","","1","3","training","adjacent","ED","5","4","R.jpg","Q.jpg","0","0","1","",""
"","feedback","","html-keyboard-response","27","140685","0.0-1.0-33.0-0.0","0","0","53056","","null","","","null","3","","","","","","","","","","","","","","","",""
"","ITI","","html-keyboard-response","28","141689","0.0-1.0-36.0","0","0","53056","","null","","","null","3","","","","","","","","","","","","","","","NaN",""
"","S1","","html-keyboard-response","29","141947","0.0-1.0-38.0","0","0","53056","","null","","","null","4","","","","","","","","","","","","","","","",""
"","ISI","","html-keyboard-response","30","142954","0.0-1.0-39.0","0","0","53056","","null","","","null","4","NaN","","","","","","","","","","","","","","",""
"","S2","","html-keyboard-response","31","143210","0.0-1.0-40.0","0","0","53056","","null","","","null","4","","NaN","","","","","","","","","","","","","",""
"","response","","html-keyboard-response","32","143568","0.0-1.0-41.0-0.0","0","0","53056","","356","","","75","4","","","1","4","training","adjacent","DC","4","3","Q.jpg","M.jpg","0","0","1","",""
"","feedback","","html-keyboard-response","33","144580","0.0-1.0-42.0-0.0","0","0","53056","","null","","","null","4","","","","","","","","","","","","","","","",""
"","ITI","","html-keyboard-response","34","145590","0.0-1.0-45.0","0","0","53056","","null","","","null","4","","","","","","","","","","","","","","","NaN",""
"","S1","","html-keyboard-response","35","145852","0.0-1.0-47.0","0","0","53056","","null","","","null","5","","","","","","","","","","","","","","","",""
"","ISI","","html-keyboard-response","36","146862","0.0-1.0-48.0","0","0","53056","","null","","","null","5","NaN","","","","","","","","","","","","","","",""
"","S2","","html-keyboard-response","37","147123","0.0-1.0-49.0","0","0","53056","","null","","","null","5","","NaN","","","","","","","","","","","","","",""
"","response","","html-keyboard-response","38","147571","0.0-1.0-50.0-0.0","0","0","53056","","447","","","68","5","","","1","5","training","adjacent","CD","3","4","M.jpg","Q.jpg","1","1","1","",""
"","feedback","","html-keyboard-response","39","148580","0.0-1.0-51.0-0.0","0","0","53056","","null","","","null","5","","","","","","","","","","","","","","","",""
"","ITI","","html-keyboard-response","40","149590","0.0-1.0-54.0","0","0","53056","","null","","","null","5","","","","","","","","","","","","","","","NaN",""
"","S1","","html-keyboard-response","41","149851","0.0-1.0-56.0","0","0","53056","","null","","","null","6","","","","","","","","","","","","","","","",""
"","ISI","","html-keyboard-response","42","150861","0.0-1.0-57.0","0","0","53056","","null","","","null","6","NaN","","","","","","","","","","","","","","",""
"","S2","","html-keyboard-response","43","151122","0.0-1.0-58.0","0","0","53056","","null","","","null","6","","NaN","","","","","","","","","","","","","",""
"","response","","html-keyboard-response","44","151365","0.0-1.0-59.0-0.0","0","0","53056","","241","","","75","6","","","1","6","training","adjacent","CD","3","4","M.jpg","Q.jpg","0","1","0","",""
"","feedback","","html-keyboard-response","45","152370","0.0-1.0-60.0-0.0","0","0","53056","","null","","","null","6","","","","","","","","","","","","","","","",""
"","time_out","","html-keyboard-response","46","154379","0.0-1.0-62.0-0.0","0","0","53056","","null","","","null","6","","","","","","","","","","","","","","","",""
"","ITI","","html-keyboard-response","47","155389","0.0-1.0-63.0","0","0","53056","","null","","","null","6","","","","","","","","","","","","","","","NaN",""
"","S1","","html-keyboard-response","48","155650","0.0-1.0-65.0","0","0","53056","","null","","","null","7","","","","","","","","","","","","","","","",""
"","ISI","","html-keyboard-response","49","156660","0.0-1.0-66.0","0","0","53056","","null","","","null","7","NaN","","","","","","","","","","","","","","",""
"","S2","","html-keyboard-response","50","156916","0.0-1.0-67.0","0","0","53056","","null","","","null","7","","NaN","","","","","","","","","","","","","",""
"","response","","html-keyboard-response","51","157336","0.0-1.0-68.0-0.0","0","0","53056","","418","","","68","7","","","1","7","training","adjacent","FG","6","7","O.jpg","N.jpg","1","1","1","",""
"","feedback","","html-keyboard-response","52","158349","0.0-1.0-69.0-0.0","0","0","53056","","null","","","null","7","","","","","","","","","","","","","","","",""
"","ITI","","html-keyboard-response","53","159354","0.0-1.0-72.0","0","0","53056","","null","","","null","7","","","","","","","","","","","","","","","NaN",""
"","S1","","html-keyboard-response","54","159609","0.0-1.0-74.0","0","0","53056","","null","","","null","8","","","","","","","","","","","","","","","",""
"","ISI","","html-keyboard-response","55","160619","0.0-1.0-75.0","0","0","53056","","null","","","null","8","NaN","","","","","","","","","","","","","","",""
"","S2","","html-keyboard-response","56","160874","0.0-1.0-76.0","0","0","53056","","null","","","null","8","","NaN","","","","","","","","","","","","","",""
"","response","","html-keyboard-response","57","161408","0.0-1.0-77.0-0.0","0","0","53056","","531","","","68","8","","","1","8","training","adjacent","BA","2","1","L.jpg","P.jpg","1","0","0","",""
"","feedback","","html-keyboard-response","58","162418","0.0-1.0-78.0-0.0","0","0","53056","","null","","","null","8","","","","","","","","","","","","","","","",""
"","time_out","","html-keyboard-response","59","164427","0.0-1.0-80.0-0.0","0","0","53056","","null","","","null","8","","","","","","","","","","","","","","","",""
"","ITI","","html-keyboard-response","60","165437","0.0-1.0-81.0","0","0","53056","","null","","","null","8","","","","","","","","","","","","","","","NaN",""
"","S1","","html-keyboard-response","61","165698","0.0-1.0-83.0","0","0","53056","","null","","","null","9","","","","","","","","","","","","","","","",""
"","ISI","","html-keyboard-response","62","166708","0.0-1.0-84.0","0","0","53056","","null","","","null","9","NaN","","","","","","","","","","","","","","",""
"","S2","","html-keyboard-response","63","166964","0.0-1.0-85.0","0","0","53056","","null","","","null","9","","NaN","","","","","","","","","","","","","",""
"","response","","html-keyboard-response","64","167911","0.0-1.0-86.0-0.0","0","0","53056","","946","","","68","9","","","1","9","training","adjacent","FG","6","7","O.jpg","N.jpg","1","1","1","",""
"","feedback","","html-keyboard-response","65","168926","0.0-1.0-87.0-0.0","0","0","53056","","null","","","null","9","","","","","","","","","","","","","","","",""
"","ITI","","html-keyboard-response","66","169930","0.0-1.0-90.0","0","0","53056","","null","","","null","9","","","","","","","","","","","","","","","NaN",""
"","S1","","html-keyboard-response","67","170185","0.0-1.0-92.0","0","0","53056","","null","","","null","10","","","","","","","","","","","","","","","",""
"","ISI","","html-keyboard-response","68","171195","0.0-1.0-93.0","0","0","53056","","null","","","null","10","NaN","","","","","","","","","","","","","","",""
"","S2","","html-keyboard-response","69","171451","0.0-1.0-94.0","0","0","53056","","null","","","null","10","","NaN","","","","","","","","","","","","","",""
"","response","","html-keyboard-response","70","171749","0.0-1.0-95.0-0.0","0","0","53056","","296","","","75","10","","","1","10","training","adjacent","GF","7","6","N.jpg","O.jpg","0","0","1","",""
"","feedback","","html-keyboard-response","71","172757","0.0-1.0-96.0-0.0","0","0","53056","","null","","","null","10","","","","","","","","","","","","","","","",""
"","ITI","","html-keyboard-response","72","173762","0.0-1.0-99.0","0","0","53056","","null","","","null","10","","","","","","","","","","","","","","","NaN",""
"","S1","","html-keyboard-response","73","174017","0.0-1.0-101.0","0","0","53056","","null","","","null","11","","","","","","","","","","","","","","","",""
"","ISI","","html-keyboard-response","74","175027","0.0-1.0-102.0","0","0","53056","","null","","","null","11","NaN","","","","","","","","","","","","","","",""
"","S2","","html-keyboard-response","75","175282","0.0-1.0-103.0","0","0","53056","","null","","","null","11","","NaN","","","","","","","","","","","","","",""
"","response","","html-keyboard-response","76","175729","0.0-1.0-104.0-0.0","0","0","53056","","445","","","68","11","","","1","11","training","adjacent","CB","3","2","M.jpg","L.jpg","1","0","0","",""
"","feedback","","html-keyboard-response","77","176739","0.0-1.0-105.0-0.0","0","0","53056","","null","","","null","11","","","","","","","","","","","","","","","",""
"","time_out","","html-keyboard-response","78","178748","0.0-1.0-107.0-0.0","0","0","53056","","null","","","null","11","","","","","","","","","","","","","","","",""
"","ITI","","html-keyboard-response","79","179754","0.0-1.0-108.0","0","0","53056","","null","","","null","11","","","","","","","","","","","","","","","NaN",""
"","S1","","html-keyboard-response","80","180013","0.0-1.0-110.0","0","0","53056","","null","","","null","12","","","","","","","","","","","","","","","",""
"","ISI","","html-keyboard-response","81","181017","0.0-1.0-111.0","0","0","53056","","null","","","null","12","NaN","","","","","","","","","","","","","","",""
"","S2","","html-keyboard-response","82","181273","0.0-1.0-112.0","0","0","53056","","null","","","null","12","","NaN","","","","","","","","","","","","","",""
"","response","","html-keyboard-response","83","181932","0.0-1.0-113.0-0.0","0","0","53056","","658","","","75","12","","","1","12","training","adjacent","CB","3","2","M.jpg","L.jpg","0","0","1","",""
"","feedback","","html-keyboard-response","84","182939","0.0-1.0-114.0-0.0","0","0","53056","","null","","","null","12","","","","","","","","","","","","","","","",""
"","ITI","","html-keyboard-response","85","183949","0.0-1.0-117.0","0","0","53056","","null","","","null","12","","","","","","","","","","","","","","","NaN",""
"","S1","","html-keyboard-response","86","184210","0.0-1.0-119.0","0","0","53056","","null","","","null","13","","","","","","","","","","","","","","","",""
"","ISI","","html-keyboard-response","87","185219","0.0-1.0-120.0","0","0","53056","","null","","","null","13","NaN","","","","","","","","","","","","","","",""
"","S2","","html-keyboard-response","88","185476","0.0-1.0-121.0","0","0","53056","","null","","","null","13","","NaN","","","","","","","","","","","","","",""
"","response","","html-keyboard-response","89","185990","0.0-1.0-122.0-0.0","0","0","53056","","513","","","68","13","","","1","13","training","adjacent","CD","3","4","M.jpg","Q.jpg","1","1","1","",""
"","feedback","","html-keyboard-response","90","187002","0.0-1.0-123.0-0.0","0","0","53056","","null","","","null","13","","","","","","","","","","","","","","","",""
"","ITI","","html-keyboard-response","91","188012","0.0-1.0-126.0","0","0","53056","","null","","","null","13","","","","","","","","","","","","","","","NaN",""
"","S1","","html-keyboard-response","92","188273","0.0-1.0-128.0","0","0","53056","","null","","","null","14","","","","","","","","","","","","","","","",""
"","ISI","","html-keyboard-response","93","189283","0.0-1.0-129.0","0","0","53056","","null","","","null","14","NaN","","","","","","","","","","","","","","",""
"","S2","","html-keyboard-response","94","189539","0.0-1.0-130.0","0","0","53056","","null","","","null","14","","NaN","","","","","","","","","","","","","",""
"","response","","html-keyboard-response","95","190067","0.0-1.0-131.0-0.0","0","0","53056","","527","","","68","14","","","1","14","training","adjacent","BA","2","1","L.jpg","P.jpg","1","0","0","",""
"","feedback","","html-keyboard-response","96","191077","0.0-1.0-132.0-0.0","0","0","53056","","null","","","null","14","","","","","","","","","","","","","","","",""
"","time_out","","html-keyboard-response","97","193085","0.0-1.0-134.0-0.0","0","0","53056","","null","","","null","14","","","","","","","","","","","","","","","",""
"","ITI","","html-keyboard-response","98","194090","0.0-1.0-135.0","0","0","53056","","null","","","null","14","","","","","","","","","","","","","","","NaN",""
"","S1","","html-keyboard-response","99","194345","0.0-1.0-137.0","0","0","53056","","null","","","null","15","","","","","","","","","","","","","","","",""
"","ISI","","html-keyboard-response","100","195355","0.0-1.0-138.0","0","0","53056","","null","","","null","15","NaN","","","","","","","","","","","","","","",""
"","S2","","html-keyboard-response","101","195611","0.0-1.0-139.0","0","0","53056","","null","","","null","15","","NaN","","","","","","","","","","","","","",""
"","response","","html-keyboard-response","102","195963","0.0-1.0-140.0-0.0","0","0","53056","","350","","","68","15","","","1","15","training","adjacent","DE","4","5","Q.jpg","R.jpg","1","1","1","",""
"","feedback","","html-keyboard-response","103","196969","0.0-1.0-141.0-0.0","0","0","53056","","null","","","null","15","","","","","","","","","","","","","","","",""
"","ITI","","html-keyboard-response","104","197979","0.0-1.0-144.0","0","0","53056","","null","","","null","15","","","","","","","","","","","","","","","NaN",""
"","S1","","html-keyboard-response","105","198235","0.0-1.0-146.0","0","0","53056","","null","","","null","16","","","","","","","","","","","","","","","",""
"","ISI","","html-keyboard-response","106","199245","0.0-1.0-147.0","0","0","53056","","null","","","null","16","NaN","","","","","","","","","","","","","","",""
"","S2","","html-keyboard-response","107","199506","0.0-1.0-148.0","0","0","53056","","null","","","null","16","","NaN","","","","","","","","","","","","","",""
"","response","","html-keyboard-response","108","199933","0.0-1.0-149.0-0.0","0","0","53056","","426","","","68","16","","","1","16","training","adjacent","EF","5","6","R.jpg","O.jpg","1","1","1","",""
"","feedback","","html-keyboard-response","109","200939","0.0-1.0-150.0-0.0","0","0","53056","","null","","","null","16","","","","","","","","","","","","","","","",""
"","ITI","","html-keyboard-response","110","201949","0.0-1.0-153.0","0","0","53056","","null","","","null","16","","","","","","","","","","","","","","","NaN",""
"","S1","","html-keyboard-response","111","202211","0.0-1.0-155.0","0","0","53056","","null","","","null","17","","","","","","","","","","","","","","","",""
"","ISI","","html-keyboard-response","112","203221","0.0-1.0-156.0","0","0","53056","","null","","","null","17","NaN","","","","","","","","","","","","","","",""
"","S2","","html-keyboard-response","113","203482","0.0-1.0-157.0","0","0","53056","","null","","","null","17","","NaN","","","","","","","","","","","","","",""
"","response","","html-keyboard-response","114","203905","0.0-1.0-158.0-0.0","0","0","53056","","421","","","75","17","","","1","17","training","adjacent","DE","4","5","Q.jpg","R.jpg","0","1","0","",""
"","feedback","","html-keyboard-response","115","204916","0.0-1.0-159.0-0.0","0","0","53056","","null","","","null","17","","","","","","","","","","","","","","","",""
"","time_out","","html-keyboard-response","116","206924","0.0-1.0-161.0-0.0","0","0","53056","","null","","","null","17","","","","","","","","","","","","","","","",""
"","ITI","","html-keyboard-response","117","207929","0.0-1.0-162.0","0","0","53056","","null","","","null","17","","","","","","","","","","","","","","","NaN",""
"","S1","","html-keyboard-response","118","208184","0.0-1.0-164.0","0","0","53056","","null","","","null","18","","","","","","","","","","","","","","","",""
"","ISI","","html-keyboard-response","119","209194","0.0-1.0-165.0","0","0","53056","","null","","","null","18","NaN","","","","","","","","","","","","","","",""
"","S2","","html-keyboard-response","120","209453","0.0-1.0-166.0","0","0","53056","","null","","","null","18","","NaN","","","","","","","","","","","","","",""
"","response","","html-keyboard-response","121","209819","0.0-1.0-167.0-0.0","0","0","53056","","365","","","68","18","","","1","18","training","adjacent","GF","7","6","N.jpg","O.jpg","1","0","0","",""
"","feedback","","html-keyboard-response","122","210825","0.0-1.0-168.0-0.0","0","0","53056","","null","","","null","18","","","","","","","","","","","","","","","",""
"","time_out","","html-keyboard-response","123","212834","0.0-1.0-170.0-0.0","0","0","53056","","null","","","null","18","","","","","","","","","","","","","","","",""
"","ITI","","html-keyboard-response","124","213843","0.0-1.0-171.0","0","0","53056","","null","","","null","18","","","","","","","","","","","","","","","NaN",""
"","S1","","html-keyboard-response","125","214099","0.0-1.0-173.0","0","0","53056","","null","","","null","19","","","","","","","","","","","","","","","",""
"","ISI","","html-keyboard-response","126","215104","0.0-1.0-174.0","0","0","53056","","null","","","null","19","NaN","","","","","","","","","","","","","","",""
"","S2","","html-keyboard-response","127","215365","0.0-1.0-175.0","0","0","53056","","null","","","null","19","","NaN","","","","","","","","","","","","","",""
"","response","","html-keyboard-response","128","216072","0.0-1.0-176.0-0.0","0","0","53056","","705","","","68","19","","","1","19","training","adjacent","FE","6","5","O.jpg","R.jpg","1","0","0","",""
"","feedback","","html-keyboard-response","129","217083","0.0-1.0-177.0-0.0","0","0","53056","","null","","","null","19","","","","","","","","","","","","","","","",""
"","time_out","","html-keyboard-response","130","219091","0.0-1.0-179.0-0.0","0","0","53056","","null","","","null","19","","","","","","","","","","","","","","","",""
"","ITI","","html-keyboard-response","131","220098","0.0-1.0-180.0","0","0","53056","","null","","","null","19","","","","","","","","","","","","","","","NaN",""
"","S1","","html-keyboard-response","132","220357","0.0-1.0-182.0","0","0","53056","","null","","","null","20","","","","","","","","","","","","","","","",""
"","ISI","","html-keyboard-response","133","221361","0.0-1.0-183.0","0","0","53056","","null","","","null","20","NaN","","","","","","","","","","","","","","",""
"","S2","","html-keyboard-response","134","221617","0.0-1.0-184.0","0","0","53056","","null","","","null","20","","NaN","","","","","","","","","","","","","",""
"","response","","html-keyboard-response","135","221960","0.0-1.0-185.0-0.0","0","0","53056","","342","","","75","20","","","1","20","training","adjacent","BC","2","3","L.jpg","M.jpg","0","1","0","",""
"","feedback","","html-keyboard-response","136","222969","0.0-1.0-186.0-0.0","0","0","53056","","null","","","null","20","","","","","","","","","","","","","","","",""
"","time_out","","html-keyboard-response","137","224978","0.0-1.0-188.0-0.0","0","0","53056","","null","","","null","20","","","","","","","","","","","","","","","",""
"","ITI","","html-keyboard-response","138","225988","0.0-1.0-189.0","0","0","53056","","null","","","null","20","","","","","","","","","","","","","","","NaN",""
"","S1","","html-keyboard-response","139","226248","0.0-1.0-191.0","0","0","53056","","null","","","null","21","","","","","","","","","","","","","","","",""
"","ISI","","html-keyboard-response","140","227258","0.0-1.0-192.0","0","0","53056","","null","","","null","21","NaN","","","","","","","","","","","","","","",""
"","S2","","html-keyboard-response","141","227514","0.0-1.0-193.0","0","0","53056","","null","","","null","21","","NaN","","","","","","","","","","","","","",""
"","response","","html-keyboard-response","142","228027","0.0-1.0-194.0-0.0","0","0","53056","","511","","","75","21","","","1","21","training","adjacent","FE","6","5","O.jpg","R.jpg","0","0","1","",""
"","feedback","","html-keyboard-response","143","229035","0.0-1.0-195.0-0.0","0","0","53056","","null","","","null","21","","","","","","","","","","","","","","","",""
"","ITI","","html-keyboard-response","144","230039","0.0-1.0-198.0","0","0","53056","","null","","","null","21","","","","","","","","","","","","","","","NaN",""
"","S1","","html-keyboard-response","145","230300","0.0-1.0-200.0","0","0","53056","","null","","","null","22","","","","","","","","","","","","","","","",""
"","ISI","","html-keyboard-response","146","231305","0.0-1.0-201.0","0","0","53056","","null","","","null","22","NaN","","","","","","","","","","","","","","",""
"","S2","","html-keyboard-response","147","231560","0.0-1.0-202.0","0","0","53056","","null","","","null","22","","NaN","","","","","","","","","","","","","",""
"","response","","html-keyboard-response","148","231952","0.0-1.0-203.0-0.0","0","0","53056","","389","","","68","22","","","1","22","training","adjacent","CD","3","4","M.jpg","Q.jpg","1","1","1","",""
"","feedback","","html-keyboard-response","149","232959","0.0-1.0-204.0-0.0","0","0","53056","","null","","","null","22","","","","","","","","","","","","","","","",""
"","ITI","","html-keyboard-response","150","233968","0.0-1.0-207.0","0","0","53056","","null","","","null","22","","","","","","","","","","","","","","","NaN",""
"","S1","","html-keyboard-response","151","234225","0.0-1.0-209.0","0","0","53056","","null","","","null","23","","","","","","","","","","","","","","","",""
"","ISI","","html-keyboard-response","152","235235","0.0-1.0-210.0","0","0","53056","","null","","","null","23","NaN","","","","","","","","","","","","","","",""
"","S2","","html-keyboard-response","153","235490","0.0-1.0-211.0","0","0","53056","","null","","","null","23","","NaN","","","","","","","","","","","","","",""
"","response","","html-keyboard-response","154","235954","0.0-1.0-212.0-0.0","0","0","53056","","461","","","75","23","","","1","23","training","adjacent","BC","2","3","L.jpg","M.jpg","0","1","0","",""
"","feedback","","html-keyboard-response","155","236964","0.0-1.0-213.0-0.0","0","0","53056","","null","","","null","23","","","","","","","","","","","","","","","",""
"","time_out","","html-keyboard-response","156","238972","0.0-1.0-215.0-0.0","0","0","53056","","null","","","null","23","","","","","","","","","","","","","","","",""
"","ITI","","html-keyboard-response","157","239977","0.0-1.0-216.0","0","0","53056","","null","","","null","23","","","","","","","","","","","","","","","NaN",""
"","S1","","html-keyboard-response","158","240233","0.0-1.0-218.0","0","0","53056","","null","","","null","24","","","","","","","","","","","","","","","",""
"","ISI","","html-keyboard-response","159","241243","0.0-1.0-219.0","0","0","53056","","null","","","null","24","NaN","","","","","","","","","","","","","","",""
"","S2","","html-keyboard-response","160","241504","0.0-1.0-220.0","0","0","53056","","null","","","null","24","","NaN","","","","","","","","","","","","","",""
"","response","","html-keyboard-response","161","241855","0.0-1.0-221.0-0.0","0","0","53056","","349","","","68","24","","","1","24","training","adjacent","ED","5","4","R.jpg","Q.jpg","1","0","0","",""
"","feedback","","html-keyboard-response","162","242868","0.0-1.0-222.0-0.0","0","0","53056","","null","","","null","24","","","","","","","","","","","","","","","",""
"","time_out","","html-keyboard-response","163","244876","0.0-1.0-224.0-0.0","0","0","53056","","null","","","null","24","","","","","","","","","","","","","","","",""
"","ITI","","html-keyboard-response","164","245881","0.0-1.0-225.0","0","0","53056","","null","","","null","24","","","","","","","","","","","","","","","NaN",""
"","S1","","html-keyboard-response","165","246136","0.0-1.0-227.0","0","0","53056","","null","","","null","25","","","","","","","","","","","","","","","",""
"","ISI","","html-keyboard-response","166","247146","0.0-1.0-228.0","0","0","53056","","null","","","null","25","NaN","","","","","","","","","","","","","","",""
"","S2","","html-keyboard-response","167","247402","0.0-1.0-229.0","0","0","53056","","null","","","null","25","","NaN","","","","","","","","","","","","","",""
"","response","","html-keyboard-response","168","247688","0.0-1.0-230.0-0.0","0","0","53056","","285","","","75","25","","","1","25","training","adjacent","FE","6","5","O.jpg","R.jpg","0","0","1","",""
"","feedback","","html-keyboard-response","169","248694","0.0-1.0-231.0-0.0","0","0","53056","","null","","","null","25","","","","","","","","","","","","","","","",""
"","ITI","","html-keyboard-response","170","249706","0.0-1.0-234.0","0","0","53056","","null","","","null","25","","","","","","","","","","","","","","","NaN",""
"","S1","","html-keyboard-response","171","249962","0.0-1.0-236.0","0","0","53056","","null","","","null","26","","","","","","","","","","","","","","","",""
"","ISI","","html-keyboard-response","172","250971","0.0-1.0-237.0","0","0","53056","","null","","","null","26","NaN","","","","","","","","","","","","","","",""
"","S2","","html-keyboard-response","173","251232","0.0-1.0-238.0","0","0","53056","","null","","","null","26","","NaN","","","","","","","","","","","","","",""
"","response","","html-keyboard-response","174","251584","0.0-1.0-239.0-0.0","0","0","53056","","349","","","68","26","","","1","26","training","adjacent","DC","4","3","Q.jpg","M.jpg","1","0","0","",""
"","feedback","","html-keyboard-response","175","252591","0.0-1.0-240.0-0.0","0","0","53056","","null","","","null","26","","","","","","","","","","","","","","","",""
"","time_out","","html-keyboard-response","176","254600","0.0-1.0-242.0-0.0","0","0","53056","","null","","","null","26","","","","","","","","","","","","","","","",""
"","ITI","","html-keyboard-response","177","255610","0.0-1.0-243.0","0","0","53056","","null","","","null","26","","","","","","","","","","","","","","","NaN",""
"","S1","","html-keyboard-response","178","255865","0.0-1.0-245.0","0","0","53056","","null","","","null","27","","","","","","","","","","","","","","","",""
"","ISI","","html-keyboard-response","179","256875","0.0-1.0-246.0","0","0","53056","","null","","","null","27","NaN","","","","","","","","","","","","","","",""
"","S2","","html-keyboard-response","180","257137","0.0-1.0-247.0","0","0","53056","","null","","","null","27","","NaN","","","","","","","","","","","","","",""
"","response","","html-keyboard-response","181","257493","0.0-1.0-248.0-0.0","0","0","53056","","355","","","68","27","","","1","27","training","adjacent","EF","5","6","R.jpg","O.jpg","1","1","1","",""
"","feedback","","html-keyboard-response","182","258506","0.0-1.0-249.0-0.0","0","0","53056","","null","","","null","27","","","","","","","","","","","","","","","",""
"","ITI","","html-keyboard-response","183","259511","0.0-1.0-252.0","0","0","53056","","null","","","null","27","","","","","","","","","","","","","","","NaN",""
"","S1","","html-keyboard-response","184","259767","0.0-1.0-254.0","0","0","53056","","null","","","null","28","","","","","","","","","","","","","","","",""
"","ISI","","html-keyboard-response","185","260776","0.0-1.0-255.0","0","0","53056","","null","","","null","28","NaN","","","","","","","","","","","","","","",""
"","S2","","html-keyboard-response","186","261031","0.0-1.0-256.0","0","0","53056","","null","","","null","28","","NaN","","","","","","","","","","","","","",""
"","response","","html-keyboard-response","187","261411","0.0-1.0-257.0-0.0","0","0","53056","","378","","","68","28","","","1","28","training","adjacent","DE","4","5","Q.jpg","R.jpg","1","1","1","",""
"","feedback","","html-keyboard-response","188","262419","0.0-1.0-258.0-0.0","0","0","53056","","null","","","null","28","","","","","","","","","","","","","","","",""
"","ITI","","html-keyboard-response","189","263423","0.0-1.0-261.0","0","0","53056","","null","","","null","28","","","","","","","","","","","","","","","NaN",""
"","S1","","html-keyboard-response","190","263679","0.0-1.0-263.0","0","0","53056","","null","","","null","29","","","","","","","","","","","","","","","",""
"","ISI","","html-keyboard-response","191","264683","0.0-1.0-264.0","0","0","53056","","null","","","null","29","NaN","","","","","","","","","","","","","","",""
"","S2","","html-keyboard-response","192","264944","0.0-1.0-265.0","0","0","53056","","null","","","null","29","","NaN","","","","","","","","","","","","","",""
"","response","","html-keyboard-response","193","265212","0.0-1.0-266.0-0.0","0","0","53056","","265","","","75","29","","","1","29","training","adjacent","DC","4","3","Q.jpg","M.jpg","0","0","1","",""
"","feedback","","html-keyboard-response","194","266215","0.0-1.0-267.0-0.0","0","0","53056","","null","","","null","29","","","","","","","","","","","","","","","",""
"","ITI","","html-keyboard-response","195","267225","0.0-1.0-270.0","0","0","53056","","null","","","null","29","","","","","","","","","","","","","","","NaN",""
"","S1","","html-keyboard-response","196","267481","0.0-1.0-272.0","0","0","53056","","null","","","null","30","","","","","","","","","","","","","","","",""
"","ISI","","html-keyboard-response","197","268491","0.0-1.0-273.0","0","0","53056","","null","","","null","30","NaN","","","","","","","","","","","","","","",""
"","S2","","html-keyboard-response","198","268752","0.0-1.0-274.0","0","0","53056","","null","","","null","30","","NaN","","","","","","","","","","","","","",""
"","response","","html-keyboard-response","199","269192","0.0-1.0-275.0-0.0","0","0","53056","","438","","","68","30","","","1","30","training","adjacent","BA","2","1","L.jpg","P.jpg","1","0","0","",""
"","feedback","","html-keyboard-response","200","270203","0.0-1.0-276.0-0.0","0","0","53056","","null","","","null","30","","","","","","","","","","","","","","","",""
"","time_out","","html-keyboard-response","201","272207","0.0-1.0-278.0-0.0","0","0","53056","","null","","","null","30","","","","","","","","","","","","","","","",""
"","ITI","","html-keyboard-response","202","273215","0.0-1.0-279.0","0","0","53056","","null","","","null","30","","","","","","","","","","","","","","","NaN",""
"","S1","","html-keyboard-response","203","273470","0.0-1.0-281.0","0","0","53056","","null","","","null","31","","","","","","","","","","","","","","","",""
"","ISI","","html-keyboard-response","204","274481","0.0-1.0-282.0","0","0","53056","","null","","","null","31","NaN","","","","","","","","","","","","","","",""
"","S2","","html-keyboard-response","205","274736","0.0-1.0-283.0","0","0","53056","","null","","","null","31","","NaN","","","","","","","","","","","","","",""
"","response","","html-keyboard-response","206","275268","0.0-1.0-284.0-0.0","0","0","53056","","531","","","68","31","","","1","31","training","adjacent","AB","1","2","P.jpg","L.jpg","1","1","1","",""
"","feedback","","html-keyboard-response","207","276281","0.0-1.0-285.0-0.0","0","0","53056","","null","","","null","31","","","","","","","","","","","","","","","",""
"","ITI","","html-keyboard-response","208","277291","0.0-1.0-288.0","0","0","53056","","null","","","null","31","","","","","","","","","","","","","","","NaN",""
"","S1","","html-keyboard-response","209","277552","0.0-1.0-290.0","0","0","53056","","null","","","null","32","","","","","","","","","","","","","","","",""
"","ISI","","html-keyboard-response","210","278562","0.0-1.0-291.0","0","0","53056","","null","","","null","32","NaN","","","","","","","","","","","","","","",""
"","S2","","html-keyboard-response","211","278823","0.0-1.0-292.0","0","0","53056","","null","","","null","32","","NaN","","","","","","","","","","","","","",""
"","response","","html-keyboard-response","212","279364","0.0-1.0-293.0-0.0","0","0","53056","","538","","","75","32","","","1","32","training","adjacent","EF","5","6","R.jpg","O.jpg","0","1","0","",""
"","feedback","","html-keyboard-response","213","280368","0.0-1.0-294.0-0.0","0","0","53056","","null","","","null","32","","","","","","","","","","","","","","","",""
"","time_out","","html-keyboard-response","214","282376","0.0-1.0-296.0-0.0","0","0","53056","","null","","","null","32","","","","","","","","","","","","","","","",""
"","ITI","","html-keyboard-response","215","283386","0.0-1.0-297.0","0","0","53056","","null","","","null","32","","","","","","","","","","","","","","","NaN",""
"","S1","","html-keyboard-response","216","283642","0.0-1.0-299.0","0","0","53056","","null","","","null","33","","","","","","","","","","","","","","","",""
"","ISI","","html-keyboard-response","217","284651","0.0-1.0-300.0","0","0","53056","","null","","","null","33","NaN","","","","","","","","","","","","","","",""
"","S2","","html-keyboard-response","218","284913","0.0-1.0-301.0","0","0","53056","","null","","","null","33","","NaN","","","","","","","","","","","","","",""
"","response","","html-keyboard-response","219","285282","0.0-1.0-302.0-0.0","0","0","53056","","368","","","68","33","","","1","33","training","adjacent","GF","7","6","N.jpg","O.jpg","1","0","0","",""
"","feedback","","html-keyboard-response","220","286289","0.0-1.0-303.0-0.0","0","0","53056","","null","","","null","33","","","","","","","","","","","","","","","",""
"","time_out","","html-keyboard-response","221","288296","0.0-1.0-305.0-0.0","0","0","53056","","null","","","null","33","","","","","","","","","","","","","","","",""
"","ITI","","html-keyboard-response","222","289307","0.0-1.0-306.0","0","0","53056","","null","","","null","33","","","","","","","","","","","","","","","NaN",""
"","S1","","html-keyboard-response","223","289568","0.0-1.0-308.0","0","0","53056","","null","","","null","34","","","","","","","","","","","","","","","",""
"","ISI","","html-keyboard-response","224","290578","0.0-1.0-309.0","0","0","53056","","null","","","null","34","NaN","","","","","","","","","","","","","","",""
"","S2","","html-keyboard-response","225","290840","0.0-1.0-310.0","0","0","53056","","null","","","null","34","","NaN","","","","","","","","","","","","","",""
"","response","","html-keyboard-response","226","291193","0.0-1.0-311.0-0.0","0","0","53056","","352","","","68","34","","","1","34","training","adjacent","BA","2","1","L.jpg","P.jpg","1","0","0","",""
"","feedback","","html-keyboard-response","227","292199","0.0-1.0-312.0-0.0","0","0","53056","","null","","","null","34","","","","","","","","","","","","","","","",""
"","time_out","","html-keyboard-response","228","294206","0.0-1.0-314.0-0.0","0","0","53056","","null","","","null","34","","","","","","","","","","","","","","","",""
"","ITI","","html-keyboard-response","229","295216","0.0-1.0-315.0","0","0","53056","","null","","","null","34","","","","","","","","","","","","","","","NaN",""
"","S1","","html-keyboard-response","230","295472","0.0-1.0-317.0","0","0","53056","","null","","","null","35","","","","","","","","","","","","","","","",""
"","ISI","","html-keyboard-response","231","296482","0.0-1.0-318.0","0","0","53056","","null","","","null","35","NaN","","","","","","","","","","","","","","",""
"","S2","","html-keyboard-response","232","296743","0.0-1.0-319.0","0","0","53056","","null","","","null","35","","NaN","","","","","","","","","","","","","",""
"","response","","html-keyboard-response","233","297105","0.0-1.0-320.0-0.0","0","0","53056","","360","","","68","35","","","1","35","training","adjacent","ED","5","4","R.jpg","Q.jpg","1","0","0","",""
"","feedback","","html-keyboard-response","234","298113","0.0-1.0-321.0-0.0","0","0","53056","","null","","","null","35","","","","","","","","","","","","","","","",""
"","time_out","","html-keyboard-response","235","300121","0.0-1.0-323.0-0.0","0","0","53056","","null","","","null","35","","","","","","","","","","","","","","","",""
"","ITI","","html-keyboard-response","236","301126","0.0-1.0-324.0","0","0","53056","","null","","","null","35","","","","","","","","","","","","","","","NaN",""
"","S1","","html-keyboard-response","237","301385","0.0-1.0-326.0","0","0","53056","","null","","","null","36","","","","","","","","","","","","","","","",""
"","ISI","","html-keyboard-response","238","302391","0.0-1.0-327.0","0","0","53056","","null","","","null","36","NaN","","","","","","","","","","","","","","",""
"","S2","","html-keyboard-response","239","302647","0.0-1.0-328.0","0","0","53056","","null","","","null","36","","NaN","","","","","","","","","","","","","",""
"","response","","html-keyboard-response","240","303009","0.0-1.0-329.0-0.0","0","0","53056","","360","","","75","36","","","1","36","training","adjacent","BC","2","3","L.jpg","M.jpg","0","1","0","",""
"","feedback","","html-keyboard-response","241","304017","0.0-1.0-330.0-0.0","0","0","53056","","null","","","null","36","","","","","","","","","","","","","","","",""
"","time_out","","html-keyboard-response","242","306024","0.0-1.0-332.0-0.0","0","0","53056","","null","","","null","36","","","","","","","","","","","","","","","",""
"","ITI","","html-keyboard-response","243","307035","0.0-1.0-333.0","0","0","53056","","null","","","null","36","","","","","","","","","","","","","","","NaN",""
"","S1","","html-keyboard-response","244","307296","0.0-1.0-335.0","0","0","53056","","null","","","null","37","","","","","","","","","","","","","","","",""
"","ISI","","html-keyboard-response","245","308306","0.0-1.0-336.0","0","0","53056","","null","","","null","37","NaN","","","","","","","","","","","","","","",""
"","S2","","html-keyboard-response","246","308568","0.0-1.0-337.0","0","0","53056","","null","","","null","37","","NaN","","","","","","","","","","","","","",""
"","response","","html-keyboard-response","247","308986","0.0-1.0-338.0-0.0","0","0","53056","","416","","","75","37","","","1","37","training","adjacent","GF","7","6","N.jpg","O.jpg","0","0","1","",""
"","feedback","","html-keyboard-response","248","309990","0.0-1.0-339.0-0.0","0","0","53056","","null","","","null","37","","","","","","","","","","","","","","","",""
"","ITI","","html-keyboard-response","249","311000","0.0-1.0-342.0","0","0","53056","","null","","","null","37","","","","","","","","","","","","","","","NaN",""
"","S1","","html-keyboard-response","250","311255","0.0-1.0-344.0","0","0","53056","","null","","","null","38","","","","","","","","","","","","","","","",""
"","ISI","","html-keyboard-response","251","312265","0.0-1.0-345.0","0","0","53056","","null","","","null","38","NaN","","","","","","","","","","","","","","",""
"","S2","","html-keyboard-response","252","312526","0.0-1.0-346.0","0","0","53056","","null","","","null","38","","NaN","","","","","","","","","","","","","",""
"","response","","html-keyboard-response","253","312865","0.0-1.0-347.0-0.0","0","0","53056","","337","","","68","38","","","1","38","training","adjacent","FE","6","5","O.jpg","R.jpg","1","0","0","",""
"","feedback","","html-keyboard-response","254","313872","0.0-1.0-348.0-0.0","0","0","53056","","null","","","null","38","","","","","","","","","","","","","","","",""
"","time_out","","html-keyboard-response","255","315882","0.0-1.0-350.0-0.0","0","0","53056","","null","","","null","38","","","","","","","","","","","","","","","",""
"","ITI","","html-keyboard-response","256","316886","0.0-1.0-351.0","0","0","53056","","null","","","null","38","","","","","","","","","","","","","","","NaN",""
"","S1","","html-keyboard-response","257","317142","0.0-1.0-353.0","0","0","53056","","null","","","null","39","","","","","","","","","","","","","","","",""
"","ISI","","html-keyboard-response","258","318151","0.0-1.0-354.0","0","0","53056","","null","","","null","39","NaN","","","","","","","","","","","","","","",""
"","S2","","html-keyboard-response","259","318407","0.0-1.0-355.0","0","0","53056","","null","","","null","39","","NaN","","","","","","","","","","","","","",""
"","response","","html-keyboard-response","260","318945","0.0-1.0-356.0-0.0","0","0","53056","","537","","","68","39","","","1","39","training","adjacent","AB","1","2","P.jpg","L.jpg","1","1","1","",""
"","feedback","","html-keyboard-response","261","319951","0.0-1.0-357.0-0.0","0","0","53056","","null","","","null","39","","","","","","","","","","","","","","","",""
"","ITI","","html-keyboard-response","262","320961","0.0-1.0-360.0","0","0","53056","","null","","","null","39","","","","","","","","","","","","","","","NaN",""
"","S1","","html-keyboard-response","263","321216","0.0-1.0-362.0","0","0","53056","","null","","","null","40","","","","","","","","","","","","","","","",""
"","ISI","","html-keyboard-response","264","322227","0.0-1.0-363.0","0","0","53056","","null","","","null","40","NaN","","","","","","","","","","","","","","",""
"","S2","","html-keyboard-response","265","322488","0.0-1.0-364.0","0","0","53056","","null","","","null","40","","NaN","","","","","","","","","","","","","",""
"","response","","html-keyboard-response","266","322793","0.0-1.0-365.0-0.0","0","0","53056","","304","","","68","40","","","1","40","training","adjacent","AB","1","2","P.jpg","L.jpg","1","1","1","",""
"","feedback","","html-keyboard-response","267","323799","0.0-1.0-366.0-0.0","0","0","53056","","null","","","null","40","","","","","","","","","","","","","","","",""
"","ITI","","html-keyboard-response","268","324809","0.0-1.0-369.0","0","0","53056","","null","","","null","40","","","","","","","","","","","","","","","NaN",""
"","S1","","html-keyboard-response","269","325071","0.0-1.0-371.0","0","0","53056","","null","","","null","41","","","","","","","","","","","","","","","",""
"","ISI","","html-keyboard-response","270","326081","0.0-1.0-372.0","0","0","53056","","null","","","null","41","NaN","","","","","","","","","","","","","","",""
"","S2","","html-keyboard-response","271","326336","0.0-1.0-373.0","0","0","53056","","null","","","null","41","","NaN","","","","","","","","","","","","","",""
"","response","","html-keyboard-response","272","326537","0.0-1.0-374.0-0.0","0","0","53056","","198","","","75","41","","","1","41","training","adjacent","AB","1","2","P.jpg","L.jpg","0","1","0","",""
"","feedback","","html-keyboard-response","273","327544","0.0-1.0-375.0-0.0","0","0","53056","","null","","","null","41","","","","","","","","","","","","","","","",""
"","time_out","","html-keyboard-response","274","329552","0.0-1.0-377.0-0.0","0","0","53056","","null","","","null","41","","","","","","","","","","","","","","","",""
"","ITI","","html-keyboard-response","275","330562","0.0-1.0-378.0","0","0","53056","","null","","","null","41","","","","","","","","","","","","","","","NaN",""
"","S1","","html-keyboard-response","276","330823","0.0-1.0-380.0","0","0","53056","","null","","","null","42","","","","","","","","","","","","","","","",""
"","ISI","","html-keyboard-response","277","331833","0.0-1.0-381.0","0","0","53056","","null","","","null","42","NaN","","","","","","","","","","","","","","",""
"","S2","","html-keyboard-response","278","332095","0.0-1.0-382.0","0","0","53056","","null","","","null","42","","NaN","","","","","","","","","","","","","",""
"","response","","html-keyboard-response","279","332457","0.0-1.0-383.0-0.0","0","0","53056","","360","","","68","42","","","1","42","training","adjacent","CB","3","2","M.jpg","L.jpg","1","0","0","",""
"","feedback","","html-keyboard-response","280","333464","0.0-1.0-384.0-0.0","0","0","53056","","null","","","null","42","","","","","","","","","","","","","","","",""
"","time_out","","html-keyboard-response","281","335473","0.0-1.0-386.0-0.0","0","0","53056","","null","","","null","42","","","","","","","","","","","","","","","",""
"","ITI","","html-keyboard-response","282","336477","0.0-1.0-387.0","0","0","53056","","null","","","null","42","","","","","","","","","","","","","","","NaN",""
"","S1","","html-keyboard-response","283","336738","0.0-1.0-389.0","0","0","53056","","null","","","null","43","","","","","","","","","","","","","","","",""
"","ISI","","html-keyboard-response","284","337743","0.0-1.0-390.0","0","0","53056","","null","","","null","43","NaN","","","","","","","","","","","","","","",""
"","S2","","html-keyboard-response","285","337998","0.0-1.0-391.0","0","0","53056","","null","","","null","43","","NaN","","","","","","","","","","","","","",""
"","response","","html-keyboard-response","286","338257","0.0-1.0-392.0-0.0","0","0","53056","","256","","","68","43","","","1","43","training","adjacent","FG","6","7","O.jpg","N.jpg","1","1","1","",""
"","feedback","","html-keyboard-response","287","339264","0.0-1.0-393.0-0.0","0","0","53056","","null","","","null","43","","","","","","","","","","","","","","","",""
"","ITI","","html-keyboard-response","288","340274","0.0-1.0-396.0","0","0","53056","","null","","","null","43","","","","","","","","","","","","","","","NaN",""
"","S1","","html-keyboard-response","289","340535","0.0-1.0-398.0","0","0","53056","","null","","","null","44","","","","","","","","","","","","","","","",""
"","ISI","","html-keyboard-response","290","341545","0.0-1.0-399.0","0","0","53056","","null","","","null","44","NaN","","","","","","","","","","","","","","",""
"","S2","","html-keyboard-response","291","341806","0.0-1.0-400.0","0","0","53056","","null","","","null","44","","NaN","","","","","","","","","","","","","",""
"","response","","html-keyboard-response","292","342232","0.0-1.0-401.0-0.0","0","0","53056","","425","","","75","44","","","1","44","training","adjacent","ED","5","4","R.jpg","Q.jpg","0","0","1","",""
"","feedback","","html-keyboard-response","293","343240","0.0-1.0-402.0-0.0","0","0","53056","","null","","","null","44","","","","","","","","","","","","","","","",""
"","ITI","","html-keyboard-response","294","344250","0.0-1.0-405.0","0","0","53056","","null","","","null","44","","","","","","","","","","","","","","","NaN",""
"","S1","","html-keyboard-response","295","344511","0.0-1.0-407.0","0","0","53056","","null","","","null","45","","","","","","","","","","","","","","","",""
"","ISI","","html-keyboard-response","296","345521","0.0-1.0-408.0","0","0","53056","","null","","","null","45","NaN","","","","","","","","","","","","","","",""
"","S2","","html-keyboard-response","297","345782","0.0-1.0-409.0","0","0","53056","","null","","","null","45","","NaN","","","","","","","","","","","","","",""
"","response","","html-keyboard-response","298","346160","0.0-1.0-410.0-0.0","0","0","53056","","376","","","68","45","","","1","45","training","adjacent","EF","5","6","R.jpg","O.jpg","1","1","1","",""
"","feedback","","html-keyboard-response","299","347170","0.0-1.0-411.0-0.0","0","0","53056","","null","","","null","45","","","","","","","","","","","","","","","",""
"","ITI","","html-keyboard-response","300","348174","0.0-1.0-414.0","0","0","53056","","null","","","null","45","","","","","","","","","","","","","","","NaN",""
"","S1","","html-keyboard-response","301","348430","0.0-1.0-416.0","0","0","53056","","null","","","null","46","","","","","","","","","","","","","","","",""
"","ISI","","html-keyboard-response","302","349439","0.0-1.0-417.0","0","0","53056","","null","","","null","46","NaN","","","","","","","","","","","","","","",""
"","S2","","html-keyboard-response","303","349695","0.0-1.0-418.0","0","0","53056","","null","","","null","46","","NaN","","","","","","","","","","","","","",""
"","response","","html-keyboard-response","304","350009","0.0-1.0-419.0-0.0","0","0","53056","","311","","","68","46","","","1","46","training","adjacent","CB","3","2","M.jpg","L.jpg","1","0","0","",""
"","feedback","","html-keyboard-response","305","351013","0.0-1.0-420.0-0.0","0","0","53056","","null","","","null","46","","","","","","","","","","","","","","","",""
"","time_out","","html-keyboard-response","306","353021","0.0-1.0-422.0-0.0","0","0","53056","","null","","","null","46","","","","","","","","","","","","","","","",""
"","ITI","","html-keyboard-response","307","354031","0.0-1.0-423.0","0","0","53056","","null","","","null","46","","","","","","","","","","","","","","","NaN",""
"","S1","","html-keyboard-response","308","354286","0.0-1.0-425.0","0","0","53056","","null","","","null","47","","","","","","","","","","","","","","","",""
"","ISI","","html-keyboard-response","309","355297","0.0-1.0-426.0","0","0","53056","","null","","","null","47","NaN","","","","","","","","","","","","","","",""
"","S2","","html-keyboard-response","310","355558","0.0-1.0-427.0","0","0","53056","","null","","","null","47","","NaN","","","","","","","","","","","","","",""
"","response","","html-keyboard-response","311","355864","0.0-1.0-428.0-0.0","0","0","53056","","304","","","68","47","","","1","47","training","adjacent","BC","2","3","L.jpg","M.jpg","1","1","1","",""
"","feedback","","html-keyboard-response","312","356870","0.0-1.0-429.0-0.0","0","0","53056","","null","","","null","47","","","","","","","","","","","","","","","",""
"","ITI","","html-keyboard-response","313","357880","0.0-1.0-432.0","0","0","53056","","null","","","null","47","","","","","","","","","","","","","","","NaN",""
"","block_over","","html-keyboard-response","314","362632","0.0-1.0-433.0-0.0","0","0","53056","","4750","","","32","47","","","","","","","","","","","","","","","",""
"","S1","","html-keyboard-response","315","362896","0.0-1.0-434.0","0","0","53056","","null","","","null","48","","","","","","","","","","","","","","","",""
"","ISI","","html-keyboard-response","316","363905","0.0-1.0-435.0","0","0","53056","","null","","","null","48","NaN","","","","","","","","","","","","","","",""
"","S2","","html-keyboard-response","317","364166","0.0-1.0-436.0","0","0","53056","","null","","","null","48","","NaN","","","","","","","","","","","","","",""
"","response","","html-keyboard-response","318","364504","0.0-1.0-437.0-0.0","0","0","53056","","337","","","68","48","","","2","48","training","adjacent","DC","4","3","Q.jpg","M.jpg","1","0","0","",""
"","feedback","","html-keyboard-response","319","365513","0.0-1.0-438.0-0.0","0","0","53056","","null","","","null","48","","","","","","","","","","","","","","","",""
"","time_out","","html-keyboard-response","320","367521","0.0-1.0-440.0-0.0","0","0","53056","","null","","","null","48","","","","","","","","","","","","","","","",""
"","ITI","","html-keyboard-response","321","368526","0.0-1.0-441.0","0","0","53056","","null","","","null","48","","","","","","","","","","","","","","","NaN",""
"","S1","","html-keyboard-response","322","368781","0.0-1.0-443.0","0","0","53056","","null","","","null","49","","","","","","","","","","","","","","","",""
"","ISI","","html-keyboard-response","323","369792","0.0-1.0-444.0","0","0","53056","","null","","","null","49","NaN","","","","","","","","","","","","","","",""
"","S2","","html-keyboard-response","324","370047","0.0-1.0-445.0","0","0","53056","","null","","","null","49","","NaN","","","","","","","","","","","","","",""
"","response","","html-keyboard-response","325","370688","0.0-1.0-446.0-0.0","0","0","53056","","638","","","75","49","","","2","49","training","adjacent","BC","2","3","L.jpg","M.jpg","0","1","0","",""
"","feedback","","html-keyboard-response","326","371696","0.0-1.0-447.0-0.0","0","0","53056","","null","","","null","49","","","","","","","","","","","","","","","",""
"","time_out","","html-keyboard-response","327","373704","0.0-1.0-449.0-0.0","0","0","53056","","null","","","null","49","","","","","","","","","","","","","","","",""
"","ITI","","html-keyboard-response","328","374709","0.0-1.0-450.0","0","0","53056","","null","","","null","49","","","","","","","","","","","","","","","NaN",""
"","S1","","html-keyboard-response","329","374964","0.0-1.0-452.0","0","0","53056","","null","","","null","50","","","","","","","","","","","","","","","",""
"","ISI","","html-keyboard-response","330","375974","0.0-1.0-453.0","0","0","53056","","146","","","68","50","d","","","","","","","","","","","","","","",""
"","S2","","html-keyboard-response","331","376229","0.0-1.0-454.0","0","0","53056","","null","","","null","50","","NaN","","","","","","","","","","","","","",""
"","response","","html-keyboard-response","332","376576","0.0-1.0-455.0-0.0","0","0","53056","","344","","","68","50","","","2","50","training","adjacent","CD","3","4","M.jpg","Q.jpg","1","1","1","",""
"","feedback","","html-keyboard-response","333","377581","0.0-1.0-456.0-0.0","0","0","53056","","null","","","null","50","","","","","","","","","","","","","","","",""
"","ITI","","html-keyboard-response","334","378592","0.0-1.0-459.0","0","0","53056","","null","","","null","50","","","","","","","","","","","","","","","NaN",""
"","S1","","html-keyboard-response","335","378847","0.0-1.0-461.0","0","0","53056","","null","","","null","51","","","","","","","","","","","","","","","",""
"","ISI","","html-keyboard-response","336","379857","0.0-1.0-462.0","0","0","53056","","null","","","null","51","NaN","","","","","","","","","","","","","","",""
"","S2","","html-keyboard-response","337","380118","0.0-1.0-463.0","0","0","53056","","null","","","null","51","","NaN","","","","","","","","","","","","","",""
"","response","","html-keyboard-response","338","380240","0.0-1.0-464.0-0.0","0","0","53056","","119","","","75","51","","","2","51","training","adjacent","CB","3","2","M.jpg","L.jpg","0","0","1","",""
"","feedback","","html-keyboard-response","339","381247","0.0-1.0-465.0-0.0","0","0","53056","","null","","","null","51","","","","","","","","","","","","","","","",""
"","ITI","","html-keyboard-response","340","382255","0.0-1.0-468.0","0","0","53056","","null","","","null","51","","","","","","","","","","","","","","","NaN",""
"","S1","","html-keyboard-response","341","382510","0.0-1.0-470.0","0","0","53056","","null","","","null","52","","","","","","","","","","","","","","","",""
"","ISI","","html-keyboard-response","342","383520","0.0-1.0-471.0","0","0","53056","","null","","","null","52","NaN","","","","","","","","","","","","","","",""
"","S2","","html-keyboard-response","343","383781","0.0-1.0-472.0","0","0","53056","","null","","","null","52","","NaN","","","","","","","","","","","","","",""
"","response","","html-keyboard-response","344","384088","0.0-1.0-473.0-0.0","0","0","53056","","304","","","68","52","","","2","52","training","adjacent","GF","7","6","N.jpg","O.jpg","1","0","0","",""
"","feedback","","html-keyboard-response","345","385093","0.0-1.0-474.0-0.0","0","0","53056","","null","","","null","52","","","","","","","","","","","","","","","",""
"","time_out","","html-keyboard-response","346","387101","0.0-1.0-476.0-0.0","0","0","53056","","null","","","null","52","","","","","","","","","","","","","","","",""
"","ITI","","html-keyboard-response","347","388111","0.0-1.0-477.0","0","0","53056","","null","","","null","52","","","","","","","","","","","","","","","NaN",""
"","S1","","html-keyboard-response","348","388367","0.0-1.0-479.0","0","0","53056","","null","","","null","53","","","","","","","","","","","","","","","",""
"","ISI","","html-keyboard-response","349","389372","0.0-1.0-480.0","0","0","53056","","null","","","null","53","NaN","","","","","","","","","","","","","","",""
"","S2","","html-keyboard-response","350","389627","0.0-1.0-481.0","0","0","53056","","null","","","null","53","","NaN","","","","","","","","","","","","","",""
"","response","","html-keyboard-response","351","390080","0.0-1.0-482.0-0.0","0","0","53056","","451","","","75","53","","","2","53","training","adjacent","BA","2","1","L.jpg","P.jpg","0","0","1","",""
"","feedback","","html-keyboard-response","352","391084","0.0-1.0-483.0-0.0","0","0","53056","","null","","","null","53","","","","","","","","","","","","","","","",""
"","ITI","","html-keyboard-response","353","392094","0.0-1.0-486.0","0","0","53056","","null","","","null","53","","","","","","","","","","","","","","","NaN",""
"","S1","","html-keyboard-response","354","392349","0.0-1.0-488.0","0","0","53056","","null","","","null","54","","","","","","","","","","","","","","","",""
"","ISI","","html-keyboard-response","355","393358","0.0-1.0-489.0","0","0","53056","","null","","","null","54","NaN","","","","","","","","","","","","","","",""
"","S2","","html-keyboard-response","356","393615","0.0-1.0-490.0","0","0","53056","","null","","","null","54","","NaN","","","","","","","","","","","","","",""
"","response","","html-keyboard-response","357","394295","0.0-1.0-491.0-0.0","0","0","53056","","679","","","75","54","","","2","54","training","adjacent","CD","3","4","M.jpg","Q.jpg","0","1","0","",""
"","feedback","","html-keyboard-response","358","395303","0.0-1.0-492.0-0.0","0","0","53056","","null","","","null","54","","","","","","","","","","","","","","","",""
"","time_out","","html-keyboard-response","359","397311","0.0-1.0-494.0-0.0","0","0","53056","","null","","","null","54","","","","","","","","","","","","","","","",""
"","ITI","","html-keyboard-response","360","398317","0.0-1.0-495.0","0","0","53056","","null","","","null","54","","","","","","","","","","","","","","","NaN",""
"","S1","","html-keyboard-response","361","398572","0.0-1.0-497.0","0","0","53056","","null","","","null","55","","","","","","","","","","","","","","","",""
"","ISI","","html-keyboard-response","362","399582","0.0-1.0-498.0","0","0","53056","","null","","","null","55","NaN","","","","","","","","","","","","","","",""
"","S2","","html-keyboard-response","363","399837","0.0-1.0-499.0","0","0","53056","","null","","","null","55","","NaN","","","","","","","","","","","","","",""
"","response","","html-keyboard-response","364","400312","0.0-1.0-500.0-0.0","0","0","53056","","473","","","75","55","","","2","55","training","adjacent","FE","6","5","O.jpg","R.jpg","0","0","1","",""
"","feedback","","html-keyboard-response","365","401317","0.0-1.0-501.0-0.0","0","0","53056","","null","","","null","55","","","","","","","","","","","","","","","",""
"","ITI","","html-keyboard-response","366","402327","0.0-1.0-504.0","0","0","53056","","null","","","null","55","","","","","","","","","","","","","","","NaN",""
"","S1","","html-keyboard-response","367","402583","0.0-1.0-506.0","0","0","53056","","null","","","null","56","","","","","","","","","","","","","","","",""
"","ISI","","html-keyboard-response","368","403588","0.0-1.0-507.0","0","0","53056","","null","","","null","56","NaN","","","","","","","","","","","","","","",""
"","S2","","html-keyboard-response","369","403849","0.0-1.0-508.0","0","0","53056","","null","","","null","56","","NaN","","","","","","","","","","","","","",""
"","response","","html-keyboard-response","370","404199","0.0-1.0-509.0-0.0","0","0","53056","","349","","","75","56","","","2","56","training","adjacent","EF","5","6","R.jpg","O.jpg","0","1","0","",""
"","feedback","","html-keyboard-response","371","405207","0.0-1.0-510.0-0.0","0","0","53056","","null","","","null","56","","","","","","","","","","","","","","","",""
"","time_out","","html-keyboard-response","372","407215","0.0-1.0-512.0-0.0","0","0","53056","","null","","","null","56","","","","","","","","","","","","","","","",""
"","ITI","","html-keyboard-response","373","408220","0.0-1.0-513.0","0","0","53056","","null","","","null","56","","","","","","","","","","","","","","","NaN",""
"","S1","","html-keyboard-response","374","408481","0.0-1.0-515.0","0","0","53056","","null","","","null","57","","","","","","","","","","","","","","","",""
"","ISI","","html-keyboard-response","375","409485","0.0-1.0-516.0","0","0","53056","","null","","","null","57","NaN","","","","","","","","","","","","","","",""
"","S2","","html-keyboard-response","376","409740","0.0-1.0-517.0","0","0","53056","","null","","","null","57","","NaN","","","","","","","","","","","","","",""
"","response","","html-keyboard-response","377","410207","0.0-1.0-518.0-0.0","0","0","53056","","464","","","75","57","","","2","57","training","adjacent","BA","2","1","L.jpg","P.jpg","0","0","1","",""
"","feedback","","html-keyboard-response","378","411215","0.0-1.0-519.0-0.0","0","0","53056","","null","","","null","57","","","","","","","","","","","","","","","",""
"","ITI","","html-keyboard-response","379","412219","0.0-1.0-522.0","0","0","53056","","null","","","null","57","","","","","","","","","","","","","","","NaN",""
"","S1","","html-keyboard-response","380","412480","0.0-1.0-524.0","0","0","53056","","null","","","null","58","","","","","","","","","","","","","","","",""
"","ISI","","html-keyboard-response","381","413485","0.0-1.0-525.0","0","0","53056","","null","","","null","58","NaN","","","","","","","","","","","","","","",""
"","S2","","html-keyboard-response","382","413740","0.0-1.0-526.0","0","0","53056","","null","","","null","58","","NaN","","","","","","","","","","","","","",""
"","response","","html-keyboard-response","383","414215","0.0-1.0-527.0-0.0","0","0","53056","","473","","","68","58","","","2","58","training","adjacent","AB","1","2","P.jpg","L.jpg","1","1","1","",""
"","feedback","","html-keyboard-response","384","415220","0.0-1.0-528.0-0.0","0","0","53056","","null","","","null","58","","","","","","","","","","","","","","","",""
"","ITI","","html-keyboard-response","385","416230","0.0-1.0-531.0","0","0","53056","","null","","","null","58","","","","","","","","","","","","","","","NaN",""
"","S1","","html-keyboard-response","386","416486","0.0-1.0-533.0","0","0","53056","","null","","","null","59","","","","","","","","","","","","","","","",""
"","ISI","","html-keyboard-response","387","417496","0.0-1.0-534.0","0","0","53056","","null","","","null","59","NaN","","","","","","","","","","","","","","",""
"","S2","","html-keyboard-response","388","417757","0.0-1.0-535.0","0","0","53056","","null","","","null","59","","NaN","","","","","","","","","","","","","",""
"","response","","html-keyboard-response","389","418191","0.0-1.0-536.0-0.0","0","0","53056","","432","","","68","59","","","2","59","training","adjacent","BA","2","1","L.jpg","P.jpg","1","0","0","",""
"","feedback","","html-keyboard-response","390","419197","0.0-1.0-537.0-0.0","0","0","53056","","null","","","null","59","","","","","","","","","","","","","","","",""
"","time_out","","html-keyboard-response","391","421205","0.0-1.0-539.0-0.0","0","0","53056","","null","","","null","59","","","","","","","","","","","","","","","",""
"","ITI","","html-keyboard-response","392","422214","0.0-1.0-540.0","0","0","53056","","null","","","null","59","","","","","","","","","","","","","","","NaN",""
"","S1","","html-keyboard-response","393","422471","0.0-1.0-542.0","0","0","53056","","null","","","null","60","","","","","","","","","","","","","","","",""
"","ISI","","html-keyboard-response","394","423480","0.0-1.0-543.0","0","0","53056","","null","","","null","60","NaN","","","","","","","","","","","","","","",""
"","S2","","html-keyboard-response","395","423742","0.0-1.0-544.0","0","0","53056","","null","","","null","60","","NaN","","","","","","","","","","","","","",""
"","response","","html-keyboard-response","396","424100","0.0-1.0-545.0-0.0","0","0","53056","","355","","","68","60","","","2","60","training","adjacent","FG","6","7","O.jpg","N.jpg","1","1","1","",""
"","feedback","","html-keyboard-response","397","425112","0.0-1.0-546.0-0.0","0","0","53056","","null","","","null","60","","","","","","","","","","","","","","","",""
"","ITI","","html-keyboard-response","398","426116","0.0-1.0-549.0","0","0","53056","","null","","","null","60","","","","","","","","","","","","","","","NaN",""
"","S1","","html-keyboard-response","399","426371","0.0-1.0-551.0","0","0","53056","","null","","","null","61","","","","","","","","","","","","","","","",""
"","ISI","","html-keyboard-response","400","427381","0.0-1.0-552.0","0","0","53056","","null","","","null","61","NaN","","","","","","","","","","","","","","",""
"","S2","","html-keyboard-response","401","427637","0.0-1.0-553.0","0","0","53056","","null","","","null","61","","NaN","","","","","","","","","","","","","",""
"","response","","html-keyboard-response","402","428148","0.0-1.0-554.0-0.0","0","0","53056","","508","","","68","61","","","2","61","training","adjacent","CB","3","2","M.jpg","L.jpg","1","0","0","",""
"","feedback","","html-keyboard-response","403","429158","0.0-1.0-555.0-0.0","0","0","53056","","null","","","null","61","","","","","","","","","","","","","","","",""
"","time_out","","html-keyboard-response","404","431166","0.0-1.0-557.0-0.0","0","0","53056","","null","","","null","61","","","","","","","","","","","","","","","",""
"","ITI","","html-keyboard-response","405","432174","0.0-1.0-558.0","0","0","53056","","null","","","null","61","","","","","","","","","","","","","","","NaN",""
"","S1","","html-keyboard-response","406","432432","0.0-1.0-560.0","0","0","53056","","null","","","null","62","","","","","","","","","","","","","","","",""
"","ISI","","html-keyboard-response","407","433436","0.0-1.0-561.0","0","0","53056","","null","","","null","62","NaN","","","","","","","","","","","","","","",""
"","S2","","html-keyboard-response","408","433691","0.0-1.0-562.0","0","0","53056","","null","","","null","62","","NaN","","","","","","","","","","","","","",""
"","response","","html-keyboard-response","409","434187","0.0-1.0-563.0-0.0","0","0","53056","","494","","","68","62","","","2","62","training","adjacent","DE","4","5","Q.jpg","R.jpg","1","1","1","",""
"","feedback","","html-keyboard-response","410","435195","0.0-1.0-564.0-0.0","0","0","53056","","null","","","null","62","","","","","","","","","","","","","","","",""
"","ITI","","html-keyboard-response","411","436205","0.0-1.0-567.0","0","0","53056","","null","","","null","62","","","","","","","","","","","","","","","NaN",""
"","S1","","html-keyboard-response","412","436460","0.0-1.0-569.0","0","0","53056","","null","","","null","63","","","","","","","","","","","","","","","",""
"","ISI","","html-keyboard-response","413","437470","0.0-1.0-570.0","0","0","53056","","null","","","null","63","NaN","","","","","","","","","","","","","","",""
"","S2","","html-keyboard-response","414","437726","0.0-1.0-571.0","0","0","53056","","null","","","null","63","","NaN","","","","","","","","","","","","","",""
"","response","","html-keyboard-response","415","438222","0.0-1.0-572.0-0.0","0","0","53056","","495","","","75","63","","","2","63","training","adjacent","ED","5","4","R.jpg","Q.jpg","0","0","1","",""
"","feedback","","html-keyboard-response","416","439229","0.0-1.0-573.0-0.0","0","0","53056","","null","","","null","63","","","","","","","","","","","","","","","",""
"","ITI","","html-keyboard-response","417","440239","0.0-1.0-576.0","0","0","53056","","null","","","null","63","","","","","","","","","","","","","","","NaN",""
"","S1","","html-keyboard-response","418","440500","0.0-1.0-578.0","0","0","53056","","null","","","null","64","","","","","","","","","","","","","","","",""
"","ISI","","html-keyboard-response","419","441510","0.0-1.0-579.0","0","0","53056","","null","","","null","64","NaN","","","","","","","","","","","","","","",""
"","S2","","html-keyboard-response","420","441772","0.0-1.0-580.0","0","0","53056","","null","","","null","64","","NaN","","","","","","","","","","","","","",""
"","response","","html-keyboard-response","421","442582","0.0-1.0-581.0-0.0","0","0","53056","","808","","","68","64","","","2","64","training","adjacent","BC","2","3","L.jpg","M.jpg","1","1","1","",""
"","feedback","","html-keyboard-response","422","443589","0.0-1.0-582.0-0.0","0","0","53056","","null","","","null","64","","","","","","","","","","","","","","","",""
"","ITI","","html-keyboard-response","423","444599","0.0-1.0-585.0","0","0","53056","","null","","","null","64","","","","","","","","","","","","","","","NaN",""
"","S1","","html-keyboard-response","424","444860","0.0-1.0-587.0","0","0","53056","","null","","","null","65","","","","","","","","","","","","","","","",""
"","ISI","","html-keyboard-response","425","445870","0.0-1.0-588.0","0","0","53056","","null","","","null","65","NaN","","","","","","","","","","","","","","",""
"","S2","","html-keyboard-response","426","446125","0.0-1.0-589.0","0","0","53056","","null","","","null","65","","NaN","","","","","","","","","","","","","",""
"","response","","html-keyboard-response","427","446728","0.0-1.0-590.0-0.0","0","0","53056","","601","","","68","65","","","2","65","training","adjacent","FE","6","5","O.jpg","R.jpg","1","0","0","",""
"","feedback","","html-keyboard-response","428","447733","0.0-1.0-591.0-0.0","0","0","53056","","null","","","null","65","","","","","","","","","","","","","","","",""
"","time_out","","html-keyboard-response","429","449742","0.0-1.0-593.0-0.0","0","0","53056","","null","","","null","65","","","","","","","","","","","","","","","",""
"","ITI","","html-keyboard-response","430","450747","0.0-1.0-594.0","0","0","53056","","null","","","null","65","","","","","","","","","","","","","","","NaN",""
"","S1","","html-keyboard-response","431","451007","0.0-1.0-596.0","0","0","53056","","null","","","null","66","","","","","","","","","","","","","","","",""
"","ISI","","html-keyboard-response","432","452011","0.0-1.0-597.0","0","0","53056","","null","","","null","66","NaN","","","","","","","","","","","","","","",""
"","S2","","html-keyboard-response","433","452267","0.0-1.0-598.0","0","0","53056","","null","","","null","66","","NaN","","","","","","","","","","","","","",""
"","response","","html-keyboard-response","434","452664","0.0-1.0-599.0-0.0","0","0","53056","","394","","","68","66","","","2","66","training","adjacent","FG","6","7","O.jpg","N.jpg","1","1","1","",""
"","feedback","","html-keyboard-response","435","453672","0.0-1.0-600.0-0.0","0","0","53056","","null","","","null","66","","","","","","","","","","","","","","","",""
"","ITI","","html-keyboard-response","436","454676","0.0-1.0-603.0","0","0","53056","","null","","","null","66","","","","","","","","","","","","","","","NaN",""
"","S1","","html-keyboard-response","437","454931","0.0-1.0-605.0","0","0","53056","","null","","","null","67","","","","","","","","","","","","","","","",""
"","ISI","","html-keyboard-response","438","455941","0.0-1.0-606.0","0","0","53056","","null","","","null","67","NaN","","","","","","","","","","","","","","",""
"","S2","","html-keyboard-response","439","456197","0.0-1.0-607.0","0","0","53056","","null","","","null","67","","NaN","","","","","","","","","","","","","",""
"","response","","html-keyboard-response","440","456518","0.0-1.0-608.0-0.0","0","0","53056","","319","","","68","67","","","2","67","training","adjacent","DC","4","3","Q.jpg","M.jpg","1","0","0","",""
"","feedback","","html-keyboard-response","441","457526","0.0-1.0-609.0-0.0","0","0","53056","","null","","","null","67","","","","","","","","","","","","","","","",""
"","time_out","","html-keyboard-response","442","459535","0.0-1.0-611.0-0.0","0","0","53056","","null","","","null","67","","","","","","","","","","","","","","","",""
"","ITI","","html-keyboard-response","443","460539","0.0-1.0-612.0","0","0","53056","","null","","","null","67","","","","","","","","","","","","","","","NaN",""
"","S1","","html-keyboard-response","444","460794","0.0-1.0-614.0","0","0","53056","","null","","","null","68","","","","","","","","","","","","","","","",""
"","ISI","","html-keyboard-response","445","461803","0.0-1.0-615.0","0","0","53056","","null","","","null","68","NaN","","","","","","","","","","","","","","",""
"","S2","","html-keyboard-response","446","462060","0.0-1.0-616.0","0","0","53056","","null","","","null","68","","NaN","","","","","","","","","","","","","",""
"","response","","html-keyboard-response","447","462699","0.0-1.0-617.0-0.0","0","0","53056","","637","","","68","68","","","2","68","training","adjacent","EF","5","6","R.jpg","O.jpg","1","1","1","",""
"","feedback","","html-keyboard-response","448","463708","0.0-1.0-618.0-0.0","0","0","53056","","null","","","null","68","","","","","","","","","","","","","","","",""
"","ITI","","html-keyboard-response","449","464718","0.0-1.0-621.0","0","0","53056","","null","","","null","68","","","","","","","","","","","","","","","NaN",""
"","S1","","html-keyboard-response","450","464980","0.0-1.0-623.0","0","0","53056","","null","","","null","69","","","","","","","","","","","","","","","",""
"","ISI","","html-keyboard-response","451","465990","0.0-1.0-624.0","0","0","53056","","null","","","null","69","NaN","","","","","","","","","","","","","","",""
"","S2","","html-keyboard-response","452","466245","0.0-1.0-625.0","0","0","53056","","null","","","null","69","","NaN","","","","","","","","","","","","","",""
"","response","","html-keyboard-response","453","466547","0.0-1.0-626.0-0.0","0","0","53056","","299","","","75","69","","","2","69","training","adjacent","ED","5","4","R.jpg","Q.jpg","0","0","1","",""
"","feedback","","html-keyboard-response","454","467556","0.0-1.0-627.0-0.0","0","0","53056","","null","","","null","69","","","","","","","","","","","","","","","",""
"","ITI","","html-keyboard-response","455","468566","0.0-1.0-630.0","0","0","53056","","null","","","null","69","","","","","","","","","","","","","","","NaN",""
"","S1","","html-keyboard-response","456","468828","0.0-1.0-632.0","0","0","53056","","null","","","null","70","","","","","","","","","","","","","","","",""
"","ISI","","html-keyboard-response","457","469838","0.0-1.0-633.0","0","0","53056","","null","","","null","70","NaN","","","","","","","","","","","","","","",""
"","S2","","html-keyboard-response","458","470100","0.0-1.0-634.0","0","0","53056","","null","","","null","70","","NaN","","","","","","","","","","","","","",""
"","response","","html-keyboard-response","459","470203","0.0-1.0-635.0-0.0","0","0","53056","","101","","","75","70","","","2","70","training","adjacent","GF","7","6","N.jpg","O.jpg","0","0","1","",""
"","feedback","","html-keyboard-response","460","471214","0.0-1.0-636.0-0.0","0","0","53056","","null","","","null","70","","","","","","","","","","","","","","","",""
"","ITI","","html-keyboard-response","461","472219","0.0-1.0-639.0","0","0","53056","","null","","","null","70","","","","","","","","","","","","","","","NaN",""
"","S1","","html-keyboard-response","462","472479","0.0-1.0-641.0","0","0","53056","","null","","","null","71","","","","","","","","","","","","","","","",""
"","ISI","","html-keyboard-response","463","473484","0.0-1.0-642.0","0","0","53056","","null","","","null","71","NaN","","","","","","","","","","","","","","",""
"","S2","","html-keyboard-response","464","473739","0.0-1.0-643.0","0","0","53056","","null","","","null","71","","NaN","","","","","","","","","","","","","",""
"","response","","html-keyboard-response","465","474203","0.0-1.0-644.0-0.0","0","0","53056","","462","","","68","71","","","2","71","training","adjacent","CD","3","4","M.jpg","Q.jpg","1","1","1","",""
"","feedback","","html-keyboard-response","466","475214","0.0-1.0-645.0-0.0","0","0","53056","","null","","","null","71","","","","","","","","","","","","","","","",""
"","ITI","","html-keyboard-response","467","476222","0.0-1.0-648.0","0","0","53056","","null","","","null","71","","","","","","","","","","","","","","","NaN",""
"","S1","","html-keyboard-response","468","476485","0.0-1.0-650.0","0","0","53056","","null","","","null","72","","","","","","","","","","","","","","","",""
"","ISI","","html-keyboard-response","469","477495","0.0-1.0-651.0","0","0","53056","","null","","","null","72","NaN","","","","","","","","","","","","","","",""
"","S2","","html-keyboard-response","470","477756","0.0-1.0-652.0","0","0","53056","","null","","","null","72","","NaN","","","","","","","","","","","","","",""
"","response","","html-keyboard-response","471","478227","0.0-1.0-653.0-0.0","0","0","53056","","468","","","68","72","","","2","72","training","adjacent","BA","2","1","L.jpg","P.jpg","1","0","0","",""
"","feedback","","html-keyboard-response","472","479236","0.0-1.0-654.0-0.0","0","0","53056","","null","","","null","72","","","","","","","","","","","","","","","",""
"","time_out","","html-keyboard-response","473","481245","0.0-1.0-656.0-0.0","0","0","53056","","null","","","null","72","","","","","","","","","","","","","","","",""
"","ITI","","html-keyboard-response","474","482255","0.0-1.0-657.0","0","0","53056","","null","","","null","72","","","","","","","","","","","","","","","NaN",""
"","S1","","html-keyboard-response","475","482516","0.0-1.0-659.0","0","0","53056","","null","","","null","73","","","","","","","","","","","","","","","",""
"","ISI","","html-keyboard-response","476","483526","0.0-1.0-660.0","0","0","53056","","null","","","null","73","NaN","","","","","","","","","","","","","","",""
"","S2","","html-keyboard-response","477","483787","0.0-1.0-661.0","0","0","53056","","null","","","null","73","","NaN","","","","","","","","","","","","","",""
"","response","","html-keyboard-response","478","484147","0.0-1.0-662.0-0.0","0","0","53056","","357","","","68","73","","","2","73","training","adjacent","AB","1","2","P.jpg","L.jpg","1","1","1","",""
"","feedback","","html-keyboard-response","479","485157","0.0-1.0-663.0-0.0","0","0","53056","","null","","","null","73","","","","","","","","","","","","","","","",""
"","ITI","","html-keyboard-response","480","486166","0.0-1.0-666.0","0","0","53056","","null","","","null","73","","","","","","","","","","","","","","","NaN",""
"","S1","","html-keyboard-response","481","486428","0.0-1.0-668.0","0","0","53056","","null","","","null","74","","","","","","","","","","","","","","","",""
"","ISI","","html-keyboard-response","482","487439","0.0-1.0-669.0","0","0","53056","","null","","","null","74","NaN","","","","","","","","","","","","","","",""
"","S2","","html-keyboard-response","483","487699","0.0-1.0-670.0","0","0","53056","","null","","","null","74","","NaN","","","","","","","","","","","","","",""
"","response","","html-keyboard-response","484","488507","0.0-1.0-671.0-0.0","0","0","53056","","805","","","68","74","","","2","74","training","adjacent","CB","3","2","M.jpg","L.jpg","1","0","0","",""
"","feedback","","html-keyboard-response","485","489517","0.0-1.0-672.0-0.0","0","0","53056","","null","","","null","74","","","","","","","","","","","","","","","",""
"","time_out","","html-keyboard-response","486","491525","0.0-1.0-674.0-0.0","0","0","53056","","null","","","null","74","","","","","","","","","","","","","","","",""
"","ITI","","html-keyboard-response","487","492532","0.0-1.0-675.0","0","0","53056","","null","","","null","74","","","","","","","","","","","","","","","NaN",""
"","S1","","html-keyboard-response","488","492791","0.0-1.0-677.0","0","0","53056","","null","","","null","75","","","","","","","","","","","","","","","",""
"","ISI","","html-keyboard-response","489","493795","0.0-1.0-678.0","0","0","53056","","null","","","null","75","NaN","","","","","","","","","","","","","","",""
"","S2","","html-keyboard-response","490","494051","0.0-1.0-679.0","0","0","53056","","null","","","null","75","","NaN","","","","","","","","","","","","","",""
"","response","","html-keyboard-response","491","494627","0.0-1.0-680.0-0.0","0","0","53056","","574","","","75","75","","","2","75","training","adjacent","FE","6","5","O.jpg","R.jpg","0","0","1","",""
"","feedback","","html-keyboard-response","492","495635","0.0-1.0-681.0-0.0","0","0","53056","","null","","","null","75","","","","","","","","","","","","","","","",""
"","ITI","","html-keyboard-response","493","496646","0.0-1.0-684.0","0","0","53056","","null","","","null","75","","","","","","","","","","","","","","","NaN",""
"","S1","","html-keyboard-response","494","496906","0.0-1.0-686.0","0","0","53056","","null","","","null","76","","","","","","","","","","","","","","","",""
"","ISI","","html-keyboard-response","495","497915","0.0-1.0-687.0","0","0","53056","","null","","","null","76","NaN","","","","","","","","","","","","","","",""
"","S2","","html-keyboard-response","496","497962","0.0-1.0-688.0","0","0","53056","","45","","","75","76","","k","2","76","training","adjacent","FE","6","5","O.jpg","R.jpg","0","0","1","",""
"","feedback","","html-keyboard-response","497","498973","0.0-1.0-690.0-0.0","0","0","53056","","null","","","null","76","","","","","","","","","","","","","","","",""
"","ITI","","html-keyboard-response","498","499978","0.0-1.0-693.0","0","0","53056","","null","","","null","76","","","","","","","","","","","","","","","NaN",""
"","S1","","html-keyboard-response","499","500237","0.0-1.0-695.0","0","0","53056","","null","","","null","77","","","","","","","","","","","","","","","",""
"","ISI","","html-keyboard-response","500","501244","0.0-1.0-696.0","0","0","53056","","null","","","null","77","NaN","","","","","","","","","","","","","","",""
"","S2","","html-keyboard-response","501","501499","0.0-1.0-697.0","0","0","53056","","null","","","null","77","","NaN","","","","","","","","","","","","","",""
"","response","","html-keyboard-response","502","501907","0.0-1.0-698.0-0.0","0","0","53056","","406","","","68","77","","","2","77","training","adjacent","CB","3","2","M.jpg","L.jpg","1","0","0","",""
"","feedback","","html-keyboard-response","503","502914","0.0-1.0-699.0-0.0","0","0","53056","","null","","","null","77","","","","","","","","","","","","","","","",""
"","time_out","","html-keyboard-response","504","504923","0.0-1.0-701.0-0.0","0","0","53056","","null","","","null","77","","","","","","","","","","","","","","","",""
"","ITI","","html-keyboard-response","505","505933","0.0-1.0-702.0","0","0","53056","","null","","","null","77","","","","","","","","","","","","","","","NaN",""
"","S1","","html-keyboard-response","506","506194","0.0-1.0-704.0","0","0","53056","","null","","","null","78","","","","","","","","","","","","","","","",""
"","ISI","","html-keyboard-response","507","507203","0.0-1.0-705.0","0","0","53056","","null","","","null","78","NaN","","","","","","","","","","","","","","",""
"","S2","","html-keyboard-response","508","507460","0.0-1.0-706.0","0","0","53056","","null","","","null","78","","NaN","","","","","","","","","","","","","",""
"","response","","html-keyboard-response","509","507818","0.0-1.0-707.0-0.0","0","0","53056","","356","","","75","78","","","2","78","training","adjacent","ED","5","4","R.jpg","Q.jpg","0","0","1","",""
"","feedback","","html-keyboard-response","510","508829","0.0-1.0-708.0-0.0","0","0","53056","","null","","","null","78","","","","","","","","","","","","","","","",""
"","ITI","","html-keyboard-response","511","509834","0.0-1.0-711.0","0","0","53056","","null","","","null","78","","","","","","","","","","","","","","","NaN",""
"","S1","","html-keyboard-response","512","510094","0.0-1.0-713.0","0","0","53056","","null","","","null","79","","","","","","","","","","","","","","","",""
"","ISI","","html-keyboard-response","513","511099","0.0-1.0-714.0","0","0","53056","","null","","","null","79","NaN","","","","","","","","","","","","","","",""
"","S2","","html-keyboard-response","514","511355","0.0-1.0-715.0","0","0","53056","","null","","","null","79","","NaN","","","","","","","","","","","","","",""
"","response","","html-keyboard-response","515","511778","0.0-1.0-716.0-0.0","0","0","53056","","421","","","68","79","","","2","79","training","adjacent","CD","3","4","M.jpg","Q.jpg","1","1","1","",""
"","feedback","","html-keyboard-response","516","512788","0.0-1.0-717.0-0.0","0","0","53056","","null","","","null","79","","","","","","","","","","","","","","","",""
"","ITI","","html-keyboard-response","517","513794","0.0-1.0-720.0","0","0","53056","","null","","","null","79","","","","","","","","","","","","","","","NaN",""
"","S1","","html-keyboard-response","518","514054","0.0-1.0-722.0","0","0","53056","","null","","","null","80","","","","","","","","","","","","","","","",""
"","ISI","","html-keyboard-response","519","515058","0.0-1.0-723.0","0","0","53056","","null","","","null","80","NaN","","","","","","","","","","","","","","",""
"","S2","","html-keyboard-response","520","515313","0.0-1.0-724.0","0","0","53056","","null","","","null","80","","NaN","","","","","","","","","","","","","",""
"","response","","html-keyboard-response","521","515546","0.0-1.0-725.0-0.0","0","0","53056","","231","","","75","80","","","2","80","training","adjacent","GF","7","6","N.jpg","O.jpg","0","0","1","",""
"","feedback","","html-keyboard-response","522","516556","0.0-1.0-726.0-0.0","0","0","53056","","null","","","null","80","","","","","","","","","","","","","","","",""
"","ITI","","html-keyboard-response","523","517566","0.0-1.0-729.0","0","0","53056","","null","","","null","80","","","","","","","","","","","","","","","NaN",""
"","S1","","html-keyboard-response","524","517827","0.0-1.0-731.0","0","0","53056","","null","","","null","81","","","","","","","","","","","","","","","",""
"","ISI","","html-keyboard-response","525","518836","0.0-1.0-732.0","0","0","53056","","null","","","null","81","NaN","","","","","","","","","","","","","","",""
"","S2","","html-keyboard-response","526","519093","0.0-1.0-733.0","0","0","53056","","null","","","null","81","","NaN","","","","","","","","","","","","","",""
"","response","","html-keyboard-response","527","519506","0.0-1.0-734.0-0.0","0","0","53056","","411","","","68","81","","","2","81","training","adjacent","EF","5","6","R.jpg","O.jpg","1","1","1","",""
"","feedback","","html-keyboard-response","528","520515","0.0-1.0-735.0-0.0","0","0","53056","","null","","","null","81","","","","","","","","","","","","","","","",""
"","ITI","","html-keyboard-response","529","521525","0.0-1.0-738.0","0","0","53056","","null","","","null","81","","","","","","","","","","","","","","","NaN",""
"","S1","","html-keyboard-response","530","521777","0.0-1.0-740.0","0","0","53056","","null","","","null","82","","","","","","","","","","","","","","","",""
"","ISI","","html-keyboard-response","531","522790","0.0-1.0-741.0","0","0","53056","","null","","","null","82","NaN","","","","","","","","","","","","","","",""
"","S2","","html-keyboard-response","532","523051","0.0-1.0-742.0","0","0","53056","","null","","","null","82","","NaN","","","","","","","","","","","","","",""
"","response","","html-keyboard-response","533","523873","0.0-1.0-743.0-0.0","0","0","53056","","820","","","68","82","","","2","82","training","adjacent","DE","4","5","Q.jpg","R.jpg","1","1","1","",""
"","feedback","","html-keyboard-response","534","524886","0.0-1.0-744.0-0.0","0","0","53056","","null","","","null","82","","","","","","","","","","","","","","","",""
"","ITI","","html-keyboard-response","535","525890","0.0-1.0-747.0","0","0","53056","","null","","","null","82","","","","","","","","","","","","","","","NaN",""
"","S1","","html-keyboard-response","536","526145","0.0-1.0-749.0","0","0","53056","","null","","","null","83","","","","","","","","","","","","","","","",""
"","ISI","","html-keyboard-response","537","527155","0.0-1.0-750.0","0","0","53056","","null","","","null","83","NaN","","","","","","","","","","","","","","",""
"","S2","","html-keyboard-response","538","527411","0.0-1.0-751.0","0","0","53056","","null","","","null","83","","NaN","","","","","","","","","","","","","",""
"","response","","html-keyboard-response","539","527738","0.0-1.0-752.0-0.0","0","0","53056","","325","","","75","83","","","2","83","training","adjacent","GF","7","6","N.jpg","O.jpg","0","0","1","",""
"","feedback","","html-keyboard-response","540","528746","0.0-1.0-753.0-0.0","0","0","53056","","null","","","null","83","","","","","","","","","","","","","","","",""
"","ITI","","html-keyboard-response","541","529756","0.0-1.0-756.0","0","0","53056","","null","","","null","83","","","","","","","","","","","","","","","NaN",""
"","S1","","html-keyboard-response","542","530011","0.0-1.0-758.0","0","0","53056","","null","","","null","84","","","","","","","","","","","","","","","",""
"","ISI","","html-keyboard-response","543","531022","0.0-1.0-759.0","0","0","53056","","null","","","null","84","NaN","","","","","","","","","","","","","","",""
"","S2","","html-keyboard-response","544","531283","0.0-1.0-760.0","0","0","53056","","null","","","null","84","","NaN","","","","","","","","","","","","","",""
"","response","","html-keyboard-response","545","531745","0.0-1.0-761.0-0.0","0","0","53056","","461","","","68","84","","","2","84","training","adjacent","FG","6","7","O.jpg","N.jpg","1","1","1","",""
"","feedback","","html-keyboard-response","546","532757","0.0-1.0-762.0-0.0","0","0","53056","","null","","","null","84","","","","","","","","","","","","","","","",""
"","ITI","","html-keyboard-response","547","533763","0.0-1.0-765.0","0","0","53056","","null","","","null","84","","","","","","","","","","","","","","","NaN",""
"","S1","","html-keyboard-response","548","534022","0.0-1.0-767.0","0","0","53056","","null","","","null","85","","","","","","","","","","","","","","","",""
"","ISI","","html-keyboard-response","549","535027","0.0-1.0-768.0","0","0","53056","","null","","","null","85","NaN","","","","","","","","","","","","","","",""
"","S2","","html-keyboard-response","550","535282","0.0-1.0-769.0","0","0","53056","","null","","","null","85","","NaN","","","","","","","","","","","","","",""
"","response","","html-keyboard-response","551","535777","0.0-1.0-770.0-0.0","0","0","53056","","493","","","68","85","","","2","85","training","adjacent","DC","4","3","Q.jpg","M.jpg","1","0","0","",""
"","feedback","","html-keyboard-response","552","536786","0.0-1.0-771.0-0.0","0","0","53056","","null","","","null","85","","","","","","","","","","","","","","","",""
"","time_out","","html-keyboard-response","553","538794","0.0-1.0-773.0-0.0","0","0","53056","","null","","","null","85","","","","","","","","","","","","","","","",""
"","ITI","","html-keyboard-response","554","539804","0.0-1.0-774.0","0","0","53056","","null","","","null","85","","","","","","","","","","","","","","","NaN",""
"","S1","","html-keyboard-response","555","540060","0.0-1.0-776.0","0","0","53056","","null","","","null","86","","","","","","","","","","","","","","","",""
"","ISI","","html-keyboard-response","556","541070","0.0-1.0-777.0","0","0","53056","","null","","","null","86","NaN","","","","","","","","","","","","","","",""
"","S2","","html-keyboard-response","557","541331","0.0-1.0-778.0","0","0","53056","","null","","","null","86","","NaN","","","","","","","","","","","","","",""
"","response","","html-keyboard-response","558","541786","0.0-1.0-779.0-0.0","0","0","53056","","452","","","75","86","","","2","86","training","adjacent","BC","2","3","L.jpg","M.jpg","0","1","0","",""
"","feedback","","html-keyboard-response","559","542794","0.0-1.0-780.0-0.0","0","0","53056","","null","","","null","86","","","","","","","","","","","","","","","",""
"","time_out","","html-keyboard-response","560","544802","0.0-1.0-782.0-0.0","0","0","53056","","null","","","null","86","","","","","","","","","","","","","","","",""
"","ITI","","html-keyboard-response","561","545812","0.0-1.0-783.0","0","0","53056","","null","","","null","86","","","","","","","","","","","","","","","NaN",""
"","S1","","html-keyboard-response","562","546074","0.0-1.0-785.0","0","0","53056","","null","","","null","87","","","","","","","","","","","","","","","",""
"","ISI","","html-keyboard-response","563","547084","0.0-1.0-786.0","0","0","53056","","null","","","null","87","NaN","","","","","","","","","","","","","","",""
"","S2","","html-keyboard-response","564","547339","0.0-1.0-787.0","0","0","53056","","null","","","null","87","","NaN","","","","","","","","","","","","","",""
"","response","","html-keyboard-response","565","547713","0.0-1.0-788.0-0.0","0","0","53056","","372","","","68","87","","","2","87","training","adjacent","EF","5","6","R.jpg","O.jpg","1","1","1","",""
"","feedback","","html-keyboard-response","566","548721","0.0-1.0-789.0-0.0","0","0","53056","","null","","","null","87","","","","","","","","","","","","","","","",""
"","ITI","","html-keyboard-response","567","549730","0.0-1.0-792.0","0","0","53056","","null","","","null","87","","","","","","","","","","","","","","","NaN",""
"","S1","","html-keyboard-response","568","549985","0.0-1.0-794.0","0","0","53056","","null","","","null","88","","","","","","","","","","","","","","","",""
"","ISI","","html-keyboard-response","569","550996","0.0-1.0-795.0","0","0","53056","","null","","","null","88","NaN","","","","","","","","","","","","","","",""
"","S2","","html-keyboard-response","570","551257","0.0-1.0-796.0","0","0","53056","","null","","","null","88","","NaN","","","","","","","","","","","","","",""
"","response","","html-keyboard-response","571","551433","0.0-1.0-797.0-0.0","0","0","53056","","174","","","68","88","","","2","88","training","adjacent","FG","6","7","O.jpg","N.jpg","1","1","1","",""
"","feedback","","html-keyboard-response","572","552441","0.0-1.0-798.0-0.0","0","0","53056","","null","","","null","88","","","","","","","","","","","","","","","",""
"","ITI","","html-keyboard-response","573","553452","0.0-1.0-801.0","0","0","53056","","null","","","null","88","","","","","","","","","","","","","","","NaN",""
"","S1","","html-keyboard-response","574","553706","0.0-1.0-803.0","0","0","53056","","null","","","null","89","","","","","","","","","","","","","","","",""
"","ISI","","html-keyboard-response","575","554717","0.0-1.0-804.0","0","0","53056","","null","","","null","89","NaN","","","","","","","","","","","","","","",""
"","S2","","html-keyboard-response","576","554977","0.0-1.0-805.0","0","0","53056","","null","","","null","89","","NaN","","","","","","","","","","","","","",""
"","response","","html-keyboard-response","577","555409","0.0-1.0-806.0-0.0","0","0","53056","","430","","","75","89","","","2","89","training","adjacent","ED","5","4","R.jpg","Q.jpg","0","0","1","",""
"","feedback","","html-keyboard-response","578","556418","0.0-1.0-807.0-0.0","0","0","53056","","null","","","null","89","","","","","","","","","","","","","","","",""
"","ITI","","html-keyboard-response","579","557428","0.0-1.0-810.0","0","0","53056","","null","","","null","89","","","","","","","","","","","","","","","NaN",""
"","S1","","html-keyboard-response","580","557683","0.0-1.0-812.0","0","0","53056","","null","","","null","90","","","","","","","","","","","","","","","",""
"","ISI","","html-keyboard-response","581","558693","0.0-1.0-813.0","0","0","53056","","null","","","null","90","NaN","","","","","","","","","","","","","","",""
"","S2","","html-keyboard-response","582","558955","0.0-1.0-814.0","0","0","53056","","null","","","null","90","","NaN","","","","","","","","","","","","","",""
