"success","ttype","start_time","trial_type","trial_index","time_elapsed","internal_node_id","warning","missed_checkup","PID","view_history","rt","responses","repeat_instructions","key_press","index","keypress_isi","keypress_S2","block","trial_num","phase","group_type","pair_type","S1_stim","S2_stim","S1_img","S2_img","S1_chosen","S1_higher","accuracy","keypress_iti","total_bonus_tally"
"true","full_screen","d08012022hr2230","fullscreen","0","30494","0.0-0.0","0","0","11894","","","","","","","","","","","","","","","","","","","","","",""
"","instructions","","instructions","1","55753","0.0-1.0-0.0-0.0","0","0","11894","[{""page_index"":0,""viewing_time"":3860},{""page_index"":1,""viewing_time"":10675},{""page_index"":2,""viewing_time"":9286},{""page_index"":3,""viewing_time"":1434}]","25256","","","","","","","","","","","","","","","","","","","",""
"","comprehension_check","","survey-multi-choice","2","84450","0.0-1.0-0.0-1.0","0","0","11894","","28691","{""Q0"":""True"",""Q1"":""D"",""Q2"":""While the images are shown"",""Q3"":""Green mark"",""Q4"":""either D or K""}","1","","","","","","","","","","","","","","","","","",""
"","missed_instruction_checkup","","html-keyboard-response","3","86177","0.0-1.0-0.0-2.0-0.0","0","1","11894","","1724","","","32","","","","","","","","","","","","","","","","",""
"","instructions","","instructions","4","109001","0.0-1.0-0.1-0.1","0","0","11894","[{""page_index"":0,""viewing_time"":6396},{""page_index"":1,""viewing_time"":12555},{""page_index"":2,""viewing_time"":2860},{""page_index"":3,""viewing_time"":1010}]","22821","","","","","","","","","","","","","","","","","","","",""
"","comprehension_check","","survey-multi-choice","5","117461","0.0-1.0-0.1-1.1","0","0","11894","","8452","{""Q0"":""True"",""Q1"":""D"",""Q2"":""When you see the prompt 'MAKE A CHOICE' after the second image was presented"",""Q3"":""Green mark"",""Q4"":""either D or K""}","0","","","","","","","","","","","","","","","","","",""
"","start_exp","","html-keyboard-response","6","118765","0.0-1.0-1.0","0","0","11894","","1301","","","32","","","","","","","","","","","","","","","","",""
"","S1","","html-keyboard-response","7","119017","0.0-1.0-2.0","0","0","11894","","null","","","null","0","","","","","","","","","","","","","","","",""
"","ISI","","html-keyboard-response","8","121021","0.0-1.0-3.0","0","0","11894","","402","","","68","0","d","","","","","","","","","","","","","","",""
"","S2","","html-keyboard-response","9","121280","0.0-1.0-4.0","0","0","11894","","null","","","null","0","","NaN","","","","","","","","","","","","","",""
"","response","","html-keyboard-response","10","121807","0.0-1.0-5.0","0","0","11894","","525","","","68","0","","","1","0","training","adjacent","FE","6","5","P.jpg","M.jpg","1","0","0","",""
"","feedback","","html-keyboard-response","11","122811","0.0-1.0-6.0-0.0","0","0","11894","","null","","","null","0","","","","","","","","","","","","","","","",""
"","time_out","","html-keyboard-response","12","124816","0.0-1.0-8.0-0.0","0","0","11894","","null","","","null","0","","","","","","","","","","","","","","","",""
"","ITI","","html-keyboard-response","13","125824","0.0-1.0-9.0","0","0","11894","","null","","","null","0","","","","","","","","","","","","","","","NaN",""
"","S1","","html-keyboard-response","14","126080","0.0-1.0-11.0","0","0","11894","","null","","","null","1","","","","","","","","","","","","","","","",""
"","ISI","","html-keyboard-response","15","128085","0.0-1.0-12.0","0","0","11894","","null","","","null","1","NaN","","","","","","","","","","","","","","",""
"","S2","","html-keyboard-response","16","128341","0.0-1.0-13.0","0","0","11894","","null","","","null","1","","NaN","","","","","","","","","","","","","",""
"","response","","html-keyboard-response","17","128898","0.0-1.0-14.0","0","0","11894","","554","","","75","1","","","1","1","training","adjacent","CD","3","4","R.jpg","O.jpg","0","1","0","",""
"","feedback","","html-keyboard-response","18","129903","0.0-1.0-15.0-0.0","0","0","11894","","null","","","null","1","","","","","","","","","","","","","","","",""
"","time_out","","html-keyboard-response","19","131909","0.0-1.0-17.0-0.0","0","0","11894","","null","","","null","1","","","","","","","","","","","","","","","",""
"","ITI","","html-keyboard-response","20","132917","0.0-1.0-18.0","0","0","11894","","null","","","null","1","","","","","","","","","","","","","","","NaN",""
"","S1","","html-keyboard-response","21","133174","0.0-1.0-20.0","0","0","11894","","null","","","null","2","","","","","","","","","","","","","","","",""
"","ISI","","html-keyboard-response","22","135179","0.0-1.0-21.0","0","0","11894","","null","","","null","2","NaN","","","","","","","","","","","","","","",""
"","S2","","html-keyboard-response","23","135435","0.0-1.0-22.0","0","0","11894","","null","","","null","2","","NaN","","","","","","","","","","","","","",""
"","response","","html-keyboard-response","24","136001","0.0-1.0-23.0","0","0","11894","","564","","","68","2","","","1","2","training","adjacent","BA","2","1","N.jpg","L.jpg","1","0","0","",""
"","feedback","","html-keyboard-response","25","137008","0.0-1.0-24.0-0.0","0","0","11894","","null","","","null","2","","","","","","","","","","","","","","","",""
"","time_out","","html-keyboard-response","26","139013","0.0-1.0-26.0-0.0","0","0","11894","","null","","","null","2","","","","","","","","","","","","","","","",""
"","ITI","","html-keyboard-response","27","140021","0.0-1.0-27.0","0","0","11894","","null","","","null","2","","","","","","","","","","","","","","","NaN",""
"","S1","","html-keyboard-response","28","140278","0.0-1.0-29.0","0","0","11894","","null","","","null","3","","","","","","","","","","","","","","","",""
"","ISI","","html-keyboard-response","29","142283","0.0-1.0-30.0","0","0","11894","","null","","","null","3","NaN","","","","","","","","","","","","","","",""
"","S2","","html-keyboard-response","30","142539","0.0-1.0-31.0","0","0","11894","","null","","","null","3","","NaN","","","","","","","","","","","","","",""
"","response","","html-keyboard-response","31","143197","0.0-1.0-32.0","0","0","11894","","656","","","68","3","","","1","3","training","adjacent","AB","1","2","L.jpg","N.jpg","1","1","1","",""
"","feedback","","html-keyboard-response","32","144205","0.0-1.0-33.0-0.0","0","0","11894","","null","","","null","3","","","","","","","","","","","","","","","",""
"","ITI","","html-keyboard-response","33","145211","0.0-1.0-36.0","0","0","11894","","null","","","null","3","","","","","","","","","","","","","","","NaN",""
"","S1","","html-keyboard-response","34","145467","0.0-1.0-38.0","0","0","11894","","null","","","null","4","","","","","","","","","","","","","","","",""
"","ISI","","html-keyboard-response","35","147472","0.0-1.0-39.0","0","0","11894","","null","","","null","4","NaN","","","","","","","","","","","","","","",""
"","S2","","html-keyboard-response","36","147726","0.0-1.0-40.0","0","0","11894","","null","","","null","4","","NaN","","","","","","","","","","","","","",""
"","response","","html-keyboard-response","37","148202","0.0-1.0-41.0","0","0","11894","","473","","","75","4","","","1","4","training","adjacent","ED","5","4","M.jpg","O.jpg","0","0","1","",""
"","feedback","","html-keyboard-response","38","149205","0.0-1.0-42.0-0.0","0","0","11894","","null","","","null","4","","","","","","","","","","","","","","","",""
"","ITI","","html-keyboard-response","39","150213","0.0-1.0-45.0","0","0","11894","","null","","","null","4","","","","","","","","","","","","","","","NaN",""
"","S1","","html-keyboard-response","40","150470","0.0-1.0-47.0","0","0","11894","","null","","","null","5","","","","","","","","","","","","","","","",""
"","ISI","","html-keyboard-response","41","152475","0.0-1.0-48.0","0","0","11894","","null","","","null","5","NaN","","","","","","","","","","","","","","",""
"","S2","","html-keyboard-response","42","152731","0.0-1.0-49.0","0","0","11894","","null","","","null","5","","NaN","","","","","","","","","","","","","",""
"","response","","html-keyboard-response","43","152974","0.0-1.0-50.0","0","0","11894","","240","","","75","5","","","1","5","training","adjacent","CB","3","2","R.jpg","N.jpg","0","0","1","",""
"","feedback","","html-keyboard-response","44","153979","0.0-1.0-51.0-0.0","0","0","11894","","null","","","null","5","","","","","","","","","","","","","","","",""
"","ITI","","html-keyboard-response","45","154987","0.0-1.0-54.0","0","0","11894","","null","","","null","5","","","","","","","","","","","","","","","NaN",""
"","S1","","html-keyboard-response","46","155243","0.0-1.0-56.0","0","0","11894","","null","","","null","6","","","","","","","","","","","","","","","",""
"","ISI","","html-keyboard-response","47","157249","0.0-1.0-57.0","0","0","11894","","null","","","null","6","NaN","","","","","","","","","","","","","","",""
"","S2","","html-keyboard-response","48","157505","0.0-1.0-58.0","0","0","11894","","null","","","null","6","","NaN","","","","","","","","","","","","","",""
"","response","","html-keyboard-response","49","157751","0.0-1.0-59.0","0","0","11894","","243","","","75","6","","","1","6","training","adjacent","AB","1","2","L.jpg","N.jpg","0","1","0","",""
"","feedback","","html-keyboard-response","50","158758","0.0-1.0-60.0-0.0","0","0","11894","","null","","","null","6","","","","","","","","","","","","","","","",""
"","time_out","","html-keyboard-response","51","160763","0.0-1.0-62.0-0.0","0","0","11894","","null","","","null","6","","","","","","","","","","","","","","","",""
"","ITI","","html-keyboard-response","52","161766","0.0-1.0-63.0","0","0","11894","","null","","","null","6","","","","","","","","","","","","","","","NaN",""
"","S1","","html-keyboard-response","53","162022","0.0-1.0-65.0","0","0","11894","","null","","","null","7","","","","","","","","","","","","","","","",""
"","ISI","","html-keyboard-response","54","164027","0.0-1.0-66.0","0","0","11894","","null","","","null","7","NaN","","","","","","","","","","","","","","",""
"","S2","","html-keyboard-response","55","164283","0.0-1.0-67.0","0","0","11894","","null","","","null","7","","NaN","","","","","","","","","","","","","",""
"","response","","html-keyboard-response","56","164576","0.0-1.0-68.0","0","0","11894","","290","","","68","7","","","1","7","training","adjacent","BA","2","1","N.jpg","L.jpg","1","0","0","",""
"","feedback","","html-keyboard-response","57","165579","0.0-1.0-69.0-0.0","0","0","11894","","null","","","null","7","","","","","","","","","","","","","","","",""
"","time_out","","html-keyboard-response","58","167585","0.0-1.0-71.0-0.0","0","0","11894","","null","","","null","7","","","","","","","","","","","","","","","",""
"","ITI","","html-keyboard-response","59","168593","0.0-1.0-72.0","0","0","11894","","null","","","null","7","","","","","","","","","","","","","","","NaN",""
"","S1","","html-keyboard-response","60","168849","0.0-1.0-74.0","0","0","11894","","null","","","null","8","","","","","","","","","","","","","","","",""
"","ISI","","html-keyboard-response","61","170854","0.0-1.0-75.0","0","0","11894","","null","","","null","8","NaN","","","","","","","","","","","","","","",""
"","S2","","html-keyboard-response","62","171110","0.0-1.0-76.0","0","0","11894","","null","","","null","8","","NaN","","","","","","","","","","","","","",""
"","response","","html-keyboard-response","63","171578","0.0-1.0-77.0","0","0","11894","","466","","","68","8","","","1","8","training","adjacent","FG","6","7","P.jpg","Q.jpg","1","1","1","",""
"","feedback","","html-keyboard-response","64","172582","0.0-1.0-78.0-0.0","0","0","11894","","null","","","null","8","","","","","","","","","","","","","","","",""
"","ITI","","html-keyboard-response","65","173590","0.0-1.0-81.0","0","0","11894","","null","","","null","8","","","","","","","","","","","","","","","NaN",""
"","S1","","html-keyboard-response","66","173846","0.0-1.0-83.0","0","0","11894","","null","","","null","9","","","","","","","","","","","","","","","",""
"","ISI","","html-keyboard-response","67","175852","0.0-1.0-84.0","0","0","11894","","null","","","null","9","NaN","","","","","","","","","","","","","","",""
"","S2","","html-keyboard-response","68","176108","0.0-1.0-85.0","0","0","11894","","null","","","null","9","","NaN","","","","","","","","","","","","","",""
"","response","","html-keyboard-response","69","176581","0.0-1.0-86.0","0","0","11894","","468","","","75","9","","","1","9","training","adjacent","EF","5","6","M.jpg","P.jpg","0","1","0","",""
"","feedback","","html-keyboard-response","70","177585","0.0-1.0-87.0-0.0","0","0","11894","","null","","","null","9","","","","","","","","","","","","","","","",""
"","time_out","","html-keyboard-response","71","179590","0.0-1.0-89.0-0.0","0","0","11894","","null","","","null","9","","","","","","","","","","","","","","","",""
"","ITI","","html-keyboard-response","72","180593","0.0-1.0-90.0","0","0","11894","","null","","","null","9","","","","","","","","","","","","","","","NaN",""
"","S1","","html-keyboard-response","73","180849","0.0-1.0-92.0","0","0","11894","","null","","","null","10","","","","","","","","","","","","","","","",""
"","ISI","","html-keyboard-response","74","182854","0.0-1.0-93.0","0","0","11894","","null","","","null","10","NaN","","","","","","","","","","","","","","",""
"","S2","","html-keyboard-response","75","183110","0.0-1.0-94.0","0","0","11894","","null","","","null","10","","NaN","","","","","","","","","","","","","",""
"","response","","html-keyboard-response","76","183446","0.0-1.0-95.0","0","0","11894","","334","","","75","10","","","1","10","training","adjacent","CD","3","4","R.jpg","O.jpg","0","1","0","",""
"","feedback","","html-keyboard-response","77","184449","0.0-1.0-96.0-0.0","0","0","11894","","null","","","null","10","","","","","","","","","","","","","","","",""
"","time_out","","html-keyboard-response","78","186455","0.0-1.0-98.0-0.0","0","0","11894","","null","","","null","10","","","","","","","","","","","","","","","",""
"","ITI","","html-keyboard-response","79","187463","0.0-1.0-99.0","0","0","11894","","null","","","null","10","","","","","","","","","","","","","","","NaN",""
"","S1","","html-keyboard-response","80","187719","0.0-1.0-101.0","0","0","11894","","null","","","null","11","","","","","","","","","","","","","","","",""
"","ISI","","html-keyboard-response","81","189724","0.0-1.0-102.0","0","0","11894","","null","","","null","11","NaN","","","","","","","","","","","","","","",""
"","S2","","html-keyboard-response","82","189980","0.0-1.0-103.0","0","0","11894","","null","","","null","11","","NaN","","","","","","","","","","","","","",""
"","response","","html-keyboard-response","83","190264","0.0-1.0-104.0","0","0","11894","","282","","","68","11","","","1","11","training","adjacent","DE","4","5","O.jpg","M.jpg","1","1","1","",""
"","feedback","","html-keyboard-response","84","191270","0.0-1.0-105.0-0.0","0","0","11894","","null","","","null","11","","","","","","","","","","","","","","","",""
"","ITI","","html-keyboard-response","85","192273","0.0-1.0-108.0","0","0","11894","","null","","","null","11","","","","","","","","","","","","","","","NaN",""
"","S1","","html-keyboard-response","86","192529","0.0-1.0-110.0","0","0","11894","","null","","","null","12","","","","","","","","","","","","","","","",""
"","ISI","","html-keyboard-response","87","194535","0.0-1.0-111.0","0","0","11894","","null","","","null","12","NaN","","","","","","","","","","","","","","",""
"","S2","","html-keyboard-response","88","194791","0.0-1.0-112.0","0","0","11894","","null","","","null","12","","NaN","","","","","","","","","","","","","",""
"","response","","html-keyboard-response","89","195083","0.0-1.0-113.0","0","0","11894","","289","","","68","12","","","1","12","training","adjacent","DE","4","5","O.jpg","M.jpg","1","1","1","",""
"","feedback","","html-keyboard-response","90","196087","0.0-1.0-114.0-0.0","0","0","11894","","null","","","null","12","","","","","","","","","","","","","","","",""
"","ITI","","html-keyboard-response","91","197090","0.0-1.0-117.0","0","0","11894","","null","","","null","12","","","","","","","","","","","","","","","NaN",""
"","S1","","html-keyboard-response","92","197345","0.0-1.0-119.0","0","0","11894","","null","","","null","13","","","","","","","","","","","","","","","",""
"","ISI","","html-keyboard-response","93","199351","0.0-1.0-120.0","0","0","11894","","null","","","null","13","NaN","","","","","","","","","","","","","","",""
"","S2","","html-keyboard-response","94","199607","0.0-1.0-121.0","0","0","11894","","null","","","null","13","","NaN","","","","","","","","","","","","","",""
"","response","","html-keyboard-response","95","199971","0.0-1.0-122.0","0","0","11894","","361","","","75","13","","","1","13","training","adjacent","ED","5","4","M.jpg","O.jpg","0","0","1","",""
"","feedback","","html-keyboard-response","96","200977","0.0-1.0-123.0-0.0","0","0","11894","","null","","","null","13","","","","","","","","","","","","","","","",""
"","ITI","","html-keyboard-response","97","201980","0.0-1.0-126.0","0","0","11894","","null","","","null","13","","","","","","","","","","","","","","","NaN",""
"","S1","","html-keyboard-response","98","202236","0.0-1.0-128.0","0","0","11894","","null","","","null","14","","","","","","","","","","","","","","","",""
"","ISI","","html-keyboard-response","99","204242","0.0-1.0-129.0","0","0","11894","","null","","","null","14","NaN","","","","","","","","","","","","","","",""
"","S2","","html-keyboard-response","100","204498","0.0-1.0-130.0","0","0","11894","","null","","","null","14","","NaN","","","","","","","","","","","","","",""
"","response","","html-keyboard-response","101","204891","0.0-1.0-131.0","0","0","11894","","390","","","75","14","","","1","14","training","adjacent","ED","5","4","M.jpg","O.jpg","0","0","1","",""
"","feedback","","html-keyboard-response","102","205898","0.0-1.0-132.0-0.0","0","0","11894","","null","","","null","14","","","","","","","","","","","","","","","",""
"","ITI","","html-keyboard-response","103","206903","0.0-1.0-135.0","0","0","11894","","null","","","null","14","","","","","","","","","","","","","","","NaN",""
"","S1","","html-keyboard-response","104","207159","0.0-1.0-137.0","0","0","11894","","null","","","null","15","","","","","","","","","","","","","","","",""
"","ISI","","html-keyboard-response","105","209164","0.0-1.0-138.0","0","0","11894","","null","","","null","15","NaN","","","","","","","","","","","","","","",""
"","S2","","html-keyboard-response","106","209421","0.0-1.0-139.0","0","0","11894","","null","","","null","15","","NaN","","","","","","","","","","","","","",""
"","response","","html-keyboard-response","107","209771","0.0-1.0-140.0","0","0","11894","","347","","","68","15","","","1","15","training","adjacent","FG","6","7","P.jpg","Q.jpg","1","1","1","",""
"","feedback","","html-keyboard-response","108","210777","0.0-1.0-141.0-0.0","0","0","11894","","null","","","null","15","","","","","","","","","","","","","","","",""
"","ITI","","html-keyboard-response","109","211783","0.0-1.0-144.0","0","0","11894","","null","","","null","15","","","","","","","","","","","","","","","NaN",""
"","S1","","html-keyboard-response","110","212039","0.0-1.0-146.0","0","0","11894","","null","","","null","16","","","","","","","","","","","","","","","",""
"","ISI","","html-keyboard-response","111","214045","0.0-1.0-147.0","0","0","11894","","null","","","null","16","NaN","","","","","","","","","","","","","","",""
"","S2","","html-keyboard-response","112","214300","0.0-1.0-148.0","0","0","11894","","null","","","null","16","","NaN","","","","","","","","","","","","","",""
"","response","","html-keyboard-response","113","214627","0.0-1.0-149.0","0","0","11894","","325","","","75","16","","","1","16","training","adjacent","CD","3","4","R.jpg","O.jpg","0","1","0","",""
"","feedback","","html-keyboard-response","114","215634","0.0-1.0-150.0-0.0","0","0","11894","","null","","","null","16","","","","","","","","","","","","","","","",""
"","time_out","","html-keyboard-response","115","217641","0.0-1.0-152.0-0.0","0","0","11894","","null","","","null","16","","","","","","","","","","","","","","","",""
"","ITI","","html-keyboard-response","116","218647","0.0-1.0-153.0","0","0","11894","","null","","","null","16","","","","","","","","","","","","","","","NaN",""
"","S1","","html-keyboard-response","117","218903","0.0-1.0-155.0","0","0","11894","","null","","","null","17","","","","","","","","","","","","","","","",""
"","ISI","","html-keyboard-response","118","220909","0.0-1.0-156.0","0","0","11894","","null","","","null","17","NaN","","","","","","","","","","","","","","",""
"","S2","","html-keyboard-response","119","221165","0.0-1.0-157.0","0","0","11894","","null","","","null","17","","NaN","","","","","","","","","","","","","",""
"","response","","html-keyboard-response","120","221253","0.0-1.0-158.0","0","0","11894","","85","","","68","17","","","1","17","training","adjacent","DE","4","5","O.jpg","M.jpg","1","1","1","",""
"","feedback","","html-keyboard-response","121","222258","0.0-1.0-159.0-0.0","0","0","11894","","null","","","null","17","","","","","","","","","","","","","","","",""
"","ITI","","html-keyboard-response","122","223261","0.0-1.0-162.0","0","0","11894","","null","","","null","17","","","","","","","","","","","","","","","NaN",""
"","S1","","html-keyboard-response","123","223517","0.0-1.0-164.0","0","0","11894","","null","","","null","18","","","","","","","","","","","","","","","",""
"","ISI","","html-keyboard-response","124","225522","0.0-1.0-165.0","0","0","11894","","null","","","null","18","NaN","","","","","","","","","","","","","","",""
"","S2","","html-keyboard-response","125","225778","0.0-1.0-166.0","0","0","11894","","null","","","null","18","","NaN","","","","","","","","","","","","","",""
"","response","","html-keyboard-response","126","226103","0.0-1.0-167.0","0","0","11894","","322","","","68","18","","","1","18","training","adjacent","FG","6","7","P.jpg","Q.jpg","1","1","1","",""
"","feedback","","html-keyboard-response","127","227106","0.0-1.0-168.0-0.0","0","0","11894","","null","","","null","18","","","","","","","","","","","","","","","",""
"","ITI","","html-keyboard-response","128","228109","0.0-1.0-171.0","0","0","11894","","null","","","null","18","","","","","","","","","","","","","","","NaN",""
"","S1","","html-keyboard-response","129","228364","0.0-1.0-173.0","0","0","11894","","null","","","null","19","","","","","","","","","","","","","","","",""
"","ISI","","html-keyboard-response","130","230370","0.0-1.0-174.0","0","0","11894","","null","","","null","19","NaN","","","","","","","","","","","","","","",""
"","S2","","html-keyboard-response","131","230626","0.0-1.0-175.0","0","0","11894","","null","","","null","19","","NaN","","","","","","","","","","","","","",""
"","response","","html-keyboard-response","132","231015","0.0-1.0-176.0","0","0","11894","","385","","","68","19","","","1","19","training","adjacent","BC","2","3","N.jpg","R.jpg","1","1","1","",""
"","feedback","","html-keyboard-response","133","232018","0.0-1.0-177.0-0.0","0","0","11894","","null","","","null","19","","","","","","","","","","","","","","","",""
"","ITI","","html-keyboard-response","134","233021","0.0-1.0-180.0","0","0","11894","","null","","","null","19","","","","","","","","","","","","","","","NaN",""
"","S1","","html-keyboard-response","135","233277","0.0-1.0-182.0","0","0","11894","","null","","","null","20","","","","","","","","","","","","","","","",""
"","ISI","","html-keyboard-response","136","235283","0.0-1.0-183.0","0","0","11894","","null","","","null","20","NaN","","","","","","","","","","","","","","",""
"","S2","","html-keyboard-response","137","235538","0.0-1.0-184.0","0","0","11894","","null","","","null","20","","NaN","","","","","","","","","","","","","",""
"","response","","html-keyboard-response","138","235843","0.0-1.0-185.0","0","0","11894","","302","","","75","20","","","1","20","training","adjacent","GF","7","6","Q.jpg","P.jpg","0","0","1","",""
"","feedback","","html-keyboard-response","139","236850","0.0-1.0-186.0-0.0","0","0","11894","","null","","","null","20","","","","","","","","","","","","","","","",""
"","ITI","","html-keyboard-response","140","237853","0.0-1.0-189.0","0","0","11894","","null","","","null","20","","","","","","","","","","","","","","","NaN",""
"","S1","","html-keyboard-response","141","238109","0.0-1.0-191.0","0","0","11894","","null","","","null","21","","","","","","","","","","","","","","","",""
"","ISI","","html-keyboard-response","142","240114","0.0-1.0-192.0","0","0","11894","","null","","","null","21","NaN","","","","","","","","","","","","","","",""
"","S2","","html-keyboard-response","143","240370","0.0-1.0-193.0","0","0","11894","","null","","","null","21","","NaN","","","","","","","","","","","","","",""
"","response","","html-keyboard-response","144","240529","0.0-1.0-194.0","0","0","11894","","157","","","75","21","","","1","21","training","adjacent","ED","5","4","M.jpg","O.jpg","0","0","1","",""
"","feedback","","html-keyboard-response","145","241533","0.0-1.0-195.0-0.0","0","0","11894","","null","","","null","21","","","","","","","","","","","","","","","",""
"","ITI","","html-keyboard-response","146","242536","0.0-1.0-198.0","0","0","11894","","null","","","null","21","","","","","","","","","","","","","","","NaN",""
"","S1","","html-keyboard-response","147","242792","0.0-1.0-200.0","0","0","11894","","null","","","null","22","","","","","","","","","","","","","","","",""
"","ISI","","html-keyboard-response","148","244797","0.0-1.0-201.0","0","0","11894","","null","","","null","22","NaN","","","","","","","","","","","","","","",""
"","S2","","html-keyboard-response","149","245053","0.0-1.0-202.0","0","0","11894","","null","","","null","22","","NaN","","","","","","","","","","","","","",""
"","response","","html-keyboard-response","150","245338","0.0-1.0-203.0","0","0","11894","","282","","","75","22","","","1","22","training","adjacent","CB","3","2","R.jpg","N.jpg","0","0","1","",""
"","feedback","","html-keyboard-response","151","246344","0.0-1.0-204.0-0.0","0","0","11894","","null","","","null","22","","","","","","","","","","","","","","","",""
"","ITI","","html-keyboard-response","152","247347","0.0-1.0-207.0","0","0","11894","","null","","","null","22","","","","","","","","","","","","","","","NaN",""
"","S1","","html-keyboard-response","153","247603","0.0-1.0-209.0","0","0","11894","","null","","","null","23","","","","","","","","","","","","","","","",""
"","ISI","","html-keyboard-response","154","249608","0.0-1.0-210.0","0","0","11894","","null","","","null","23","NaN","","","","","","","","","","","","","","",""
"","S2","","html-keyboard-response","155","249864","0.0-1.0-211.0","0","0","11894","","null","","","null","23","","NaN","","","","","","","","","","","","","",""
"","response","","html-keyboard-response","156","250060","0.0-1.0-212.0","0","0","11894","","193","","","75","23","","","1","23","training","adjacent","EF","5","6","M.jpg","P.jpg","0","1","0","",""
"","feedback","","html-keyboard-response","157","251064","0.0-1.0-213.0-0.0","0","0","11894","","null","","","null","23","","","","","","","","","","","","","","","",""
"","time_out","","html-keyboard-response","158","253069","0.0-1.0-215.0-0.0","0","0","11894","","null","","","null","23","","","","","","","","","","","","","","","",""
"","ITI","","html-keyboard-response","159","254072","0.0-1.0-216.0","0","0","11894","","null","","","null","23","","","","","","","","","","","","","","","NaN",""
"","S1","","html-keyboard-response","160","254328","0.0-1.0-218.0","0","0","11894","","null","","","null","24","","","","","","","","","","","","","","","",""
"","ISI","","html-keyboard-response","161","256333","0.0-1.0-219.0","0","0","11894","","null","","","null","24","NaN","","","","","","","","","","","","","","",""
"","S2","","html-keyboard-response","162","256590","0.0-1.0-220.0","0","0","11894","","null","","","null","24","","NaN","","","","","","","","","","","","","",""
"","response","","html-keyboard-response","163","256869","0.0-1.0-221.0","0","0","11894","","276","","","68","24","","","1","24","training","adjacent","FE","6","5","P.jpg","M.jpg","1","0","0","",""
"","feedback","","html-keyboard-response","164","257875","0.0-1.0-222.0-0.0","0","0","11894","","null","","","null","24","","","","","","","","","","","","","","","",""
"","time_out","","html-keyboard-response","165","259880","0.0-1.0-224.0-0.0","0","0","11894","","null","","","null","24","","","","","","","","","","","","","","","",""
"","ITI","","html-keyboard-response","166","260888","0.0-1.0-225.0","0","0","11894","","null","","","null","24","","","","","","","","","","","","","","","NaN",""
"","S1","","html-keyboard-response","167","261145","0.0-1.0-227.0","0","0","11894","","null","","","null","25","","","","","","","","","","","","","","","",""
"","ISI","","html-keyboard-response","168","263150","0.0-1.0-228.0","0","0","11894","","null","","","null","25","NaN","","","","","","","","","","","","","","",""
"","S2","","html-keyboard-response","169","263406","0.0-1.0-229.0","0","0","11894","","null","","","null","25","","NaN","","","","","","","","","","","","","",""
"","response","","html-keyboard-response","170","263772","0.0-1.0-230.0","0","0","11894","","364","","","68","25","","","1","25","training","adjacent","FE","6","5","P.jpg","M.jpg","1","0","0","",""
"","feedback","","html-keyboard-response","171","264777","0.0-1.0-231.0-0.0","0","0","11894","","null","","","null","25","","","","","","","","","","","","","","","",""
"","time_out","","html-keyboard-response","172","266782","0.0-1.0-233.0-0.0","0","0","11894","","null","","","null","25","","","","","","","","","","","","","","","",""
"","ITI","","html-keyboard-response","173","267790","0.0-1.0-234.0","0","0","11894","","null","","","null","25","","","","","","","","","","","","","","","NaN",""
"","S1","","html-keyboard-response","174","268046","0.0-1.0-236.0","0","0","11894","","null","","","null","26","","","","","","","","","","","","","","","",""
"","ISI","","html-keyboard-response","175","270051","0.0-1.0-237.0","0","0","11894","","null","","","null","26","NaN","","","","","","","","","","","","","","",""
"","S2","","html-keyboard-response","176","270303","0.0-1.0-238.0","0","0","11894","","null","","","null","26","","NaN","","","","","","","","","","","","","",""
"","response","","html-keyboard-response","177","270616","0.0-1.0-239.0","0","0","11894","","310","","","75","26","","","1","26","training","adjacent","GF","7","6","Q.jpg","P.jpg","0","0","1","",""
"","feedback","","html-keyboard-response","178","271619","0.0-1.0-240.0-0.0","0","0","11894","","null","","","null","26","","","","","","","","","","","","","","","",""
"","ITI","","html-keyboard-response","179","272622","0.0-1.0-243.0","0","0","11894","","null","","","null","26","","","","","","","","","","","","","","","NaN",""
"","S1","","html-keyboard-response","180","272878","0.0-1.0-245.0","0","0","11894","","null","","","null","27","","","","","","","","","","","","","","","",""
"","ISI","","html-keyboard-response","181","274884","0.0-1.0-246.0","0","0","11894","","null","","","null","27","NaN","","","","","","","","","","","","","","",""
"","S2","","html-keyboard-response","182","275139","0.0-1.0-247.0","0","0","11894","","null","","","null","27","","NaN","","","","","","","","","","","","","",""
"","response","","html-keyboard-response","183","275567","0.0-1.0-248.0","0","0","11894","","426","","","68","27","","","1","27","training","adjacent","BA","2","1","N.jpg","L.jpg","1","0","0","",""
"","feedback","","html-keyboard-response","184","276574","0.0-1.0-249.0-0.0","0","0","11894","","null","","","null","27","","","","","","","","","","","","","","","",""
"","time_out","","html-keyboard-response","185","278580","0.0-1.0-251.0-0.0","0","0","11894","","null","","","null","27","","","","","","","","","","","","","","","",""
"","ITI","","html-keyboard-response","186","279582","0.0-1.0-252.0","0","0","11894","","null","","","null","27","","","","","","","","","","","","","","","NaN",""
"","S1","","html-keyboard-response","187","279838","0.0-1.0-254.0","0","0","11894","","null","","","null","28","","","","","","","","","","","","","","","",""
"","ISI","","html-keyboard-response","188","281843","0.0-1.0-255.0","0","0","11894","","null","","","null","28","NaN","","","","","","","","","","","","","","",""
"","S2","","html-keyboard-response","189","282099","0.0-1.0-256.0","0","0","11894","","null","","","null","28","","NaN","","","","","","","","","","","","","",""
"","response","","html-keyboard-response","190","282485","0.0-1.0-257.0","0","0","11894","","383","","","68","28","","","1","28","training","adjacent","FE","6","5","P.jpg","M.jpg","1","0","0","",""
"","feedback","","html-keyboard-response","191","283492","0.0-1.0-258.0-0.0","0","0","11894","","null","","","null","28","","","","","","","","","","","","","","","",""
"","time_out","","html-keyboard-response","192","285497","0.0-1.0-260.0-0.0","0","0","11894","","null","","","null","28","","","","","","","","","","","","","","","",""
"","ITI","","html-keyboard-response","193","286500","0.0-1.0-261.0","0","0","11894","","null","","","null","28","","","","","","","","","","","","","","","NaN",""
"","S1","","html-keyboard-response","194","286756","0.0-1.0-263.0","0","0","11894","","null","","","null","29","","","","","","","","","","","","","","","",""
"","ISI","","html-keyboard-response","195","288761","0.0-1.0-264.0","0","0","11894","","null","","","null","29","NaN","","","","","","","","","","","","","","",""
"","S2","","html-keyboard-response","196","289017","0.0-1.0-265.0","0","0","11894","","null","","","null","29","","NaN","","","","","","","","","","","","","",""
"","response","","html-keyboard-response","197","289249","0.0-1.0-266.0","0","0","11894","","230","","","75","29","","","1","29","training","adjacent","CD","3","4","R.jpg","O.jpg","0","1","0","",""
"","feedback","","html-keyboard-response","198","290254","0.0-1.0-267.0-0.0","0","0","11894","","null","","","null","29","","","","","","","","","","","","","","","",""
"","time_out","","html-keyboard-response","199","292260","0.0-1.0-269.0-0.0","0","0","11894","","null","","","null","29","","","","","","","","","","","","","","","",""
"","ITI","","html-keyboard-response","200","293267","0.0-1.0-270.0","0","0","11894","","null","","","null","29","","","","","","","","","","","","","","","NaN",""
"","S1","","html-keyboard-response","201","293524","0.0-1.0-272.0","0","0","11894","","null","","","null","30","","","","","","","","","","","","","","","",""
"","ISI","","html-keyboard-response","202","295529","0.0-1.0-273.0","0","0","11894","","null","","","null","30","NaN","","","","","","","","","","","","","","",""
"","S2","","html-keyboard-response","203","295784","0.0-1.0-274.0","0","0","11894","","null","","","null","30","","NaN","","","","","","","","","","","","","",""
"","response","","html-keyboard-response","204","295956","0.0-1.0-275.0","0","0","11894","","170","","","75","30","","","1","30","training","adjacent","CB","3","2","R.jpg","N.jpg","0","0","1","",""
"","feedback","","html-keyboard-response","205","296964","0.0-1.0-276.0-0.0","0","0","11894","","null","","","null","30","","","","","","","","","","","","","","","",""
"","ITI","","html-keyboard-response","206","297967","0.0-1.0-279.0","0","0","11894","","null","","","null","30","","","","","","","","","","","","","","","NaN",""
"","S1","","html-keyboard-response","207","298223","0.0-1.0-281.0","0","0","11894","","null","","","null","31","","","","","","","","","","","","","","","",""
"","ISI","","html-keyboard-response","208","300228","0.0-1.0-282.0","0","0","11894","","null","","","null","31","NaN","","","","","","","","","","","","","","",""
"","S2","","html-keyboard-response","209","300484","0.0-1.0-283.0","0","0","11894","","null","","","null","31","","NaN","","","","","","","","","","","","","",""
"","response","","html-keyboard-response","210","300894","0.0-1.0-284.0","0","0","11894","","407","","","68","31","","","1","31","training","adjacent","BA","2","1","N.jpg","L.jpg","1","0","0","",""
"","feedback","","html-keyboard-response","211","301898","0.0-1.0-285.0-0.0","0","0","11894","","null","","","null","31","","","","","","","","","","","","","","","",""
"","time_out","","html-keyboard-response","212","303905","0.0-1.0-287.0-0.0","0","0","11894","","null","","","null","31","","","","","","","","","","","","","","","",""
"","ITI","","html-keyboard-response","213","304911","0.0-1.0-288.0","0","0","11894","","null","","","null","31","","","","","","","","","","","","","","","NaN",""
"","S1","","html-keyboard-response","214","305167","0.0-1.0-290.0","0","0","11894","","null","","","null","32","","","","","","","","","","","","","","","",""
"","ISI","","html-keyboard-response","215","307172","0.0-1.0-291.0","0","0","11894","","null","","","null","32","NaN","","","","","","","","","","","","","","",""
"","S2","","html-keyboard-response","216","307428","0.0-1.0-292.0","0","0","11894","","null","","","null","32","","NaN","","","","","","","","","","","","","",""
"","response","","html-keyboard-response","217","307842","0.0-1.0-293.0","0","0","11894","","411","","","75","32","","","1","32","training","adjacent","GF","7","6","Q.jpg","P.jpg","0","0","1","",""
"","feedback","","html-keyboard-response","218","308847","0.0-1.0-294.0-0.0","0","0","11894","","null","","","null","32","","","","","","","","","","","","","","","",""
"","ITI","","html-keyboard-response","219","309850","0.0-1.0-297.0","0","0","11894","","null","","","null","32","","","","","","","","","","","","","","","NaN",""
"","S1","","html-keyboard-response","220","310106","0.0-1.0-299.0","0","0","11894","","null","","","null","33","","","","","","","","","","","","","","","",""
"","ISI","","html-keyboard-response","221","312111","0.0-1.0-300.0","0","0","11894","","null","","","null","33","NaN","","","","","","","","","","","","","","",""
"","S2","","html-keyboard-response","222","312367","0.0-1.0-301.0","0","0","11894","","null","","","null","33","","NaN","","","","","","","","","","","","","",""
"","response","","html-keyboard-response","223","314373","0.0-1.0-302.0","0","0","11894","","null","","","null","33","","","1","33","training","adjacent","BC","2","3","N.jpg","R.jpg","NaN","1","0","",""
"","too_slow_prompt","","html-keyboard-response","224","315380","0.0-1.0-304.0-0.0","1","0","11894","","null","","","null","","","","","","","","","","","","","","","","",""
"","time_out","","html-keyboard-response","225","317386","0.0-1.0-305.0-0.0","0","0","11894","","null","","","null","33","","","","","","","","","","","","","","","",""
"","ITI","","html-keyboard-response","226","318388","0.0-1.0-306.0","0","0","11894","","null","","","null","33","","","","","","","","","","","","","","","NaN",""
"","S1","","html-keyboard-response","227","318645","0.0-1.0-308.0","0","0","11894","","null","","","null","34","","","","","","","","","","","","","","","",""
"","ISI","","html-keyboard-response","228","320650","0.0-1.0-309.0","0","0","11894","","247","","","75","34","k","","","","","","","","","","","","","","",""
"","S2","","html-keyboard-response","229","320906","0.0-1.0-310.0","0","0","11894","","null","","","null","34","","NaN","","","","","","","","","","","","","",""
"","response","","html-keyboard-response","230","320931","0.0-1.0-311.0","0","0","11894","","22","","","75","34","","","1","34","training","adjacent","DC","4","3","O.jpg","R.jpg","0","0","1","",""
"","feedback","","html-keyboard-response","231","321935","0.0-1.0-312.0-0.0","0","0","11894","","null","","","null","34","","","","","","","","","","","","","","","",""
"","ITI","","html-keyboard-response","232","322940","0.0-1.0-315.0","0","0","11894","","null","","","null","34","","","","","","","","","","","","","","","NaN",""
"","S1","","html-keyboard-response","233","323194","0.0-1.0-317.0","0","0","11894","","null","","","null","35","","","","","","","","","","","","","","","",""
"","ISI","","html-keyboard-response","234","325201","0.0-1.0-318.0","0","0","11894","","null","","","null","35","NaN","","","","","","","","","","","","","","",""
"","S2","","html-keyboard-response","235","325456","0.0-1.0-319.0","0","0","11894","","null","","","null","35","","NaN","","","","","","","","","","","","","",""
"","response","","html-keyboard-response","236","325636","0.0-1.0-320.0","0","0","11894","","178","","","75","35","","","1","35","training","adjacent","GF","7","6","Q.jpg","P.jpg","0","0","1","",""
"","feedback","","html-keyboard-response","237","326640","0.0-1.0-321.0-0.0","0","0","11894","","null","","","null","35","","","","","","","","","","","","","","","",""
"","ITI","","html-keyboard-response","238","327647","0.0-1.0-324.0","0","0","11894","","null","","","null","35","","","","","","","","","","","","","","","NaN",""
"","S1","","html-keyboard-response","239","327903","0.0-1.0-326.0","0","0","11894","","null","","","null","36","","","","","","","","","","","","","","","",""
"","ISI","","html-keyboard-response","240","329909","0.0-1.0-327.0","0","0","11894","","null","","","null","36","NaN","","","","","","","","","","","","","","",""
"","S2","","html-keyboard-response","241","330165","0.0-1.0-328.0","0","0","11894","","null","","","null","36","","NaN","","","","","","","","","","","","","",""
"","response","","html-keyboard-response","242","330605","0.0-1.0-329.0","0","0","11894","","437","","","75","36","","","1","36","training","adjacent","FG","6","7","P.jpg","Q.jpg","0","1","0","",""
"","feedback","","html-keyboard-response","243","331610","0.0-1.0-330.0-0.0","0","0","11894","","null","","","null","36","","","","","","","","","","","","","","","",""
"","time_out","","html-keyboard-response","244","333616","0.0-1.0-332.0-0.0","0","0","11894","","null","","","null","36","","","","","","","","","","","","","","","",""
"","ITI","","html-keyboard-response","245","334623","0.0-1.0-333.0","0","0","11894","","null","","","null","36","","","","","","","","","","","","","","","NaN",""
"","S1","","html-keyboard-response","246","334880","0.0-1.0-335.0","0","0","11894","","null","","","null","37","","","","","","","","","","","","","","","",""
"","ISI","","html-keyboard-response","247","336886","0.0-1.0-336.0","0","0","11894","","null","","","null","37","NaN","","","","","","","","","","","","","","",""
"","S2","","html-keyboard-response","248","337141","0.0-1.0-337.0","0","0","11894","","null","","","null","37","","NaN","","","","","","","","","","","","","",""
"","response","","html-keyboard-response","249","337397","0.0-1.0-338.0","0","0","11894","","254","","","68","37","","","1","37","training","adjacent","EF","5","6","M.jpg","P.jpg","1","1","1","",""
"","feedback","","html-keyboard-response","250","338405","0.0-1.0-339.0-0.0","0","0","11894","","null","","","null","37","","","","","","","","","","","","","","","",""
"","ITI","","html-keyboard-response","251","339408","0.0-1.0-342.0","0","0","11894","","null","","","null","37","","","","","","","","","","","","","","","NaN",""
"","S1","","html-keyboard-response","252","339664","0.0-1.0-344.0","0","0","11894","","null","","","null","38","","","","","","","","","","","","","","","",""
"","ISI","","html-keyboard-response","253","341669","0.0-1.0-345.0","0","0","11894","","null","","","null","38","NaN","","","","","","","","","","","","","","",""
"","S2","","html-keyboard-response","254","341925","0.0-1.0-346.0","0","0","11894","","null","","","null","38","","NaN","","","","","","","","","","","","","",""
"","response","","html-keyboard-response","255","341976","0.0-1.0-347.0","0","0","11894","","49","","","75","38","","","1","38","training","adjacent","AB","1","2","L.jpg","N.jpg","0","1","0","",""
"","feedback","","html-keyboard-response","256","342981","0.0-1.0-348.0-0.0","0","0","11894","","null","","","null","38","","","","","","","","","","","","","","","",""
"","time_out","","html-keyboard-response","257","344987","0.0-1.0-350.0-0.0","0","0","11894","","null","","","null","38","","","","","","","","","","","","","","","",""
"","ITI","","html-keyboard-response","258","345991","0.0-1.0-351.0","0","0","11894","","null","","","null","38","","","","","","","","","","","","","","","NaN",""
"","S1","","html-keyboard-response","259","346245","0.0-1.0-353.0","0","0","11894","","null","","","null","39","","","","","","","","","","","","","","","",""
"","ISI","","html-keyboard-response","260","348251","0.0-1.0-354.0","0","0","11894","","null","","","null","39","NaN","","","","","","","","","","","","","","",""
"","S2","","html-keyboard-response","261","348507","0.0-1.0-355.0","0","0","11894","","null","","","null","39","","NaN","","","","","","","","","","","","","",""
"","response","","html-keyboard-response","262","348541","0.0-1.0-356.0","0","0","11894","","31","","","68","39","","","1","39","training","adjacent","DC","4","3","O.jpg","R.jpg","1","0","0","",""
"","feedback","","html-keyboard-response","263","349546","0.0-1.0-357.0-0.0","0","0","11894","","null","","","null","39","","","","","","","","","","","","","","","",""
"","time_out","","html-keyboard-response","264","351552","0.0-1.0-359.0-0.0","0","0","11894","","null","","","null","39","","","","","","","","","","","","","","","",""
"","ITI","","html-keyboard-response","265","352556","0.0-1.0-360.0","0","0","11894","","null","","","null","39","","","","","","","","","","","","","","","NaN",""
"","S1","","html-keyboard-response","266","352811","0.0-1.0-362.0","0","0","11894","","null","","","null","40","","","","","","","","","","","","","","","",""
"","ISI","","html-keyboard-response","267","354817","0.0-1.0-363.0","0","0","11894","","null","","","null","40","NaN","","","","","","","","","","","","","","",""
"","S2","","html-keyboard-response","268","355072","0.0-1.0-364.0","0","0","11894","","null","","","null","40","","NaN","","","","","","","","","","","","","",""
"","response","","html-keyboard-response","269","355425","0.0-1.0-365.0","0","0","11894","","350","","","68","40","","","1","40","training","adjacent","DE","4","5","O.jpg","M.jpg","1","1","1","",""
"","feedback","","html-keyboard-response","270","356432","0.0-1.0-366.0-0.0","0","0","11894","","null","","","null","40","","","","","","","","","","","","","","","",""
"","ITI","","html-keyboard-response","271","357435","0.0-1.0-369.0","0","0","11894","","null","","","null","40","","","","","","","","","","","","","","","NaN",""
"","S1","","html-keyboard-response","272","357691","0.0-1.0-371.0","0","0","11894","","null","","","null","41","","","","","","","","","","","","","","","",""
"","ISI","","html-keyboard-response","273","359696","0.0-1.0-372.0","0","0","11894","","null","","","null","41","NaN","","","","","","","","","","","","","","",""
"","S2","","html-keyboard-response","274","359952","0.0-1.0-373.0","0","0","11894","","null","","","null","41","","NaN","","","","","","","","","","","","","",""
"","response","","html-keyboard-response","275","360207","0.0-1.0-374.0","0","0","11894","","252","","","68","41","","","1","41","training","adjacent","AB","1","2","L.jpg","N.jpg","1","1","1","",""
"","feedback","","html-keyboard-response","276","361211","0.0-1.0-375.0-0.0","0","0","11894","","null","","","null","41","","","","","","","","","","","","","","","",""
"","ITI","","html-keyboard-response","277","362219","0.0-1.0-378.0","0","0","11894","","null","","","null","41","","","","","","","","","","","","","","","NaN",""
"","S1","","html-keyboard-response","278","362475","0.0-1.0-380.0","0","0","11894","","null","","","null","42","","","","","","","","","","","","","","","",""
"","ISI","","html-keyboard-response","279","364480","0.0-1.0-381.0","0","0","11894","","null","","","null","42","NaN","","","","","","","","","","","","","","",""
"","S2","","html-keyboard-response","280","364736","0.0-1.0-382.0","0","0","11894","","null","","","null","42","","NaN","","","","","","","","","","","","","",""
"","response","","html-keyboard-response","281","365014","0.0-1.0-383.0","0","0","11894","","275","","","68","42","","","1","42","training","adjacent","EF","5","6","M.jpg","P.jpg","1","1","1","",""
"","feedback","","html-keyboard-response","282","366022","0.0-1.0-384.0-0.0","0","0","11894","","null","","","null","42","","","","","","","","","","","","","","","",""
"","ITI","","html-keyboard-response","283","367024","0.0-1.0-387.0","0","0","11894","","null","","","null","42","","","","","","","","","","","","","","","NaN",""
"","S1","","html-keyboard-response","284","367280","0.0-1.0-389.0","0","0","11894","","null","","","null","43","","","","","","","","","","","","","","","",""
"","ISI","","html-keyboard-response","285","369286","0.0-1.0-390.0","0","0","11894","","null","","","null","43","NaN","","","","","","","","","","","","","","",""
"","S2","","html-keyboard-response","286","369542","0.0-1.0-391.0","0","0","11894","","null","","","null","43","","NaN","","","","","","","","","","","","","",""
"","response","","html-keyboard-response","287","369847","0.0-1.0-392.0","0","0","11894","","303","","","75","43","","","1","43","training","adjacent","CB","3","2","R.jpg","N.jpg","0","0","1","",""
"","feedback","","html-keyboard-response","288","370854","0.0-1.0-393.0-0.0","0","0","11894","","null","","","null","43","","","","","","","","","","","","","","","",""
"","ITI","","html-keyboard-response","289","371856","0.0-1.0-396.0","0","0","11894","","null","","","null","43","","","","","","","","","","","","","","","NaN",""
"","S1","","html-keyboard-response","290","372112","0.0-1.0-398.0","0","0","11894","","null","","","null","44","","","","","","","","","","","","","","","",""
"","ISI","","html-keyboard-response","291","374118","0.0-1.0-399.0","0","0","11894","","null","","","null","44","NaN","","","","","","","","","","","","","","",""
"","S2","","html-keyboard-response","292","374374","0.0-1.0-400.0","0","0","11894","","null","","","null","44","","NaN","","","","","","","","","","","","","",""
"","response","","html-keyboard-response","293","374648","0.0-1.0-401.0","0","0","11894","","271","","","68","44","","","1","44","training","adjacent","BC","2","3","N.jpg","R.jpg","1","1","1","",""
"","feedback","","html-keyboard-response","294","375654","0.0-1.0-402.0-0.0","0","0","11894","","null","","","null","44","","","","","","","","","","","","","","","",""
"","ITI","","html-keyboard-response","295","376662","0.0-1.0-405.0","0","0","11894","","null","","","null","44","","","","","","","","","","","","","","","NaN",""
"","S1","","html-keyboard-response","296","376918","0.0-1.0-407.0","0","0","11894","","null","","","null","45","","","","","","","","","","","","","","","",""
"","ISI","","html-keyboard-response","297","378925","0.0-1.0-408.0","0","0","11894","","null","","","null","45","NaN","","","","","","","","","","","","","","",""
"","S2","","html-keyboard-response","298","379181","0.0-1.0-409.0","0","0","11894","","null","","","null","45","","NaN","","","","","","","","","","","","","",""
"","response","","html-keyboard-response","299","379541","0.0-1.0-410.0","0","0","11894","","357","","","68","45","","","1","45","training","adjacent","BC","2","3","N.jpg","R.jpg","1","1","1","",""
"","feedback","","html-keyboard-response","300","380549","0.0-1.0-411.0-0.0","0","0","11894","","null","","","null","45","","","","","","","","","","","","","","","",""
"","ITI","","html-keyboard-response","301","381553","0.0-1.0-414.0","0","0","11894","","null","","","null","45","","","","","","","","","","","","","","","NaN",""
"","S1","","html-keyboard-response","302","381809","0.0-1.0-416.0","0","0","11894","","null","","","null","46","","","","","","","","","","","","","","","",""
"","ISI","","html-keyboard-response","303","383814","0.0-1.0-417.0","0","0","11894","","null","","","null","46","NaN","","","","","","","","","","","","","","",""
"","S2","","html-keyboard-response","304","384070","0.0-1.0-418.0","0","0","11894","","null","","","null","46","","NaN","","","","","","","","","","","","","",""
"","response","","html-keyboard-response","305","384362","0.0-1.0-419.0","0","0","11894","","290","","","68","46","","","1","46","training","adjacent","DC","4","3","O.jpg","R.jpg","1","0","0","",""
"","feedback","","html-keyboard-response","306","385366","0.0-1.0-420.0-0.0","0","0","11894","","null","","","null","46","","","","","","","","","","","","","","","",""
"","time_out","","html-keyboard-response","307","387372","0.0-1.0-422.0-0.0","0","0","11894","","null","","","null","46","","","","","","","","","","","","","","","",""
"","ITI","","html-keyboard-response","308","388379","0.0-1.0-423.0","0","0","11894","","null","","","null","46","","","","","","","","","","","","","","","NaN",""
"","S1","","html-keyboard-response","309","388636","0.0-1.0-425.0","0","0","11894","","null","","","null","47","","","","","","","","","","","","","","","",""
"","ISI","","html-keyboard-response","310","390641","0.0-1.0-426.0","0","0","11894","","null","","","null","47","NaN","","","","","","","","","","","","","","",""
"","S2","","html-keyboard-response","311","390897","0.0-1.0-427.0","0","0","11894","","null","","","null","47","","NaN","","","","","","","","","","","","","",""
"","response","","html-keyboard-response","312","391058","0.0-1.0-428.0","0","0","11894","","159","","","68","47","","","1","47","training","adjacent","DC","4","3","O.jpg","R.jpg","1","0","0","",""
"","feedback","","html-keyboard-response","313","392065","0.0-1.0-429.0-0.0","0","0","11894","","null","","","null","47","","","","","","","","","","","","","","","",""
"","time_out","","html-keyboard-response","314","394071","0.0-1.0-431.0-0.0","0","0","11894","","null","","","null","47","","","","","","","","","","","","","","","",""
"","ITI","","html-keyboard-response","315","395078","0.0-1.0-432.0","0","0","11894","","null","","","null","47","","","","","","","","","","","","","","","NaN",""
"","block_over","","html-keyboard-response","316","441995","0.0-1.0-433.0-0.0","0","0","11894","","46914","","","32","47","","","","","","","","","","","","","","","",""
"","S1","","html-keyboard-response","317","442253","0.0-1.0-434.0","0","0","11894","","null","","","null","48","","","","","","","","","","","","","","","",""
"","ISI","","html-keyboard-response","318","444258","0.0-1.0-435.0","0","0","11894","","444","","","68","48","d","","","","","","","","","","","","","","",""
"","S2","","html-keyboard-response","319","444514","0.0-1.0-436.0","0","0","11894","","null","","","null","48","","NaN","","","","","","","","","","","","","",""
"","response","","html-keyboard-response","320","445073","0.0-1.0-437.0","0","0","11894","","556","","","68","48","","","2","48","training","adjacent","GF","7","6","Q.jpg","P.jpg","1","0","0","",""
"","feedback","","html-keyboard-response","321","446077","0.0-1.0-438.0-0.0","0","0","11894","","null","","","null","48","","","","","","","","","","","","","","","",""
"","time_out","","html-keyboard-response","322","448082","0.0-1.0-440.0-0.0","0","0","11894","","null","","","null","48","","","","","","","","","","","","","","","",""
"","ITI","","html-keyboard-response","323","449090","0.0-1.0-441.0","0","0","11894","","null","","","null","48","","","","","","","","","","","","","","","NaN",""
"","S1","","html-keyboard-response","324","449347","0.0-1.0-443.0","0","0","11894","","null","","","null","49","","","","","","","","","","","","","","","",""
"","ISI","","html-keyboard-response","325","451352","0.0-1.0-444.0","0","0","11894","","null","","","null","49","NaN","","","","","","","","","","","","","","",""
"","S2","","html-keyboard-response","326","451608","0.0-1.0-445.0","0","0","11894","","null","","","null","49","","NaN","","","","","","","","","","","","","",""
"","response","","html-keyboard-response","327","451844","0.0-1.0-446.0","0","0","11894","","234","","","75","49","","","2","49","training","adjacent","CB","3","2","R.jpg","N.jpg","0","0","1","",""
"","feedback","","html-keyboard-response","328","452850","0.0-1.0-447.0-0.0","0","0","11894","","null","","","null","49","","","","","","","","","","","","","","","",""
"","ITI","","html-keyboard-response","329","453853","0.0-1.0-450.0","0","0","11894","","null","","","null","49","","","","","","","","","","","","","","","NaN",""
"","S1","","html-keyboard-response","330","454109","0.0-1.0-452.0","0","0","11894","","null","","","null","50","","","","","","","","","","","","","","","",""
"","ISI","","html-keyboard-response","331","456115","0.0-1.0-453.0","0","0","11894","","null","","","null","50","NaN","","","","","","","","","","","","","","",""
"","S2","","html-keyboard-response","332","456371","0.0-1.0-454.0","0","0","11894","","null","","","null","50","","NaN","","","","","","","","","","","","","",""
"","response","","html-keyboard-response","333","456525","0.0-1.0-455.0","0","0","11894","","151","","","75","50","","","2","50","training","adjacent","EF","5","6","M.jpg","P.jpg","0","1","0","",""
"","feedback","","html-keyboard-response","334","457528","0.0-1.0-456.0-0.0","0","0","11894","","null","","","null","50","","","","","","","","","","","","","","","",""
"","time_out","","html-keyboard-response","335","459533","0.0-1.0-458.0-0.0","0","0","11894","","null","","","null","50","","","","","","","","","","","","","","","",""
"","ITI","","html-keyboard-response","336","460538","0.0-1.0-459.0","0","0","11894","","null","","","null","50","","","","","","","","","","","","","","","NaN",""
"","S1","","html-keyboard-response","337","460792","0.0-1.0-461.0","0","0","11894","","null","","","null","51","","","","","","","","","","","","","","","",""
"","ISI","","html-keyboard-response","338","462798","0.0-1.0-462.0","0","0","11894","","null","","","null","51","NaN","","","","","","","","","","","","","","",""
"","S2","","html-keyboard-response","339","463054","0.0-1.0-463.0","0","0","11894","","null","","","null","51","","NaN","","","","","","","","","","","","","",""
"","response","","html-keyboard-response","340","463104","0.0-1.0-464.0","0","0","11894","","47","","","75","51","","","2","51","training","adjacent","AB","1","2","L.jpg","N.jpg","0","1","0","",""
"","feedback","","html-keyboard-response","341","464110","0.0-1.0-465.0-0.0","0","0","11894","","null","","","null","51","","","","","","","","","","","","","","","",""
"","time_out","","html-keyboard-response","342","466115","0.0-1.0-467.0-0.0","0","0","11894","","null","","","null","51","","","","","","","","","","","","","","","",""
"","ITI","","html-keyboard-response","343","467123","0.0-1.0-468.0","0","0","11894","","null","","","null","51","","","","","","","","","","","","","","","NaN",""
"","S1","","html-keyboard-response","344","467379","0.0-1.0-470.0","0","0","11894","","null","","","null","52","","","","","","","","","","","","","","","",""
"","ISI","","html-keyboard-response","345","469384","0.0-1.0-471.0","0","0","11894","","null","","","null","52","NaN","","","","","","","","","","","","","","",""
"","S2","","html-keyboard-response","346","469640","0.0-1.0-472.0","0","0","11894","","null","","","null","52","","NaN","","","","","","","","","","","","","",""
"","response","","html-keyboard-response","347","469729","0.0-1.0-473.0","0","0","11894","","86","","","68","52","","","2","52","training","adjacent","BC","2","3","N.jpg","R.jpg","1","1","1","",""
"","feedback","","html-keyboard-response","348","470734","0.0-1.0-474.0-0.0","0","0","11894","","null","","","null","52","","","","","","","","","","","","","","","",""
"","ITI","","html-keyboard-response","349","471742","0.0-1.0-477.0","0","0","11894","","null","","","null","52","","","","","","","","","","","","","","","NaN",""
"","S1","","html-keyboard-response","350","471998","0.0-1.0-479.0","0","0","11894","","null","","","null","53","","","","","","","","","","","","","","","",""
"","ISI","","html-keyboard-response","351","474003","0.0-1.0-480.0","0","0","11894","","null","","","null","53","NaN","","","","","","","","","","","","","","",""
"","S2","","html-keyboard-response","352","474259","0.0-1.0-481.0","0","0","11894","","null","","","null","53","","NaN","","","","","","","","","","","","","",""
"","response","","html-keyboard-response","353","474537","0.0-1.0-482.0","0","0","11894","","276","","","68","53","","","2","53","training","adjacent","DE","4","5","O.jpg","M.jpg","1","1","1","",""
"","feedback","","html-keyboard-response","354","475545","0.0-1.0-483.0-0.0","0","0","11894","","null","","","null","53","","","","","","","","","","","","","","","",""
"","ITI","","html-keyboard-response","355","476552","0.0-1.0-486.0","0","0","11894","","null","","","null","53","","","","","","","","","","","","","","","NaN",""
"","S1","","html-keyboard-response","356","476808","0.0-1.0-488.0","0","0","11894","","null","","","null","54","","","","","","","","","","","","","","","",""
"","ISI","","html-keyboard-response","357","478814","0.0-1.0-489.0","0","0","11894","","null","","","null","54","NaN","","","","","","","","","","","","","","",""
"","S2","","html-keyboard-response","358","479070","0.0-1.0-490.0","0","0","11894","","null","","","null","54","","NaN","","","","","","","","","","","","","",""
"","response","","html-keyboard-response","359","479094","0.0-1.0-491.0","0","0","11894","","21","","","68","54","","","2","54","training","adjacent","FG","6","7","P.jpg","Q.jpg","1","1","1","",""
"","feedback","","html-keyboard-response","360","480099","0.0-1.0-492.0-0.0","0","0","11894","","null","","","null","54","","","","","","","","","","","","","","","",""
"","ITI","","html-keyboard-response","361","481107","0.0-1.0-495.0","0","0","11894","","null","","","null","54","","","","","","","","","","","","","","","NaN",""
"","S1","","html-keyboard-response","362","481363","0.0-1.0-497.0","0","0","11894","","null","","","null","55","","","","","","","","","","","","","","","",""
"","ISI","","html-keyboard-response","363","483371","0.0-1.0-498.0","0","0","11894","","null","","","null","55","NaN","","","","","","","","","","","","","","",""
"","S2","","html-keyboard-response","364","483628","0.0-1.0-499.0","0","0","11894","","null","","","null","55","","NaN","","","","","","","","","","","","","",""
"","response","","html-keyboard-response","365","483653","0.0-1.0-500.0","0","0","11894","","23","","","68","55","","","2","55","training","adjacent","CB","3","2","R.jpg","N.jpg","1","0","0","",""
"","feedback","","html-keyboard-response","366","484659","0.0-1.0-501.0-0.0","0","0","11894","","null","","","null","55","","","","","","","","","","","","","","","",""
"","time_out","","html-keyboard-response","367","486665","0.0-1.0-503.0-0.0","0","0","11894","","null","","","null","55","","","","","","","","","","","","","","","",""
"","ITI","","html-keyboard-response","368","487673","0.0-1.0-504.0","0","0","11894","","null","","","null","55","","","","","","","","","","","","","","","NaN",""
"","S1","","html-keyboard-response","369","487929","0.0-1.0-506.0","0","0","11894","","null","","","null","56","","","","","","","","","","","","","","","",""
"","ISI","","html-keyboard-response","370","489934","0.0-1.0-507.0","0","0","11894","","125","","","75","56","k","","","","","","","","","","","","","","",""
"","S2","","html-keyboard-response","371","490190","0.0-1.0-508.0","0","0","11894","","null","","","null","56","","NaN","","","","","","","","","","","","","",""
"","response","","html-keyboard-response","372","490196","0.0-1.0-509.0","0","0","11894","","3","","","75","56","","","2","56","training","adjacent","FE","6","5","P.jpg","M.jpg","0","0","1","",""
"","feedback","","html-keyboard-response","373","491204","0.0-1.0-510.0-0.0","0","0","11894","","null","","","null","56","","","","","","","","","","","","","","","",""
"","ITI","","html-keyboard-response","374","492210","0.0-1.0-513.0","0","0","11894","","null","","","null","56","","","","","","","","","","","","","","","NaN",""
"","S1","","html-keyboard-response","375","492467","0.0-1.0-515.0","0","0","11894","","null","","","null","57","","","","","","","","","","","","","","","",""
"","ISI","","html-keyboard-response","376","494473","0.0-1.0-516.0","0","0","11894","","null","","","null","57","NaN","","","","","","","","","","","","","","",""
"","S2","","html-keyboard-response","377","494729","0.0-1.0-517.0","0","0","11894","","null","","","null","57","","NaN","","","","","","","","","","","","","",""
"","response","","html-keyboard-response","378","494821","0.0-1.0-518.0","0","0","11894","","89","","","75","57","","","2","57","training","adjacent","BC","2","3","N.jpg","R.jpg","0","1","0","",""
"","feedback","","html-keyboard-response","379","495828","0.0-1.0-519.0-0.0","0","0","11894","","null","","","null","57","","","","","","","","","","","","","","","",""
"","time_out","","html-keyboard-response","380","497833","0.0-1.0-521.0-0.0","0","0","11894","","null","","","null","57","","","","","","","","","","","","","","","",""
"","ITI","","html-keyboard-response","381","498839","0.0-1.0-522.0","0","0","11894","","null","","","null","57","","","","","","","","","","","","","","","NaN",""
"","S1","","html-keyboard-response","382","499091","0.0-1.0-524.0","0","0","11894","","null","","","null","58","","","","","","","","","","","","","","","",""
"","ISI","","html-keyboard-response","383","501098","0.0-1.0-525.0","0","0","11894","","null","","","null","58","NaN","","","","","","","","","","","","","","",""
"","S2","","html-keyboard-response","384","501353","0.0-1.0-526.0","0","0","11894","","null","","","null","58","","NaN","","","","","","","","","","","","","",""
"","response","","html-keyboard-response","385","501440","0.0-1.0-527.0","0","0","11894","","85","","","68","58","","","2","58","training","adjacent","BA","2","1","N.jpg","L.jpg","1","0","0","",""
"","feedback","","html-keyboard-response","386","502447","0.0-1.0-528.0-0.0","0","0","11894","","null","","","null","58","","","","","","","","","","","","","","","",""
"","time_out","","html-keyboard-response","387","504452","0.0-1.0-530.0-0.0","0","0","11894","","null","","","null","58","","","","","","","","","","","","","","","",""
"","ITI","","html-keyboard-response","388","505455","0.0-1.0-531.0","0","0","11894","","null","","","null","58","","","","","","","","","","","","","","","NaN",""
"","S1","","html-keyboard-response","389","505711","0.0-1.0-533.0","0","0","11894","","null","","","null","59","","","","","","","","","","","","","","","",""
"","ISI","","html-keyboard-response","390","507718","0.0-1.0-534.0","0","0","11894","","null","","","null","59","NaN","","","","","","","","","","","","","","",""
"","S2","","html-keyboard-response","391","507972","0.0-1.0-535.0","0","0","11894","","null","","","null","59","","NaN","","","","","","","","","","","","","",""
"","response","","html-keyboard-response","392","508062","0.0-1.0-536.0","0","0","11894","","87","","","68","59","","","2","59","training","adjacent","CD","3","4","R.jpg","O.jpg","1","1","1","",""
"","feedback","","html-keyboard-response","393","509065","0.0-1.0-537.0-0.0","0","0","11894","","null","","","null","59","","","","","","","","","","","","","","","",""
"","ITI","","html-keyboard-response","394","510073","0.0-1.0-540.0","0","0","11894","","null","","","null","59","","","","","","","","","","","","","","","NaN",""
"","S1","","html-keyboard-response","395","510329","0.0-1.0-542.0","0","0","11894","","null","","","null","60","","","","","","","","","","","","","","","",""
"","ISI","","html-keyboard-response","396","512335","0.0-1.0-543.0","0","0","11894","","null","","","null","60","NaN","","","","","","","","","","","","","","",""
"","S2","","html-keyboard-response","397","512591","0.0-1.0-544.0","0","0","11894","","null","","","null","60","","NaN","","","","","","","","","","","","","",""
"","response","","html-keyboard-response","398","512650","0.0-1.0-545.0","0","0","11894","","57","","","68","60","","","2","60","training","adjacent","BA","2","1","N.jpg","L.jpg","1","0","0","",""
"","feedback","","html-keyboard-response","399","513657","0.0-1.0-546.0-0.0","0","0","11894","","null","","","null","60","","","","","","","","","","","","","","","",""
"","time_out","","html-keyboard-response","400","515663","0.0-1.0-548.0-0.0","0","0","11894","","null","","","null","60","","","","","","","","","","","","","","","",""
"","ITI","","html-keyboard-response","401","516671","0.0-1.0-549.0","0","0","11894","","null","","","null","60","","","","","","","","","","","","","","","NaN",""
"","S1","","html-keyboard-response","402","516927","0.0-1.0-551.0","0","0","11894","","null","","","null","61","","","","","","","","","","","","","","","",""
"","ISI","","html-keyboard-response","403","518932","0.0-1.0-552.0","0","0","11894","","null","","","null","61","NaN","","","","","","","","","","","","","","",""
"","S2","","html-keyboard-response","404","519188","0.0-1.0-553.0","0","0","11894","","null","","","null","61","","NaN","","","","","","","","","","","","","",""
"","response","","html-keyboard-response","405","519227","0.0-1.0-554.0","0","0","11894","","36","","","75","61","","","2","61","training","adjacent","GF","7","6","Q.jpg","P.jpg","0","0","1","",""
"","feedback","","html-keyboard-response","406","520234","0.0-1.0-555.0-0.0","0","0","11894","","null","","","null","61","","","","","","","","","","","","","","","",""
"","ITI","","html-keyboard-response","407","521241","0.0-1.0-558.0","0","0","11894","","null","","","null","61","","","","","","","","","","","","","","","NaN",""
"","S1","","html-keyboard-response","408","521498","0.0-1.0-560.0","0","0","11894","","null","","","null","62","","","","","","","","","","","","","","","",""
"","ISI","","html-keyboard-response","409","523503","0.0-1.0-561.0","0","0","11894","","null","","","null","62","NaN","","","","","","","","","","","","","","",""
"","S2","","html-keyboard-response","410","523759","0.0-1.0-562.0","0","0","11894","","null","","","null","62","","NaN","","","","","","","","","","","","","",""
"","response","","html-keyboard-response","411","523795","0.0-1.0-563.0","0","0","11894","","33","","","75","62","","","2","62","training","adjacent","AB","1","2","L.jpg","N.jpg","0","1","0","",""
"","feedback","","html-keyboard-response","412","524803","0.0-1.0-564.0-0.0","0","0","11894","","null","","","null","62","","","","","","","","","","","","","","","",""
"","time_out","","html-keyboard-response","413","526810","0.0-1.0-566.0-0.0","0","0","11894","","null","","","null","62","","","","","","","","","","","","","","","",""
"","ITI","","html-keyboard-response","414","527818","0.0-1.0-567.0","0","0","11894","","null","","","null","62","","","","","","","","","","","","","","","NaN",""
"","S1","","html-keyboard-response","415","528074","0.0-1.0-569.0","0","0","11894","","null","","","null","63","","","","","","","","","","","","","","","",""
"","ISI","","html-keyboard-response","416","530079","0.0-1.0-570.0","0","0","11894","","null","","","null","63","NaN","","","","","","","","","","","","","","",""
"","S2","","html-keyboard-response","417","530335","0.0-1.0-571.0","0","0","11894","","null","","","null","63","","NaN","","","","","","","","","","","","","",""
"","response","","html-keyboard-response","418","530361","0.0-1.0-572.0","0","0","11894","","24","","","68","63","","","2","63","training","adjacent","DC","4","3","O.jpg","R.jpg","1","0","0","",""
"","feedback","","html-keyboard-response","419","531365","0.0-1.0-573.0-0.0","0","0","11894","","null","","","null","63","","","","","","","","","","","","","","","",""
"","time_out","","html-keyboard-response","420","533370","0.0-1.0-575.0-0.0","0","0","11894","","null","","","null","63","","","","","","","","","","","","","","","",""
"","ITI","","html-keyboard-response","421","534372","0.0-1.0-576.0","0","0","11894","","null","","","null","63","","","","","","","","","","","","","","","NaN",""
"","S1","","html-keyboard-response","422","534629","0.0-1.0-578.0","0","0","11894","","null","","","null","64","","","","","","","","","","","","","","","",""
"","ISI","","html-keyboard-response","423","536634","0.0-1.0-579.0","0","0","11894","","1887","","","75","64","k","","","","","","","","","","","","","","",""
"","S2","","html-keyboard-response","424","536890","0.0-1.0-580.0","0","0","11894","","210","","","75","64","","k","","","","","","","","","","","","","",""
"","response","","html-keyboard-response","425","537479","0.0-1.0-581.0","0","0","11894","","587","","","75","64","","","2","64","training","adjacent","CB","3","2","R.jpg","N.jpg","0","0","1","",""
"","feedback","","html-keyboard-response","426","538485","0.0-1.0-582.0-0.0","0","0","11894","","null","","","null","64","","","","","","","","","","","","","","","",""
"","ITI","","html-keyboard-response","427","539493","0.0-1.0-585.0","0","0","11894","","null","","","null","64","","","","","","","","","","","","","","","NaN",""
"","S1","","html-keyboard-response","428","539749","0.0-1.0-587.0","0","0","11894","","null","","","null","65","","","","","","","","","","","","","","","",""
"","ISI","","html-keyboard-response","429","541757","0.0-1.0-588.0","0","0","11894","","null","","","null","65","NaN","","","","","","","","","","","","","","",""
"","S2","","html-keyboard-response","430","542010","0.0-1.0-589.0","0","0","11894","","null","","","null","65","","NaN","","","","","","","","","","","","","",""
"","response","","html-keyboard-response","431","542340","0.0-1.0-590.0","0","0","11894","","328","","","75","65","","","2","65","training","adjacent","CD","3","4","R.jpg","O.jpg","0","1","0","",""
"","feedback","","html-keyboard-response","432","543344","0.0-1.0-591.0-0.0","0","0","11894","","null","","","null","65","","","","","","","","","","","","","","","",""
"","time_out","","html-keyboard-response","433","545349","0.0-1.0-593.0-0.0","0","0","11894","","null","","","null","65","","","","","","","","","","","","","","","",""
"","ITI","","html-keyboard-response","434","546357","0.0-1.0-594.0","0","0","11894","","null","","","null","65","","","","","","","","","","","","","","","NaN",""
"","S1","","html-keyboard-response","435","546613","0.0-1.0-596.0","0","0","11894","","null","","","null","66","","","","","","","","","","","","","","","",""
"","ISI","","html-keyboard-response","436","548618","0.0-1.0-597.0","0","0","11894","","null","","","null","66","NaN","","","","","","","","","","","","","","",""
"","S2","","html-keyboard-response","437","548874","0.0-1.0-598.0","0","0","11894","","null","","","null","66","","NaN","","","","","","","","","","","","","",""
"","response","","html-keyboard-response","438","548965","0.0-1.0-599.0","0","0","11894","","87","","","68","66","","","2","66","training","adjacent","EF","5","6","M.jpg","P.jpg","1","1","1","",""
"","feedback","","html-keyboard-response","439","549968","0.0-1.0-600.0-0.0","0","0","11894","","null","","","null","66","","","","","","","","","","","","","","","",""
"","ITI","","html-keyboard-response","440","550976","0.0-1.0-603.0","0","0","11894","","null","","","null","66","","","","","","","","","","","","","","","NaN",""
"","S1","","html-keyboard-response","441","551232","0.0-1.0-605.0","0","0","11894","","null","","","null","67","","","","","","","","","","","","","","","",""
"","ISI","","html-keyboard-response","442","553237","0.0-1.0-606.0","0","0","11894","","null","","","null","67","NaN","","","","","","","","","","","","","","",""
"","S2","","html-keyboard-response","443","553495","0.0-1.0-607.0","0","0","11894","","null","","","null","67","","NaN","","","","","","","","","","","","","",""
"","response","","html-keyboard-response","444","553756","0.0-1.0-608.0","0","0","11894","","259","","","68","67","","","2","67","training","adjacent","BC","2","3","N.jpg","R.jpg","1","1","1","",""
"","feedback","","html-keyboard-response","445","554762","0.0-1.0-609.0-0.0","0","0","11894","","null","","","null","67","","","","","","","","","","","","","","","",""
"","ITI","","html-keyboard-response","446","555770","0.0-1.0-612.0","0","0","11894","","null","","","null","67","","","","","","","","","","","","","","","NaN",""
"","S1","","html-keyboard-response","447","556026","0.0-1.0-614.0","0","0","11894","","null","","","null","68","","","","","","","","","","","","","","","",""
"","ISI","","html-keyboard-response","448","558032","0.0-1.0-615.0","0","0","11894","","null","","","null","68","NaN","","","","","","","","","","","","","","",""
"","S2","","html-keyboard-response","449","558288","0.0-1.0-616.0","0","0","11894","","null","","","null","68","","NaN","","","","","","","","","","","","","",""
"","response","","html-keyboard-response","450","558549","0.0-1.0-617.0","0","0","11894","","259","","","68","68","","","2","68","training","adjacent","DE","4","5","O.jpg","M.jpg","1","1","1","",""
"","feedback","","html-keyboard-response","451","559552","0.0-1.0-618.0-0.0","0","0","11894","","null","","","null","68","","","","","","","","","","","","","","","",""
"","ITI","","html-keyboard-response","452","560560","0.0-1.0-621.0","0","0","11894","","null","","","null","68","","","","","","","","","","","","","","","NaN",""
"","S1","","html-keyboard-response","453","560816","0.0-1.0-623.0","0","0","11894","","null","","","null","69","","","","","","","","","","","","","","","",""
"","ISI","","html-keyboard-response","454","562821","0.0-1.0-624.0","0","0","11894","","null","","","null","69","NaN","","","","","","","","","","","","","","",""
"","S2","","html-keyboard-response","455","563078","0.0-1.0-625.0","0","0","11894","","null","","","null","69","","NaN","","","","","","","","","","","","","",""
"","response","","html-keyboard-response","456","563179","0.0-1.0-626.0","0","0","11894","","98","","","68","69","","","2","69","training","adjacent","ED","5","4","M.jpg","O.jpg","1","0","0","",""
"","feedback","","html-keyboard-response","457","564187","0.0-1.0-627.0-0.0","0","0","11894","","null","","","null","69","","","","","","","","","","","","","","","",""
"","time_out","","html-keyboard-response","458","566192","0.0-1.0-629.0-0.0","0","0","11894","","null","","","null","69","","","","","","","","","","","","","","","",""
"","ITI","","html-keyboard-response","459","567198","0.0-1.0-630.0","0","0","11894","","null","","","null","69","","","","","","","","","","","","","","","NaN",""
"","S1","","html-keyboard-response","460","567456","0.0-1.0-632.0","0","0","11894","","null","","","null","70","","","","","","","","","","","","","","","",""
"","ISI","","html-keyboard-response","461","569462","0.0-1.0-633.0","0","0","11894","","null","","","null","70","NaN","","","","","","","","","","","","","","",""
"","S2","","html-keyboard-response","462","569718","0.0-1.0-634.0","0","0","11894","","null","","","null","70","","NaN","","","","","","","","","","","","","",""
"","response","","html-keyboard-response","463","569743","0.0-1.0-635.0","0","0","11894","","23","","","68","70","","","2","70","training","adjacent","DC","4","3","O.jpg","R.jpg","1","0","0","",""
"","feedback","","html-keyboard-response","464","570747","0.0-1.0-636.0-0.0","0","0","11894","","null","","","null","70","","","","","","","","","","","","","","","",""
"","time_out","","html-keyboard-response","465","572754","0.0-1.0-638.0-0.0","0","0","11894","","null","","","null","70","","","","","","","","","","","","","","","",""
"","ITI","","html-keyboard-response","466","573760","0.0-1.0-639.0","0","0","11894","","null","","","null","70","","","","","","","","","","","","","","","NaN",""
"","S1","","html-keyboard-response","467","574016","0.0-1.0-641.0","0","0","11894","","null","","","null","71","","","","","","","","","","","","","","","",""
"","ISI","","html-keyboard-response","468","576021","0.0-1.0-642.0","0","0","11894","","null","","","null","71","NaN","","","","","","","","","","","","","","",""
"","S2","","html-keyboard-response","469","576277","0.0-1.0-643.0","0","0","11894","","null","","","null","71","","NaN","","","","","","","","","","","","","",""
"","response","","html-keyboard-response","470","576472","0.0-1.0-644.0","0","0","11894","","192","","","68","71","","","2","71","training","adjacent","ED","5","4","M.jpg","O.jpg","1","0","0","",""
"","feedback","","html-keyboard-response","471","577478","0.0-1.0-645.0-0.0","0","0","11894","","null","","","null","71","","","","","","","","","","","","","","","",""
"","time_out","","html-keyboard-response","472","579483","0.0-1.0-647.0-0.0","0","0","11894","","null","","","null","71","","","","","","","","","","","","","","","",""
"","ITI","","html-keyboard-response","473","580486","0.0-1.0-648.0","0","0","11894","","null","","","null","71","","","","","","","","","","","","","","","NaN",""
"","S1","","html-keyboard-response","474","580742","0.0-1.0-650.0","0","0","11894","","null","","","null","72","","","","","","","","","","","","","","","",""
"","ISI","","html-keyboard-response","475","582747","0.0-1.0-651.0","0","0","11894","","null","","","null","72","NaN","","","","","","","","","","","","","","",""
"","S2","","html-keyboard-response","476","583003","0.0-1.0-652.0","0","0","11894","","null","","","null","72","","NaN","","","","","","","","","","","","","",""
"","response","","html-keyboard-response","477","583094","0.0-1.0-653.0","0","0","11894","","87","","","75","72","","","2","72","training","adjacent","FE","6","5","P.jpg","M.jpg","0","0","1","",""
"","feedback","","html-keyboard-response","478","584102","0.0-1.0-654.0-0.0","0","0","11894","","null","","","null","72","","","","","","","","","","","","","","","",""
"","ITI","","html-keyboard-response","479","585110","0.0-1.0-657.0","0","0","11894","","null","","","null","72","","","","","","","","","","","","","","","NaN",""
"","S1","","html-keyboard-response","480","585366","0.0-1.0-659.0","0","0","11894","","null","","","null","73","","","","","","","","","","","","","","","",""
"","ISI","","html-keyboard-response","481","587371","0.0-1.0-660.0","0","0","11894","","null","","","null","73","NaN","","","","","","","","","","","","","","",""
"","S2","","html-keyboard-response","482","587627","0.0-1.0-661.0","0","0","11894","","null","","","null","73","","NaN","","","","","","","","","","","","","",""
"","response","","html-keyboard-response","483","587647","0.0-1.0-662.0","0","0","11894","","17","","","68","73","","","2","73","training","adjacent","DE","4","5","O.jpg","M.jpg","1","1","1","",""
"","feedback","","html-keyboard-response","484","588651","0.0-1.0-663.0-0.0","0","0","11894","","null","","","null","73","","","","","","","","","","","","","","","",""
"","ITI","","html-keyboard-response","485","589659","0.0-1.0-666.0","0","0","11894","","null","","","null","73","","","","","","","","","","","","","","","NaN",""
"","S1","","html-keyboard-response","486","589915","0.0-1.0-668.0","0","0","11894","","null","","","null","74","","","","","","","","","","","","","","","",""
"","ISI","","html-keyboard-response","487","591921","0.0-1.0-669.0","0","0","11894","","null","","","null","74","NaN","","","","","","","","","","","","","","",""
"","S2","","html-keyboard-response","488","592176","0.0-1.0-670.0","0","0","11894","","null","","","null","74","","NaN","","","","","","","","","","","","","",""
"","response","","html-keyboard-response","489","592280","0.0-1.0-671.0","0","0","11894","","102","","","68","74","","","2","74","training","adjacent","AB","1","2","L.jpg","N.jpg","1","1","1","",""
"","feedback","","html-keyboard-response","490","593286","0.0-1.0-672.0-0.0","0","0","11894","","null","","","null","74","","","","","","","","","","","","","","","",""
"","ITI","","html-keyboard-response","491","594293","0.0-1.0-675.0","0","0","11894","","null","","","null","74","","","","","","","","","","","","","","","NaN",""
"","S1","","html-keyboard-response","492","594550","0.0-1.0-677.0","0","0","11894","","null","","","null","75","","","","","","","","","","","","","","","",""
"","ISI","","html-keyboard-response","493","596556","0.0-1.0-678.0","0","0","11894","","null","","","null","75","NaN","","","","","","","","","","","","","","",""
"","S2","","html-keyboard-response","494","596812","0.0-1.0-679.0","0","0","11894","","null","","","null","75","","NaN","","","","","","","","","","","","","",""
"","response","","html-keyboard-response","495","596850","0.0-1.0-680.0","0","0","11894","","36","","","68","75","","","2","75","training","adjacent","CB","3","2","R.jpg","N.jpg","1","0","0","",""
"","feedback","","html-keyboard-response","496","597857","0.0-1.0-681.0-0.0","0","0","11894","","null","","","null","75","","","","","","","","","","","","","","","",""
"","time_out","","html-keyboard-response","497","599862","0.0-1.0-683.0-0.0","0","0","11894","","null","","","null","75","","","","","","","","","","","","","","","",""
"","ITI","","html-keyboard-response","498","600865","0.0-1.0-684.0","0","0","11894","","null","","","null","75","","","","","","","","","","","","","","","NaN",""
"","S1","","html-keyboard-response","499","601121","0.0-1.0-686.0","0","0","11894","","null","","","null","76","","","","","","","","","","","","","","","",""
"","ISI","","html-keyboard-response","500","603126","0.0-1.0-687.0","0","0","11894","","null","","","null","76","NaN","","","","","","","","","","","","","","",""
"","S2","","html-keyboard-response","501","603383","0.0-1.0-688.0","0","0","11894","","null","","","null","76","","NaN","","","","","","","","","","","","","",""
"","response","","html-keyboard-response","502","603413","0.0-1.0-689.0","0","0","11894","","28","","","68","76","","","2","76","training","adjacent","AB","1","2","L.jpg","N.jpg","1","1","1","",""
"","feedback","","html-keyboard-response","503","604417","0.0-1.0-690.0-0.0","0","0","11894","","null","","","null","76","","","","","","","","","","","","","","","",""
"","ITI","","html-keyboard-response","504","605425","0.0-1.0-693.0","0","0","11894","","null","","","null","76","","","","","","","","","","","","","","","NaN",""
"","S1","","html-keyboard-response","505","605681","0.0-1.0-695.0","0","0","11894","","null","","","null","77","","","","","","","","","","","","","","","",""
"","ISI","","html-keyboard-response","506","607687","0.0-1.0-696.0","0","0","11894","","null","","","null","77","NaN","","","","","","","","","","","","","","",""
"","S2","","html-keyboard-response","507","607941","0.0-1.0-697.0","0","0","11894","","252","","","75","77","","k","","","","","","","","","","","","","",""
"","response","","html-keyboard-response","508","608529","0.0-1.0-698.0","0","0","11894","","587","","","75","77","","","2","77","training","adjacent","EF","5","6","M.jpg","P.jpg","0","1","0","",""
"","feedback","","html-keyboard-response","509","609532","0.0-1.0-699.0-0.0","0","0","11894","","null","","","null","77","","","","","","","","","","","","","","","",""
"","time_out","","html-keyboard-response","510","611537","0.0-1.0-701.0-0.0","0","0","11894","","null","","","null","77","","","","","","","","","","","","","","","",""
"","ITI","","html-keyboard-response","511","612540","0.0-1.0-702.0","0","0","11894","","null","","","null","77","","","","","","","","","","","","","","","NaN",""
"","S1","","html-keyboard-response","512","612796","0.0-1.0-704.0","0","0","11894","","null","","","null","78","","","","","","","","","","","","","","","",""
"","ISI","","html-keyboard-response","513","614802","0.0-1.0-705.0","0","0","11894","","null","","","null","78","NaN","","","","","","","","","","","","","","",""
"","S2","","html-keyboard-response","514","615057","0.0-1.0-706.0","0","0","11894","","null","","","null","78","","NaN","","","","","","","","","","","","","",""
"","response","","html-keyboard-response","515","615125","0.0-1.0-707.0","0","0","11894","","66","","","68","78","","","2","78","training","adjacent","FG","6","7","P.jpg","Q.jpg","1","1","1","",""
"","feedback","","html-keyboard-response","516","616129","0.0-1.0-708.0-0.0","0","0","11894","","null","","","null","78","","","","","","","","","","","","","","","",""
"","ITI","","html-keyboard-response","517","617133","0.0-1.0-711.0","0","0","11894","","null","","","null","78","","","","","","","","","","","","","","","NaN",""
"","S1","","html-keyboard-response","518","617388","0.0-1.0-713.0","0","0","11894","","null","","","null","79","","","","","","","","","","","","","","","",""
"","ISI","","html-keyboard-response","519","619394","0.0-1.0-714.0","0","0","11894","","null","","","null","79","NaN","","","","","","","","","","","","","","",""
"","S2","","html-keyboard-response","520","619649","0.0-1.0-715.0","0","0","11894","","null","","","null","79","","NaN","","","","","","","","","","","","","",""
"","response","","html-keyboard-response","521","619718","0.0-1.0-716.0","0","0","11894","","67","","","68","79","","","2","79","training","adjacent","CD","3","4","R.jpg","O.jpg","1","1","1","",""
"","feedback","","html-keyboard-response","522","620721","0.0-1.0-717.0-0.0","0","0","11894","","null","","","null","79","","","","","","","","","","","","","","","",""
"","ITI","","html-keyboard-response","523","621729","0.0-1.0-720.0","0","0","11894","","null","","","null","79","","","","","","","","","","","","","","","NaN",""
"","S1","","html-keyboard-response","524","621986","0.0-1.0-722.0","0","0","11894","","null","","","null","80","","","","","","","","","","","","","","","",""
"","ISI","","html-keyboard-response","525","623991","0.0-1.0-723.0","0","0","11894","","null","","","null","80","NaN","","","","","","","","","","","","","","",""
"","S2","","html-keyboard-response","526","624247","0.0-1.0-724.0","0","0","11894","","null","","","null","80","","NaN","","","","","","","","","","","","","",""
"","response","","html-keyboard-response","527","624398","0.0-1.0-725.0","0","0","11894","","149","","","68","80","","","2","80","training","adjacent","GF","7","6","Q.jpg","P.jpg","1","0","0","",""
"","feedback","","html-keyboard-response","528","625404","0.0-1.0-726.0-0.0","0","0","11894","","null","","","null","80","","","","","","","","","","","","","","","",""
"","time_out","","html-keyboard-response","529","627410","0.0-1.0-728.0-0.0","0","0","11894","","null","","","null","80","","","","","","","","","","","","","","","",""
"","ITI","","html-keyboard-response","530","628412","0.0-1.0-729.0","0","0","11894","","null","","","null","80","","","","","","","","","","","","","","","NaN",""
"","S1","","html-keyboard-response","531","628668","0.0-1.0-731.0","0","0","11894","","null","","","null","81","","","","","","","","","","","","","","","",""
"","ISI","","html-keyboard-response","532","630674","0.0-1.0-732.0","0","0","11894","","1908","","","68","81","d","","","","","","","","","","","","","","",""
"","S2","","html-keyboard-response","533","630930","0.0-1.0-733.0","0","0","11894","","159","","","68","81","","d","","","","","","","","","","","","","",""
"","response","","html-keyboard-response","534","631335","0.0-1.0-734.0","0","0","11894","","402","","","68","81","","","2","81","training","adjacent","BC","2","3","N.jpg","R.jpg","1","1","1","",""
"","feedback","","html-keyboard-response","535","632338","0.0-1.0-735.0-0.0","0","0","11894","","null","","","null","81","","","","","","","","","","","","","","","",""
"","ITI","","html-keyboard-response","536","633346","0.0-1.0-738.0","0","0","11894","","null","","","null","81","","","","","","","","","","","","","","","NaN",""
"","S1","","html-keyboard-response","537","633602","0.0-1.0-740.0","0","0","11894","","null","","","null","82","","","","","","","","","","","","","","","",""
"","ISI","","html-keyboard-response","538","635607","0.0-1.0-741.0","0","0","11894","","null","","","null","82","NaN","","","","","","","","","","","","","","",""
"","S2","","html-keyboard-response","539","635863","0.0-1.0-742.0","0","0","11894","","null","","","null","82","","NaN","","","","","","","","","","","","","",""
"","response","","html-keyboard-response","540","635953","0.0-1.0-743.0","0","0","11894","","87","","","68","82","","","2","82","training","adjacent","BA","2","1","N.jpg","L.jpg","1","0","0","",""
"","feedback","","html-keyboard-response","541","636957","0.0-1.0-744.0-0.0","0","0","11894","","null","","","null","82","","","","","","","","","","","","","","","",""
"","time_out","","html-keyboard-response","542","638962","0.0-1.0-746.0-0.0","0","0","11894","","null","","","null","82","","","","","","","","","","","","","","","",""
"","ITI","","html-keyboard-response","543","639965","0.0-1.0-747.0","0","0","11894","","null","","","null","82","","","","","","","","","","","","","","","NaN",""
"","S1","","html-keyboard-response","544","640221","0.0-1.0-749.0","0","0","11894","","null","","","null","83","","","","","","","","","","","","","","","",""
"","ISI","","html-keyboard-response","545","642226","0.0-1.0-750.0","0","0","11894","","null","","","null","83","NaN","","","","","","","","","","","","","","",""
"","S2","","html-keyboard-response","546","642482","0.0-1.0-751.0","0","0","11894","","null","","","null","83","","NaN","","","","","","","","","","","","","",""
"","response","","html-keyboard-response","547","642503","0.0-1.0-752.0","0","0","11894","","18","","","75","83","","","2","83","training","adjacent","ED","5","4","M.jpg","O.jpg","0","0","1","",""
"","feedback","","html-keyboard-response","548","643511","0.0-1.0-753.0-0.0","0","0","11894","","null","","","null","83","","","","","","","","","","","","","","","",""
"","ITI","","html-keyboard-response","549","644515","0.0-1.0-756.0","0","0","11894","","null","","","null","83","","","","","","","","","","","","","","","NaN",""
"","S1","","html-keyboard-response","550","644770","0.0-1.0-758.0","0","0","11894","","null","","","null","84","","","","","","","","","","","","","","","",""
"","ISI","","html-keyboard-response","551","646775","0.0-1.0-759.0","0","0","11894","","null","","","null","84","NaN","","","","","","","","","","","","","","",""
"","S2","","html-keyboard-response","552","647031","0.0-1.0-760.0","0","0","11894","","null","","","null","84","","NaN","","","","","","","","","","","","","",""
"","response","","html-keyboard-response","553","647332","0.0-1.0-761.0","0","0","11894","","299","","","75","84","","","2","84","training","adjacent","EF","5","6","M.jpg","P.jpg","0","1","0","",""
"","feedback","","html-keyboard-response","554","648338","0.0-1.0-762.0-0.0","0","0","11894","","null","","","null","84","","","","","","","","","","","","","","","",""
"","time_out","","html-keyboard-response","555","650344","0.0-1.0-764.0-0.0","0","0","11894","","null","","","null","84","","","","","","","","","","","","","","","",""
"","ITI","","html-keyboard-response","556","651351","0.0-1.0-765.0","0","0","11894","","null","","","null","84","","","","","","","","","","","","","","","NaN",""
"","S1","","html-keyboard-response","557","651607","0.0-1.0-767.0","0","0","11894","","null","","","null","85","","","","","","","","","","","","","","","",""
"","ISI","","html-keyboard-response","558","653615","0.0-1.0-768.0","0","0","11894","","null","","","null","85","NaN","","","","","","","","","","","","","","",""
"","S2","","html-keyboard-response","559","653869","0.0-1.0-769.0","0","0","11894","","null","","","null","85","","NaN","","","","","","","","","","","","","",""
"","response","","html-keyboard-response","560","653896","0.0-1.0-770.0","0","0","11894","","25","","","68","85","","","2","85","training","adjacent","FG","6","7","P.jpg","Q.jpg","1","1","1","",""
"","feedback","","html-keyboard-response","561","654904","0.0-1.0-771.0-0.0","0","0","11894","","null","","","null","85","","","","","","","","","","","","","","","",""
"","ITI","","html-keyboard-response","562","655911","0.0-1.0-774.0","0","0","11894","","null","","","null","85","","","","","","","","","","","","","","","NaN",""
"","S1","","html-keyboard-response","563","656168","0.0-1.0-776.0","0","0","11894","","null","","","null","86","","","","","","","","","","","","","","","",""
"","ISI","","html-keyboard-response","564","658173","0.0-1.0-777.0","0","0","11894","","null","","","null","86","NaN","","","","","","","","","","","","","","",""
"","S2","","html-keyboard-response","565","658429","0.0-1.0-778.0","0","0","11894","","null","","","null","86","","NaN","","","","","","","","","","","","","",""
"","response","","html-keyboard-response","566","658442","0.0-1.0-779.0","0","0","11894","","11","","","68","86","","","2","86","training","adjacent","FG","6","7","P.jpg","Q.jpg","1","1","1","",""
"","feedback","","html-keyboard-response","567","659448","0.0-1.0-780.0-0.0","0","0","11894","","null","","","null","86","","","","","","","","","","","","","","","",""
"","ITI","","html-keyboard-response","568","660455","0.0-1.0-783.0","0","0","11894","","null","","","null","86","","","","","","","","","","","","","","","NaN",""
"","S1","","html-keyboard-response","569","660712","0.0-1.0-785.0","0","0","11894","","null","","","null","87","","","","","","","","","","","","","","","",""
"","ISI","","html-keyboard-response","570","662717","0.0-1.0-786.0","0","0","11894","","null","","","null","87","NaN","","","","","","","","","","","","","","",""
"","S2","","html-keyboard-response","571","662973","0.0-1.0-787.0","0","0","11894","","null","","","null","87","","NaN","","","","","","","","","","","","","",""
"","response","","html-keyboard-response","572","663072","0.0-1.0-788.0","0","0","11894","","97","","","68","87","","","2","87","training","adjacent","GF","7","6","Q.jpg","P.jpg","1","0","0","",""
"","feedback","","html-keyboard-response","573","664077","0.0-1.0-789.0-0.0","0","0","11894","","null","","","null","87","","","","","","","","","","","","","","","",""
"","time_out","","html-keyboard-response","574","666083","0.0-1.0-791.0-0.0","0","0","11894","","null","","","null","87","","","","","","","","","","","","","","","",""
"","ITI","","html-keyboard-response","575","667085","0.0-1.0-792.0","0","0","11894","","null","","","null","87","","","","","","","","","","","","","","","NaN",""
"","S1","","html-keyboard-response","576","667341","0.0-1.0-794.0","0","0","11894","","null","","","null","88","","","","","","","","","","","","","","","",""
"","ISI","","html-keyboard-response","577","669347","0.0-1.0-795.0","0","0","11894","","null","","","null","88","NaN","","","","","","","","","","","","","","",""
"","S2","","html-keyboard-response","578","669603","0.0-1.0-796.0","0","0","11894","","null","","","null","88","","NaN","","","","","","","","","","","","","",""
"","response","","html-keyboard-response","579","669695","0.0-1.0-797.0","0","0","11894","","89","","","68","88","","","2","88","training","adjacent","ED","5","4","M.jpg","O.jpg","1","0","0","",""
"","feedback","","html-keyboard-response","580","670701","0.0-1.0-798.0-0.0","0","0","11894","","null","","","null","88","","","","","","","","","","","","","","","",""
"","time_out","","html-keyboard-response","581","672707","0.0-1.0-800.0-0.0","0","0","11894","","null","","","null","88","","","","","","","","","","","","","","","",""
"","ITI","","html-keyboard-response","582","673715","0.0-1.0-801.0","0","0","11894","","null","","","null","88","","","","","","","","","","","","","","","NaN",""
"","S1","","html-keyboard-response","583","673971","0.0-1.0-803.0","0","0","11894","","null","","","null","89","","","","","","","","","","","","","","","",""
