"success","ttype","start_time","trial_type","trial_index","time_elapsed","internal_node_id","warning","missed_checkup","PID","view_history","rt","responses","repeat_instructions","key_press","index","keypress_isi","keypress_S2","block","trial_num","phase","group_type","pair_type","S1_stim","S2_stim","S1_img","S2_img","S1_chosen","S1_higher","accuracy","keypress_iti","total_bonus_tally"
"true","full_screen","d07282022hr1919","fullscreen","0","660451","0.0-0.0","0","0","10130","","","","","","","","","","","","","","","","","","","","","",""
"","instructions","","instructions","1","1569299","0.0-1.0-0.0-0.0","0","0","10130","[{""page_index"":0,""viewing_time"":865171},{""page_index"":1,""viewing_time"":30110},{""page_index"":2,""viewing_time"":11470},{""page_index"":3,""viewing_time"":2092}]","908844","","","","","","","","","","","","","","","","","","","",""
"","comprehension_check","","survey-multi-choice","2","1595128","0.0-1.0-0.0-1.0","0","0","10130","","25823","{""Q0"":""True"",""Q1"":""True"",""Q2"":""When you see the prompt 'MAKE A CHOICE' after the second image was presented"",""Q3"":""Green mark"",""Q4"":""either D or K""}","0","","","","","","","","","","","","","","","","","",""
"","start_exp","","html-keyboard-response","3","1599022","0.0-1.0-1.0","0","0","10130","","3889","","","32","","","","","","","","","","","","","","","","",""
"","S1","","html-keyboard-response","4","1599276","0.0-1.0-2.0","0","0","10130","","null","","","null","0","","","","","","","","","","","","","","","",""
"","ISI","","html-keyboard-response","5","1601280","0.0-1.0-3.0","0","0","10130","","null","","","null","0","NaN","","","","","","","","","","","","","","",""
"","S2","","html-keyboard-response","6","1601536","0.0-1.0-4.0","0","0","10130","","null","","","null","0","","NaN","","","","","","","","","","","","","",""
"","response","","html-keyboard-response","7","1602572","0.0-1.0-5.0","0","0","10130","","1031","","","68","0","","","1","0","training","adjacent","AB","1","2","O.jpg","M.jpg","1","1","1","",""
"","feedback","","html-keyboard-response","8","1603589","0.0-1.0-6.0-0.0","0","0","10130","","null","","","null","0","","","","","","","","","","","","","","","",""
"","ITI","","html-keyboard-response","9","1604595","0.0-1.0-9.0","0","0","10130","","null","","","null","0","","","","","","","","","","","","","","","NaN",""
"","S1","","html-keyboard-response","10","1604850","0.0-1.0-11.0","0","0","10130","","null","","","null","1","","","","","","","","","","","","","","","",""
"","ISI","","html-keyboard-response","11","1606854","0.0-1.0-12.0","0","0","10130","","null","","","null","1","NaN","","","","","","","","","","","","","","",""
"","S2","","html-keyboard-response","12","1607108","0.0-1.0-13.0","0","0","10130","","null","","","null","1","","NaN","","","","","","","","","","","","","",""
"","response","","html-keyboard-response","13","1607548","0.0-1.0-14.0","0","0","10130","","437","","","75","1","","","1","1","training","adjacent","BC","2","3","M.jpg","P.jpg","0","1","0","",""
"","feedback","","html-keyboard-response","14","1608562","0.0-1.0-15.0-0.0","0","0","10130","","null","","","null","1","","","","","","","","","","","","","","","",""
"","time_out","","html-keyboard-response","15","1610567","0.0-1.0-17.0-0.0","0","0","10130","","null","","","null","1","","","","","","","","","","","","","","","",""
"","ITI","","html-keyboard-response","16","1611572","0.0-1.0-18.0","0","0","10130","","null","","","null","1","","","","","","","","","","","","","","","NaN",""
"","S1","","html-keyboard-response","17","1611826","0.0-1.0-20.0","0","0","10130","","null","","","null","2","","","","","","","","","","","","","","","",""
"","ISI","","html-keyboard-response","18","1613830","0.0-1.0-21.0","0","0","10130","","null","","","null","2","NaN","","","","","","","","","","","","","","",""
"","S2","","html-keyboard-response","19","1614085","0.0-1.0-22.0","0","0","10130","","null","","","null","2","","NaN","","","","","","","","","","","","","",""
"","response","","html-keyboard-response","20","1614758","0.0-1.0-23.0","0","0","10130","","669","","","68","2","","","1","2","training","adjacent","ED","5","4","Q.jpg","R.jpg","1","0","0","",""
"","feedback","","html-keyboard-response","21","1615762","0.0-1.0-24.0-0.0","0","0","10130","","null","","","null","2","","","","","","","","","","","","","","","",""
"","time_out","","html-keyboard-response","22","1617765","0.0-1.0-26.0-0.0","0","0","10130","","null","","","null","2","","","","","","","","","","","","","","","",""
"","ITI","","html-keyboard-response","23","1618770","0.0-1.0-27.0","0","0","10130","","null","","","null","2","","","","","","","","","","","","","","","NaN",""
"","S1","","html-keyboard-response","24","1619025","0.0-1.0-29.0","0","0","10130","","null","","","null","3","","","","","","","","","","","","","","","",""
"","ISI","","html-keyboard-response","25","1621029","0.0-1.0-30.0","0","0","10130","","null","","","null","3","NaN","","","","","","","","","","","","","","",""
"","S2","","html-keyboard-response","26","1621282","0.0-1.0-31.0","0","0","10130","","null","","","null","3","","NaN","","","","","","","","","","","","","",""
"","response","","html-keyboard-response","27","1621712","0.0-1.0-32.0","0","0","10130","","428","","","68","3","","","1","3","training","adjacent","CB","3","2","P.jpg","M.jpg","1","0","0","",""
"","feedback","","html-keyboard-response","28","1622719","0.0-1.0-33.0-0.0","0","0","10130","","null","","","null","3","","","","","","","","","","","","","","","",""
"","time_out","","html-keyboard-response","29","1624724","0.0-1.0-35.0-0.0","0","0","10130","","null","","","null","3","","","","","","","","","","","","","","","",""
"","ITI","","html-keyboard-response","30","1625728","0.0-1.0-36.0","0","0","10130","","null","","","null","3","","","","","","","","","","","","","","","NaN",""
"","S1","","html-keyboard-response","31","1625984","0.0-1.0-38.0","0","0","10130","","null","","","null","4","","","","","","","","","","","","","","","",""
"","ISI","","html-keyboard-response","32","1627988","0.0-1.0-39.0","0","0","10130","","null","","","null","4","NaN","","","","","","","","","","","","","","",""
"","S2","","html-keyboard-response","33","1628243","0.0-1.0-40.0","0","0","10130","","null","","","null","4","","NaN","","","","","","","","","","","","","",""
"","response","","html-keyboard-response","34","1629066","0.0-1.0-41.0","0","0","10130","","820","","","68","4","","","1","4","training","adjacent","DE","4","5","R.jpg","Q.jpg","1","1","1","",""
"","feedback","","html-keyboard-response","35","1630071","0.0-1.0-42.0-0.0","0","0","10130","","null","","","null","4","","","","","","","","","","","","","","","",""
"","ITI","","html-keyboard-response","36","1631075","0.0-1.0-45.0","0","0","10130","","null","","","null","4","","","","","","","","","","","","","","","NaN",""
"","S1","","html-keyboard-response","37","1631329","0.0-1.0-47.0","0","0","10130","","null","","","null","5","","","","","","","","","","","","","","","",""
"","ISI","","html-keyboard-response","38","1633333","0.0-1.0-48.0","0","0","10130","","null","","","null","5","NaN","","","","","","","","","","","","","","",""
"","S2","","html-keyboard-response","39","1633588","0.0-1.0-49.0","0","0","10130","","null","","","null","5","","NaN","","","","","","","","","","","","","",""
"","response","","html-keyboard-response","40","1634002","0.0-1.0-50.0","0","0","10130","","410","","","75","5","","","1","5","training","adjacent","AB","1","2","O.jpg","M.jpg","0","1","0","",""
"","feedback","","html-keyboard-response","41","1635005","0.0-1.0-51.0-0.0","0","0","10130","","null","","","null","5","","","","","","","","","","","","","","","",""
"","time_out","","html-keyboard-response","42","1637009","0.0-1.0-53.0-0.0","0","0","10130","","null","","","null","5","","","","","","","","","","","","","","","",""
"","ITI","","html-keyboard-response","43","1638013","0.0-1.0-54.0","0","0","10130","","null","","","null","5","","","","","","","","","","","","","","","NaN",""
"","S1","","html-keyboard-response","44","1638268","0.0-1.0-56.0","0","0","10130","","null","","","null","6","","","","","","","","","","","","","","","",""
"","ISI","","html-keyboard-response","45","1640271","0.0-1.0-57.0","0","0","10130","","null","","","null","6","NaN","","","","","","","","","","","","","","",""
"","S2","","html-keyboard-response","46","1640525","0.0-1.0-58.0","0","0","10130","","null","","","null","6","","NaN","","","","","","","","","","","","","",""
"","response","","html-keyboard-response","47","1641026","0.0-1.0-59.0","0","0","10130","","498","","","68","6","","","1","6","training","adjacent","BA","2","1","M.jpg","O.jpg","1","0","0","",""
"","feedback","","html-keyboard-response","48","1642040","0.0-1.0-60.0-0.0","0","0","10130","","null","","","null","6","","","","","","","","","","","","","","","",""
"","time_out","","html-keyboard-response","49","1644044","0.0-1.0-62.0-0.0","0","0","10130","","null","","","null","6","","","","","","","","","","","","","","","",""
"","ITI","","html-keyboard-response","50","1645049","0.0-1.0-63.0","0","0","10130","","null","","","null","6","","","","","","","","","","","","","","","NaN",""
"","S1","","html-keyboard-response","51","1645303","0.0-1.0-65.0","0","0","10130","","null","","","null","7","","","","","","","","","","","","","","","",""
"","ISI","","html-keyboard-response","52","1647309","0.0-1.0-66.0","0","0","10130","","null","","","null","7","NaN","","","","","","","","","","","","","","",""
"","S2","","html-keyboard-response","53","1647564","0.0-1.0-67.0","0","0","10130","","null","","","null","7","","NaN","","","","","","","","","","","","","",""
"","response","","html-keyboard-response","54","1648134","0.0-1.0-68.0","0","0","10130","","565","","","68","7","","","1","7","training","adjacent","DC","4","3","R.jpg","P.jpg","1","0","0","",""
"","feedback","","html-keyboard-response","55","1649141","0.0-1.0-69.0-0.0","0","0","10130","","null","","","null","7","","","","","","","","","","","","","","","",""
"","time_out","","html-keyboard-response","56","1651145","0.0-1.0-71.0-0.0","0","0","10130","","null","","","null","7","","","","","","","","","","","","","","","",""
"","ITI","","html-keyboard-response","57","1652149","0.0-1.0-72.0","0","0","10130","","null","","","null","7","","","","","","","","","","","","","","","NaN",""
"","S1","","html-keyboard-response","58","1652404","0.0-1.0-74.0","0","0","10130","","null","","","null","8","","","","","","","","","","","","","","","",""
"","ISI","","html-keyboard-response","59","1654407","0.0-1.0-75.0","0","0","10130","","null","","","null","8","NaN","","","","","","","","","","","","","","",""
"","S2","","html-keyboard-response","60","1654667","0.0-1.0-76.0","0","0","10130","","null","","","null","8","","NaN","","","","","","","","","","","","","",""
"","response","","html-keyboard-response","61","1655239","0.0-1.0-77.0","0","0","10130","","568","","","75","8","","","1","8","training","adjacent","CD","3","4","P.jpg","R.jpg","0","1","0","",""
"","feedback","","html-keyboard-response","62","1656245","0.0-1.0-78.0-0.0","0","0","10130","","null","","","null","8","","","","","","","","","","","","","","","",""
"","time_out","","html-keyboard-response","63","1658249","0.0-1.0-80.0-0.0","0","0","10130","","null","","","null","8","","","","","","","","","","","","","","","",""
"","ITI","","html-keyboard-response","64","1659253","0.0-1.0-81.0","0","0","10130","","null","","","null","8","","","","","","","","","","","","","","","NaN",""
"","S1","","html-keyboard-response","65","1659509","0.0-1.0-83.0","0","0","10130","","null","","","null","9","","","","","","","","","","","","","","","",""
"","ISI","","html-keyboard-response","66","1661513","0.0-1.0-84.0","0","0","10130","","null","","","null","9","NaN","","","","","","","","","","","","","","",""
"","S2","","html-keyboard-response","67","1661768","0.0-1.0-85.0","0","0","10130","","null","","","null","9","","NaN","","","","","","","","","","","","","",""
"","response","","html-keyboard-response","68","1662430","0.0-1.0-86.0","0","0","10130","","659","","","68","9","","","1","9","training","adjacent","DE","4","5","R.jpg","Q.jpg","1","1","1","",""
"","feedback","","html-keyboard-response","69","1663435","0.0-1.0-87.0-0.0","0","0","10130","","null","","","null","9","","","","","","","","","","","","","","","",""
"","ITI","","html-keyboard-response","70","1664439","0.0-1.0-90.0","0","0","10130","","null","","","null","9","","","","","","","","","","","","","","","NaN",""
"","S1","","html-keyboard-response","71","1664695","0.0-1.0-92.0","0","0","10130","","null","","","null","10","","","","","","","","","","","","","","","",""
"","ISI","","html-keyboard-response","72","1666700","0.0-1.0-93.0","0","0","10130","","null","","","null","10","NaN","","","","","","","","","","","","","","",""
"","S2","","html-keyboard-response","73","1666953","0.0-1.0-94.0","0","0","10130","","null","","","null","10","","NaN","","","","","","","","","","","","","",""
"","response","","html-keyboard-response","74","1667338","0.0-1.0-95.0","0","0","10130","","380","","","68","10","","","1","10","training","adjacent","FE","6","5","L.jpg","Q.jpg","1","0","0","",""
"","feedback","","html-keyboard-response","75","1668344","0.0-1.0-96.0-0.0","0","0","10130","","null","","","null","10","","","","","","","","","","","","","","","",""
"","time_out","","html-keyboard-response","76","1670348","0.0-1.0-98.0-0.0","0","0","10130","","null","","","null","10","","","","","","","","","","","","","","","",""
"","ITI","","html-keyboard-response","77","1671352","0.0-1.0-99.0","0","0","10130","","null","","","null","10","","","","","","","","","","","","","","","NaN",""
"","S1","","html-keyboard-response","78","1671605","0.0-1.0-101.0","0","0","10130","","null","","","null","11","","","","","","","","","","","","","","","",""
"","ISI","","html-keyboard-response","79","1673609","0.0-1.0-102.0","0","0","10130","","null","","","null","11","NaN","","","","","","","","","","","","","","",""
"","S2","","html-keyboard-response","80","1673864","0.0-1.0-103.0","0","0","10130","","null","","","null","11","","NaN","","","","","","","","","","","","","",""
"","response","","html-keyboard-response","81","1674404","0.0-1.0-104.0","0","0","10130","","537","","","75","11","","","1","11","training","adjacent","EF","5","6","Q.jpg","L.jpg","0","1","0","",""
"","feedback","","html-keyboard-response","82","1675409","0.0-1.0-105.0-0.0","0","0","10130","","null","","","null","11","","","","","","","","","","","","","","","",""
"","time_out","","html-keyboard-response","83","1677412","0.0-1.0-107.0-0.0","0","0","10130","","null","","","null","11","","","","","","","","","","","","","","","",""
"","ITI","","html-keyboard-response","84","1678417","0.0-1.0-108.0","0","0","10130","","null","","","null","11","","","","","","","","","","","","","","","NaN",""
"","S1","","html-keyboard-response","85","1678671","0.0-1.0-110.0","0","0","10130","","null","","","null","12","","","","","","","","","","","","","","","",""
"","ISI","","html-keyboard-response","86","1680674","0.0-1.0-111.0","0","0","10130","","null","","","null","12","NaN","","","","","","","","","","","","","","",""
"","S2","","html-keyboard-response","87","1680928","0.0-1.0-112.0","0","0","10130","","null","","","null","12","","NaN","","","","","","","","","","","","","",""
"","response","","html-keyboard-response","88","1681627","0.0-1.0-113.0","0","0","10130","","696","","","68","12","","","1","12","training","adjacent","CB","3","2","P.jpg","M.jpg","1","0","0","",""
"","feedback","","html-keyboard-response","89","1682631","0.0-1.0-114.0-0.0","0","0","10130","","null","","","null","12","","","","","","","","","","","","","","","",""
"","time_out","","html-keyboard-response","90","1684635","0.0-1.0-116.0-0.0","0","0","10130","","null","","","null","12","","","","","","","","","","","","","","","",""
"","ITI","","html-keyboard-response","91","1685639","0.0-1.0-117.0","0","0","10130","","null","","","null","12","","","","","","","","","","","","","","","NaN",""
"","S1","","html-keyboard-response","92","1685893","0.0-1.0-119.0","0","0","10130","","null","","","null","13","","","","","","","","","","","","","","","",""
"","ISI","","html-keyboard-response","93","1687898","0.0-1.0-120.0","0","0","10130","","null","","","null","13","NaN","","","","","","","","","","","","","","",""
"","S2","","html-keyboard-response","94","1688152","0.0-1.0-121.0","0","0","10130","","null","","","null","13","","NaN","","","","","","","","","","","","","",""
"","response","","html-keyboard-response","95","1689061","0.0-1.0-122.0","0","0","10130","","907","","","68","13","","","1","13","training","adjacent","EF","5","6","Q.jpg","L.jpg","1","1","1","",""
"","feedback","","html-keyboard-response","96","1690066","0.0-1.0-123.0-0.0","0","0","10130","","null","","","null","13","","","","","","","","","","","","","","","",""
"","ITI","","html-keyboard-response","97","1691071","0.0-1.0-126.0","0","0","10130","","null","","","null","13","","","","","","","","","","","","","","","NaN",""
"","S1","","html-keyboard-response","98","1691325","0.0-1.0-128.0","0","0","10130","","null","","","null","14","","","","","","","","","","","","","","","",""
"","ISI","","html-keyboard-response","99","1693329","0.0-1.0-129.0","0","0","10130","","null","","","null","14","NaN","","","","","","","","","","","","","","",""
"","S2","","html-keyboard-response","100","1693585","0.0-1.0-130.0","0","0","10130","","null","","","null","14","","NaN","","","","","","","","","","","","","",""
"","response","","html-keyboard-response","101","1694479","0.0-1.0-131.0","0","0","10130","","890","","","75","14","","","1","14","training","adjacent","GF","7","6","N.jpg","L.jpg","0","0","1","",""
"","feedback","","html-keyboard-response","102","1695484","0.0-1.0-132.0-0.0","0","0","10130","","null","","","null","14","","","","","","","","","","","","","","","",""
"","ITI","","html-keyboard-response","103","1696488","0.0-1.0-135.0","0","0","10130","","null","","","null","14","","","","","","","","","","","","","","","NaN",""
"","S1","","html-keyboard-response","104","1696745","0.0-1.0-137.0","0","0","10130","","null","","","null","15","","","","","","","","","","","","","","","",""
"","ISI","","html-keyboard-response","105","1698751","0.0-1.0-138.0","0","0","10130","","null","","","null","15","NaN","","","","","","","","","","","","","","",""
"","S2","","html-keyboard-response","106","1699005","0.0-1.0-139.0","0","0","10130","","null","","","null","15","","NaN","","","","","","","","","","","","","",""
"","response","","html-keyboard-response","107","1700337","0.0-1.0-140.0","0","0","10130","","1329","","","75","15","","","1","15","training","adjacent","AB","1","2","O.jpg","M.jpg","0","1","0","",""
"","feedback","","html-keyboard-response","108","1701349","0.0-1.0-141.0-0.0","0","0","10130","","null","","","null","15","","","","","","","","","","","","","","","",""
"","time_out","","html-keyboard-response","109","1703353","0.0-1.0-143.0-0.0","0","0","10130","","null","","","null","15","","","","","","","","","","","","","","","",""
"","ITI","","html-keyboard-response","110","1704357","0.0-1.0-144.0","0","0","10130","","null","","","null","15","","","","","","","","","","","","","","","NaN",""
"","S1","","html-keyboard-response","111","1704612","0.0-1.0-146.0","0","0","10130","","null","","","null","16","","","","","","","","","","","","","","","",""
"","ISI","","html-keyboard-response","112","1706616","0.0-1.0-147.0","0","0","10130","","null","","","null","16","NaN","","","","","","","","","","","","","","",""
"","S2","","html-keyboard-response","113","1706871","0.0-1.0-148.0","0","0","10130","","null","","","null","16","","NaN","","","","","","","","","","","","","",""
"","response","","html-keyboard-response","114","1707775","0.0-1.0-149.0","0","0","10130","","901","","","68","16","","","1","16","training","adjacent","DC","4","3","R.jpg","P.jpg","1","0","0","",""
"","feedback","","html-keyboard-response","115","1708780","0.0-1.0-150.0-0.0","0","0","10130","","null","","","null","16","","","","","","","","","","","","","","","",""
"","time_out","","html-keyboard-response","116","1710784","0.0-1.0-152.0-0.0","0","0","10130","","null","","","null","16","","","","","","","","","","","","","","","",""
"","ITI","","html-keyboard-response","117","1711787","0.0-1.0-153.0","0","0","10130","","null","","","null","16","","","","","","","","","","","","","","","NaN",""
"","S1","","html-keyboard-response","118","1712043","0.0-1.0-155.0","0","0","10130","","null","","","null","17","","","","","","","","","","","","","","","",""
"","ISI","","html-keyboard-response","119","1714046","0.0-1.0-156.0","0","0","10130","","null","","","null","17","NaN","","","","","","","","","","","","","","",""
"","S2","","html-keyboard-response","120","1714301","0.0-1.0-157.0","0","0","10130","","null","","","null","17","","NaN","","","","","","","","","","","","","",""
"","response","","html-keyboard-response","121","1715042","0.0-1.0-158.0","0","0","10130","","738","","","68","17","","","1","17","training","adjacent","BC","2","3","M.jpg","P.jpg","1","1","1","",""
"","feedback","","html-keyboard-response","122","1716045","0.0-1.0-159.0-0.0","0","0","10130","","null","","","null","17","","","","","","","","","","","","","","","",""
"","ITI","","html-keyboard-response","123","1717049","0.0-1.0-162.0","0","0","10130","","null","","","null","17","","","","","","","","","","","","","","","NaN",""
"","S1","","html-keyboard-response","124","1717304","0.0-1.0-164.0","0","0","10130","","null","","","null","18","","","","","","","","","","","","","","","",""
"","ISI","","html-keyboard-response","125","1719308","0.0-1.0-165.0","0","0","10130","","null","","","null","18","NaN","","","","","","","","","","","","","","",""
"","S2","","html-keyboard-response","126","1719562","0.0-1.0-166.0","0","0","10130","","null","","","null","18","","NaN","","","","","","","","","","","","","",""
"","response","","html-keyboard-response","127","1720027","0.0-1.0-167.0","0","0","10130","","462","","","75","18","","","1","18","training","adjacent","BA","2","1","M.jpg","O.jpg","0","0","1","",""
"","feedback","","html-keyboard-response","128","1721032","0.0-1.0-168.0-0.0","0","0","10130","","null","","","null","18","","","","","","","","","","","","","","","",""
"","ITI","","html-keyboard-response","129","1722037","0.0-1.0-171.0","0","0","10130","","null","","","null","18","","","","","","","","","","","","","","","NaN",""
"","S1","","html-keyboard-response","130","1722292","0.0-1.0-173.0","0","0","10130","","null","","","null","19","","","","","","","","","","","","","","","",""
"","ISI","","html-keyboard-response","131","1724295","0.0-1.0-174.0","0","0","10130","","null","","","null","19","NaN","","","","","","","","","","","","","","",""
"","S2","","html-keyboard-response","132","1724549","0.0-1.0-175.0","0","0","10130","","null","","","null","19","","NaN","","","","","","","","","","","","","",""
"","response","","html-keyboard-response","133","1725739","0.0-1.0-176.0","0","0","10130","","1186","","","68","19","","","1","19","training","adjacent","AB","1","2","O.jpg","M.jpg","1","1","1","",""
"","feedback","","html-keyboard-response","134","1726744","0.0-1.0-177.0-0.0","0","0","10130","","null","","","null","19","","","","","","","","","","","","","","","",""
"","ITI","","html-keyboard-response","135","1727746","0.0-1.0-180.0","0","0","10130","","null","","","null","19","","","","","","","","","","","","","","","NaN",""
"","S1","","html-keyboard-response","136","1727999","0.0-1.0-182.0","0","0","10130","","null","","","null","20","","","","","","","","","","","","","","","",""
"","ISI","","html-keyboard-response","137","1730004","0.0-1.0-183.0","0","0","10130","","null","","","null","20","NaN","","","","","","","","","","","","","","",""
"","S2","","html-keyboard-response","138","1730259","0.0-1.0-184.0","0","0","10130","","null","","","null","20","","NaN","","","","","","","","","","","","","",""
"","response","","html-keyboard-response","139","1731293","0.0-1.0-185.0","0","0","10130","","1030","","","75","20","","","1","20","training","adjacent","DC","4","3","R.jpg","P.jpg","0","0","1","",""
"","feedback","","html-keyboard-response","140","1732298","0.0-1.0-186.0-0.0","0","0","10130","","null","","","null","20","","","","","","","","","","","","","","","",""
"","ITI","","html-keyboard-response","141","1733302","0.0-1.0-189.0","0","0","10130","","null","","","null","20","","","","","","","","","","","","","","","NaN",""
"","S1","","html-keyboard-response","142","1733556","0.0-1.0-191.0","0","0","10130","","null","","","null","21","","","","","","","","","","","","","","","",""
"","ISI","","html-keyboard-response","143","1735560","0.0-1.0-192.0","0","0","10130","","null","","","null","21","NaN","","","","","","","","","","","","","","",""
"","S2","","html-keyboard-response","144","1735814","0.0-1.0-193.0","0","0","10130","","null","","","null","21","","NaN","","","","","","","","","","","","","",""
"","response","","html-keyboard-response","145","1736332","0.0-1.0-194.0","0","0","10130","","514","","","68","21","","","1","21","training","adjacent","GF","7","6","N.jpg","L.jpg","1","0","0","",""
"","feedback","","html-keyboard-response","146","1737337","0.0-1.0-195.0-0.0","0","0","10130","","null","","","null","21","","","","","","","","","","","","","","","",""
"","time_out","","html-keyboard-response","147","1739341","0.0-1.0-197.0-0.0","0","0","10130","","null","","","null","21","","","","","","","","","","","","","","","",""
"","ITI","","html-keyboard-response","148","1740345","0.0-1.0-198.0","0","0","10130","","null","","","null","21","","","","","","","","","","","","","","","NaN",""
"","S1","","html-keyboard-response","149","1740600","0.0-1.0-200.0","0","0","10130","","null","","","null","22","","","","","","","","","","","","","","","",""
"","ISI","","html-keyboard-response","150","1742604","0.0-1.0-201.0","0","0","10130","","null","","","null","22","NaN","","","","","","","","","","","","","","",""
"","S2","","html-keyboard-response","151","1742859","0.0-1.0-202.0","0","0","10130","","null","","","null","22","","NaN","","","","","","","","","","","","","",""
"","response","","html-keyboard-response","152","1743383","0.0-1.0-203.0","0","0","10130","","520","","","75","22","","","1","22","training","adjacent","EF","5","6","Q.jpg","L.jpg","0","1","0","",""
"","feedback","","html-keyboard-response","153","1744388","0.0-1.0-204.0-0.0","0","0","10130","","null","","","null","22","","","","","","","","","","","","","","","",""
"","time_out","","html-keyboard-response","154","1746393","0.0-1.0-206.0-0.0","0","0","10130","","null","","","null","22","","","","","","","","","","","","","","","",""
"","ITI","","html-keyboard-response","155","1747398","0.0-1.0-207.0","0","0","10130","","null","","","null","22","","","","","","","","","","","","","","","NaN",""
"","S1","","html-keyboard-response","156","1747652","0.0-1.0-209.0","0","0","10130","","null","","","null","23","","","","","","","","","","","","","","","",""
"","ISI","","html-keyboard-response","157","1749656","0.0-1.0-210.0","0","0","10130","","null","","","null","23","NaN","","","","","","","","","","","","","","",""
"","S2","","html-keyboard-response","158","1749923","0.0-1.0-211.0","0","0","10130","","null","","","null","23","","NaN","","","","","","","","","","","","","",""
"","response","","html-keyboard-response","159","1751448","0.0-1.0-212.0","0","0","10130","","1521","","","75","23","","","1","23","training","adjacent","FG","6","7","L.jpg","N.jpg","0","1","0","",""
"","feedback","","html-keyboard-response","160","1752453","0.0-1.0-213.0-0.0","0","0","10130","","null","","","null","23","","","","","","","","","","","","","","","",""
"","time_out","","html-keyboard-response","161","1754456","0.0-1.0-215.0-0.0","0","0","10130","","null","","","null","23","","","","","","","","","","","","","","","",""
"","ITI","","html-keyboard-response","162","1755461","0.0-1.0-216.0","0","0","10130","","null","","","null","23","","","","","","","","","","","","","","","NaN",""
"","S1","","html-keyboard-response","163","1755715","0.0-1.0-218.0","0","0","10130","","null","","","null","24","","","","","","","","","","","","","","","",""
"","ISI","","html-keyboard-response","164","1757719","0.0-1.0-219.0","0","0","10130","","1364","","","67","24","c","","","","","","","","","","","","","","",""
"","S2","","html-keyboard-response","165","1757974","0.0-1.0-220.0","0","0","10130","","null","","","null","24","","NaN","","","","","","","","","","","","","",""
"","response","","html-keyboard-response","166","1759979","0.0-1.0-221.0","0","0","10130","","null","","","null","24","","","1","24","training","adjacent","DE","4","5","R.jpg","Q.jpg","NaN","1","0","",""
"","too_slow_prompt","","html-keyboard-response","167","1760983","0.0-1.0-223.0-0.0","1","0","10130","","null","","","null","","","","","","","","","","","","","","","","",""
"","time_out","","html-keyboard-response","168","1762988","0.0-1.0-224.0-0.0","0","0","10130","","null","","","null","24","","","","","","","","","","","","","","","",""
"","ITI","","html-keyboard-response","169","1763993","0.0-1.0-225.0","0","0","10130","","null","","","null","24","","","","","","","","","","","","","","","NaN",""
"","S1","","html-keyboard-response","170","1764248","0.0-1.0-227.0","0","0","10130","","null","","","null","25","","","","","","","","","","","","","","","",""
"","ISI","","html-keyboard-response","171","1766252","0.0-1.0-228.0","0","0","10130","","null","","","null","25","NaN","","","","","","","","","","","","","","",""
"","S2","","html-keyboard-response","172","1766507","0.0-1.0-229.0","0","0","10130","","null","","","null","25","","NaN","","","","","","","","","","","","","",""
"","response","","html-keyboard-response","173","1768511","0.0-1.0-230.0","0","0","10130","","null","","","null","25","","","1","25","training","adjacent","FE","6","5","L.jpg","Q.jpg","NaN","0","0","",""
"","too_slow_prompt","","html-keyboard-response","174","1769516","0.0-1.0-232.0-0.0","1","0","10130","","null","","","null","","","","","","","","","","","","","","","","",""
"","time_out","","html-keyboard-response","175","1771521","0.0-1.0-233.0-0.0","0","0","10130","","null","","","null","25","","","","","","","","","","","","","","","",""
"","ITI","","html-keyboard-response","176","1772525","0.0-1.0-234.0","0","0","10130","","null","","","null","25","","","","","","","","","","","","","","","NaN",""
"","S1","","html-keyboard-response","177","1772779","0.0-1.0-236.0","0","0","10130","","null","","","null","26","","","","","","","","","","","","","","","",""
"","ISI","","html-keyboard-response","178","1774783","0.0-1.0-237.0","0","0","10130","","776","","","70","26","f","","","","","","","","","","","","","","",""
"","S2","","html-keyboard-response","179","1775037","0.0-1.0-238.0","0","0","10130","","null","","","null","26","","NaN","","","","","","","","","","","","","",""
"","response","","html-keyboard-response","180","1777041","0.0-1.0-239.0","0","0","10130","","null","","","null","26","","","1","26","training","adjacent","CB","3","2","P.jpg","M.jpg","NaN","0","0","",""
"","too_slow_prompt","","html-keyboard-response","181","1778045","0.0-1.0-241.0-0.0","1","0","10130","","null","","","null","","","","","","","","","","","","","","","","",""
"","time_out","","html-keyboard-response","182","1780048","0.0-1.0-242.0-0.0","0","0","10130","","null","","","null","26","","","","","","","","","","","","","","","",""
"","ITI","","html-keyboard-response","183","1781053","0.0-1.0-243.0","0","0","10130","","945","","","68","26","","","","","","","","","","","","","","","d",""
"","S1","","html-keyboard-response","184","1781307","0.0-1.0-245.0","0","0","10130","","null","","","null","27","","","","","","","","","","","","","","","",""
"","ISI","","html-keyboard-response","185","1783312","0.0-1.0-246.0","0","0","10130","","null","","","null","27","NaN","","","","","","","","","","","","","","",""
"","S2","","html-keyboard-response","186","1783569","0.0-1.0-247.0","0","0","10130","","null","","","null","27","","NaN","","","","","","","","","","","","","",""
"","response","","html-keyboard-response","187","1784301","0.0-1.0-248.0","0","0","10130","","729","","","75","27","","","1","27","training","adjacent","BA","2","1","M.jpg","O.jpg","0","0","1","",""
"","feedback","","html-keyboard-response","188","1785305","0.0-1.0-249.0-0.0","0","0","10130","","null","","","null","27","","","","","","","","","","","","","","","",""
"","ITI","","html-keyboard-response","189","1786309","0.0-1.0-252.0","0","0","10130","","null","","","null","27","","","","","","","","","","","","","","","NaN",""
"","S1","","html-keyboard-response","190","1786563","0.0-1.0-254.0","0","0","10130","","null","","","null","28","","","","","","","","","","","","","","","",""
"","ISI","","html-keyboard-response","191","1788566","0.0-1.0-255.0","0","0","10130","","null","","","null","28","NaN","","","","","","","","","","","","","","",""
"","S2","","html-keyboard-response","192","1788821","0.0-1.0-256.0","0","0","10130","","null","","","null","28","","NaN","","","","","","","","","","","","","",""
"","response","","html-keyboard-response","193","1789266","0.0-1.0-257.0","0","0","10130","","442","","","68","28","","","1","28","training","adjacent","CB","3","2","P.jpg","M.jpg","1","0","0","",""
"","feedback","","html-keyboard-response","194","1790271","0.0-1.0-258.0-0.0","0","0","10130","","null","","","null","28","","","","","","","","","","","","","","","",""
"","time_out","","html-keyboard-response","195","1792275","0.0-1.0-260.0-0.0","0","0","10130","","null","","","null","28","","","","","","","","","","","","","","","",""
"","ITI","","html-keyboard-response","196","1793277","0.0-1.0-261.0","0","0","10130","","null","","","null","28","","","","","","","","","","","","","","","NaN",""
"","S1","","html-keyboard-response","197","1793539","0.0-1.0-263.0","0","0","10130","","null","","","null","29","","","","","","","","","","","","","","","",""
"","ISI","","html-keyboard-response","198","1795544","0.0-1.0-264.0","0","0","10130","","294","","","75","29","k","","","","","","","","","","","","","","",""
"","S2","","html-keyboard-response","199","1795799","0.0-1.0-265.0","0","0","10130","","null","","","null","29","","NaN","","","","","","","","","","","","","",""
"","response","","html-keyboard-response","200","1796227","0.0-1.0-266.0","0","0","10130","","424","","","75","29","","","1","29","training","adjacent","BC","2","3","M.jpg","P.jpg","0","1","0","",""
"","feedback","","html-keyboard-response","201","1797233","0.0-1.0-267.0-0.0","0","0","10130","","null","","","null","29","","","","","","","","","","","","","","","",""
"","time_out","","html-keyboard-response","202","1799237","0.0-1.0-269.0-0.0","0","0","10130","","null","","","null","29","","","","","","","","","","","","","","","",""
"","ITI","","html-keyboard-response","203","1800241","0.0-1.0-270.0","0","0","10130","","352","","","68","29","","","","","","","","","","","","","","","d",""
"","S1","","html-keyboard-response","204","1800496","0.0-1.0-272.0","0","0","10130","","null","","","null","30","","","","","","","","","","","","","","","",""
"","ISI","","html-keyboard-response","205","1802500","0.0-1.0-273.0","0","0","10130","","null","","","null","30","NaN","","","","","","","","","","","","","","",""
"","S2","","html-keyboard-response","206","1802753","0.0-1.0-274.0","0","0","10130","","null","","","null","30","","NaN","","","","","","","","","","","","","",""
"","response","","html-keyboard-response","207","1804659","0.0-1.0-275.0","0","0","10130","","1903","","","68","30","","","1","30","training","adjacent","BC","2","3","M.jpg","P.jpg","1","1","1","",""
"","feedback","","html-keyboard-response","208","1805664","0.0-1.0-276.0-0.0","0","0","10130","","null","","","null","30","","","","","","","","","","","","","","","",""
"","ITI","","html-keyboard-response","209","1806668","0.0-1.0-279.0","0","0","10130","","null","","","null","30","","","","","","","","","","","","","","","NaN",""
"","S1","","html-keyboard-response","210","1806923","0.0-1.0-281.0","0","0","10130","","null","","","null","31","","","","","","","","","","","","","","","",""
"","ISI","","html-keyboard-response","211","1808927","0.0-1.0-282.0","0","0","10130","","null","","","null","31","NaN","","","","","","","","","","","","","","",""
"","S2","","html-keyboard-response","212","1809182","0.0-1.0-283.0","0","0","10130","","null","","","null","31","","NaN","","","","","","","","","","","","","",""
"","response","","html-keyboard-response","213","1809201","0.0-1.0-284.0","0","0","10130","","17","","","68","31","","","1","31","training","adjacent","ED","5","4","Q.jpg","R.jpg","1","0","0","",""
"","feedback","","html-keyboard-response","214","1810205","0.0-1.0-285.0-0.0","0","0","10130","","null","","","null","31","","","","","","","","","","","","","","","",""
"","time_out","","html-keyboard-response","215","1812210","0.0-1.0-287.0-0.0","0","0","10130","","null","","","null","31","","","","","","","","","","","","","","","",""
"","ITI","","html-keyboard-response","216","1813213","0.0-1.0-288.0","0","0","10130","","null","","","null","31","","","","","","","","","","","","","","","NaN",""
"","S1","","html-keyboard-response","217","1813467","0.0-1.0-290.0","0","0","10130","","null","","","null","32","","","","","","","","","","","","","","","",""
"","ISI","","html-keyboard-response","218","1815471","0.0-1.0-291.0","0","0","10130","","null","","","null","32","NaN","","","","","","","","","","","","","","",""
"","S2","","html-keyboard-response","219","1815724","0.0-1.0-292.0","0","0","10130","","null","","","null","32","","NaN","","","","","","","","","","","","","",""
"","response","","html-keyboard-response","220","1816256","0.0-1.0-293.0","0","0","10130","","529","","","75","32","","","1","32","training","adjacent","CD","3","4","P.jpg","R.jpg","0","1","0","",""
"","feedback","","html-keyboard-response","221","1817261","0.0-1.0-294.0-0.0","0","0","10130","","null","","","null","32","","","","","","","","","","","","","","","",""
"","time_out","","html-keyboard-response","222","1819265","0.0-1.0-296.0-0.0","0","0","10130","","null","","","null","32","","","","","","","","","","","","","","","",""
"","ITI","","html-keyboard-response","223","1820275","0.0-1.0-297.0","0","0","10130","","null","","","null","32","","","","","","","","","","","","","","","NaN",""
"","S1","","html-keyboard-response","224","1820530","0.0-1.0-299.0","0","0","10130","","null","","","null","33","","","","","","","","","","","","","","","",""
"","ISI","","html-keyboard-response","225","1822533","0.0-1.0-300.0","0","0","10130","","798","","","68","33","d","","","","","","","","","","","","","","",""
"","S2","","html-keyboard-response","226","1822786","0.0-1.0-301.0","0","0","10130","","null","","","null","33","","NaN","","","","","","","","","","","","","",""
"","response","","html-keyboard-response","227","1824387","0.0-1.0-302.0","0","0","10130","","1597","","","75","33","","","1","33","training","adjacent","CD","3","4","P.jpg","R.jpg","0","1","0","",""
"","feedback","","html-keyboard-response","228","1825391","0.0-1.0-303.0-0.0","0","0","10130","","null","","","null","33","","","","","","","","","","","","","","","",""
"","time_out","","html-keyboard-response","229","1827394","0.0-1.0-305.0-0.0","0","0","10130","","null","","","null","33","","","","","","","","","","","","","","","",""
"","ITI","","html-keyboard-response","230","1828398","0.0-1.0-306.0","0","0","10130","","null","","","null","33","","","","","","","","","","","","","","","NaN",""
"","S1","","html-keyboard-response","231","1828653","0.0-1.0-308.0","0","0","10130","","null","","","null","34","","","","","","","","","","","","","","","",""
"","ISI","","html-keyboard-response","232","1830657","0.0-1.0-309.0","0","0","10130","","null","","","null","34","NaN","","","","","","","","","","","","","","",""
"","S2","","html-keyboard-response","233","1830912","0.0-1.0-310.0","0","0","10130","","null","","","null","34","","NaN","","","","","","","","","","","","","",""
"","response","","html-keyboard-response","234","1832916","0.0-1.0-311.0","0","0","10130","","null","","","null","34","","","1","34","training","adjacent","FG","6","7","L.jpg","N.jpg","NaN","1","0","",""
"","too_slow_prompt","","html-keyboard-response","235","1833920","0.0-1.0-313.0-0.0","1","0","10130","","null","","","null","","","","","","","","","","","","","","","","",""
"","time_out","","html-keyboard-response","236","1835924","0.0-1.0-314.0-0.0","0","0","10130","","null","","","null","34","","","","","","","","","","","","","","","",""
"","ITI","","html-keyboard-response","237","1836929","0.0-1.0-315.0","0","0","10130","","null","","","null","34","","","","","","","","","","","","","","","NaN",""
"","S1","","html-keyboard-response","238","1837184","0.0-1.0-317.0","0","0","10130","","null","","","null","35","","","","","","","","","","","","","","","",""
"","ISI","","html-keyboard-response","239","1839188","0.0-1.0-318.0","0","0","10130","","null","","","null","35","NaN","","","","","","","","","","","","","","",""
"","S2","","html-keyboard-response","240","1839442","0.0-1.0-319.0","0","0","10130","","null","","","null","35","","NaN","","","","","","","","","","","","","",""
"","response","","html-keyboard-response","241","1840554","0.0-1.0-320.0","0","0","10130","","1108","","","68","35","","","1","35","training","adjacent","GF","7","6","N.jpg","L.jpg","1","0","0","",""
"","feedback","","html-keyboard-response","242","1841557","0.0-1.0-321.0-0.0","0","0","10130","","null","","","null","35","","","","","","","","","","","","","","","",""
"","time_out","","html-keyboard-response","243","1843562","0.0-1.0-323.0-0.0","0","0","10130","","null","","","null","35","","","","","","","","","","","","","","","",""
"","ITI","","html-keyboard-response","244","1844567","0.0-1.0-324.0","0","0","10130","","null","","","null","35","","","","","","","","","","","","","","","NaN",""
"","S1","","html-keyboard-response","245","1844826","0.0-1.0-326.0","0","0","10130","","null","","","null","36","","","","","","","","","","","","","","","",""
"","ISI","","html-keyboard-response","246","1846830","0.0-1.0-327.0","0","0","10130","","null","","","null","36","NaN","","","","","","","","","","","","","","",""
"","S2","","html-keyboard-response","247","1847085","0.0-1.0-328.0","0","0","10130","","null","","","null","36","","NaN","","","","","","","","","","","","","",""
"","response","","html-keyboard-response","248","1848275","0.0-1.0-329.0","0","0","10130","","1187","","","68","36","","","1","36","training","adjacent","ED","5","4","Q.jpg","R.jpg","1","0","0","",""
"","feedback","","html-keyboard-response","249","1849280","0.0-1.0-330.0-0.0","0","0","10130","","null","","","null","36","","","","","","","","","","","","","","","",""
"","time_out","","html-keyboard-response","250","1851284","0.0-1.0-332.0-0.0","0","0","10130","","null","","","null","36","","","","","","","","","","","","","","","",""
"","ITI","","html-keyboard-response","251","1852288","0.0-1.0-333.0","0","0","10130","","null","","","null","36","","","","","","","","","","","","","","","NaN",""
"","S1","","html-keyboard-response","252","1852544","0.0-1.0-335.0","0","0","10130","","null","","","null","37","","","","","","","","","","","","","","","",""
"","ISI","","html-keyboard-response","253","1854549","0.0-1.0-336.0","0","0","10130","","null","","","null","37","NaN","","","","","","","","","","","","","","",""
"","S2","","html-keyboard-response","254","1854804","0.0-1.0-337.0","0","0","10130","","null","","","null","37","","NaN","","","","","","","","","","","","","",""
"","response","","html-keyboard-response","255","1855670","0.0-1.0-338.0","0","0","10130","","863","","","75","37","","","1","37","training","adjacent","FE","6","5","L.jpg","Q.jpg","0","0","1","",""
"","feedback","","html-keyboard-response","256","1856674","0.0-1.0-339.0-0.0","0","0","10130","","null","","","null","37","","","","","","","","","","","","","","","",""
"","ITI","","html-keyboard-response","257","1857678","0.0-1.0-342.0","0","0","10130","","null","","","null","37","","","","","","","","","","","","","","","NaN",""
"","S1","","html-keyboard-response","258","1857932","0.0-1.0-344.0","0","0","10130","","null","","","null","38","","","","","","","","","","","","","","","",""
"","ISI","","html-keyboard-response","259","1859936","0.0-1.0-345.0","0","0","10130","","null","","","null","38","NaN","","","","","","","","","","","","","","",""
"","S2","","html-keyboard-response","260","1860189","0.0-1.0-346.0","0","0","10130","","null","","","null","38","","NaN","","","","","","","","","","","","","",""
"","response","","html-keyboard-response","261","1860838","0.0-1.0-347.0","0","0","10130","","646","","","68","38","","","1","38","training","adjacent","BA","2","1","M.jpg","O.jpg","1","0","0","",""
"","feedback","","html-keyboard-response","262","1861842","0.0-1.0-348.0-0.0","0","0","10130","","null","","","null","38","","","","","","","","","","","","","","","",""
"","time_out","","html-keyboard-response","263","1863847","0.0-1.0-350.0-0.0","0","0","10130","","null","","","null","38","","","","","","","","","","","","","","","",""
"","ITI","","html-keyboard-response","264","1864852","0.0-1.0-351.0","0","0","10130","","null","","","null","38","","","","","","","","","","","","","","","NaN",""
"","S1","","html-keyboard-response","265","1865107","0.0-1.0-353.0","0","0","10130","","null","","","null","39","","","","","","","","","","","","","","","",""
"","ISI","","html-keyboard-response","266","1867112","0.0-1.0-354.0","0","0","10130","","null","","","null","39","NaN","","","","","","","","","","","","","","",""
"","S2","","html-keyboard-response","267","1867367","0.0-1.0-355.0","0","0","10130","","null","","","null","39","","NaN","","","","","","","","","","","","","",""
"","response","","html-keyboard-response","268","1867923","0.0-1.0-356.0","0","0","10130","","552","","","68","39","","","1","39","training","adjacent","FG","6","7","L.jpg","N.jpg","1","1","1","",""
"","feedback","","html-keyboard-response","269","1868926","0.0-1.0-357.0-0.0","0","0","10130","","null","","","null","39","","","","","","","","","","","","","","","",""
"","ITI","","html-keyboard-response","270","1869930","0.0-1.0-360.0","0","0","10130","","null","","","null","39","","","","","","","","","","","","","","","NaN",""
"","block_over","","html-keyboard-response","271","1874571","0.0-1.0-361.0-0.0","0","0","10130","","4638","","","32","39","","","","","","","","","","","","","","","",""
"","S1","","html-keyboard-response","272","1874825","0.0-1.0-362.0","0","0","10130","","null","","","null","40","","","","","","","","","","","","","","","",""
"","ISI","","html-keyboard-response","273","1876828","0.0-1.0-363.0","0","0","10130","","null","","","null","40","NaN","","","","","","","","","","","","","","",""
"","S2","","html-keyboard-response","274","1877082","0.0-1.0-364.0","0","0","10130","","null","","","null","40","","NaN","","","","","","","","","","","","","",""
"","response","","html-keyboard-response","275","1879086","0.0-1.0-365.0","0","0","10130","","null","","","null","40","","","2","40","training","adjacent","FG","6","7","L.jpg","N.jpg","NaN","1","0","",""
"","too_slow_prompt","","html-keyboard-response","276","1880093","0.0-1.0-367.0-0.0","1","0","10130","","null","","","null","","","","","","","","","","","","","","","","",""
"","time_out","","html-keyboard-response","277","1882097","0.0-1.0-368.0-0.0","0","0","10130","","null","","","null","40","","","","","","","","","","","","","","","",""
"","ITI","","html-keyboard-response","278","1883101","0.0-1.0-369.0","0","0","10130","","null","","","null","40","","","","","","","","","","","","","","","NaN",""
"","S1","","html-keyboard-response","279","1883355","0.0-1.0-371.0","0","0","10130","","null","","","null","41","","","","","","","","","","","","","","","",""
"","ISI","","html-keyboard-response","280","1885360","0.0-1.0-372.0","0","0","10130","","null","","","null","41","NaN","","","","","","","","","","","","","","",""
"","S2","","html-keyboard-response","281","1885614","0.0-1.0-373.0","0","0","10130","","null","","","null","41","","NaN","","","","","","","","","","","","","",""
"","response","","html-keyboard-response","282","1886063","0.0-1.0-374.0","0","0","10130","","446","","","75","41","","","2","41","training","adjacent","FE","6","5","L.jpg","Q.jpg","0","0","1","",""
"","feedback","","html-keyboard-response","283","1887068","0.0-1.0-375.0-0.0","0","0","10130","","null","","","null","41","","","","","","","","","","","","","","","",""
"","ITI","","html-keyboard-response","284","1888072","0.0-1.0-378.0","0","0","10130","","null","","","null","41","","","","","","","","","","","","","","","NaN",""
"","S1","","html-keyboard-response","285","1888326","0.0-1.0-380.0","0","0","10130","","null","","","null","42","","","","","","","","","","","","","","","",""
"","ISI","","html-keyboard-response","286","1890331","0.0-1.0-381.0","0","0","10130","","null","","","null","42","NaN","","","","","","","","","","","","","","",""
"","S2","","html-keyboard-response","287","1890585","0.0-1.0-382.0","0","0","10130","","null","","","null","42","","NaN","","","","","","","","","","","","","",""
"","response","","html-keyboard-response","288","1891251","0.0-1.0-383.0","0","0","10130","","663","","","75","42","","","2","42","training","adjacent","GF","7","6","N.jpg","L.jpg","0","0","1","",""
"","feedback","","html-keyboard-response","289","1892256","0.0-1.0-384.0-0.0","0","0","10130","","null","","","null","42","","","","","","","","","","","","","","","",""
"","ITI","","html-keyboard-response","290","1893262","0.0-1.0-387.0","0","0","10130","","null","","","null","42","","","","","","","","","","","","","","","NaN",""
"","S1","","html-keyboard-response","291","1893516","0.0-1.0-389.0","0","0","10130","","null","","","null","43","","","","","","","","","","","","","","","",""
"","ISI","","html-keyboard-response","292","1895520","0.0-1.0-390.0","0","0","10130","","null","","","null","43","NaN","","","","","","","","","","","","","","",""
"","S2","","html-keyboard-response","293","1895773","0.0-1.0-391.0","0","0","10130","","null","","","null","43","","NaN","","","","","","","","","","","","","",""
"","response","","html-keyboard-response","294","1896137","0.0-1.0-392.0","0","0","10130","","361","","","68","43","","","2","43","training","adjacent","AB","1","2","O.jpg","M.jpg","1","1","1","",""
"","feedback","","html-keyboard-response","295","1897141","0.0-1.0-393.0-0.0","0","0","10130","","null","","","null","43","","","","","","","","","","","","","","","",""
"","ITI","","html-keyboard-response","296","1898145","0.0-1.0-396.0","0","0","10130","","null","","","null","43","","","","","","","","","","","","","","","NaN",""
"","S1","","html-keyboard-response","297","1898398","0.0-1.0-398.0","0","0","10130","","null","","","null","44","","","","","","","","","","","","","","","",""
"","ISI","","html-keyboard-response","298","1900401","0.0-1.0-399.0","0","0","10130","","null","","","null","44","NaN","","","","","","","","","","","","","","",""
"","S2","","html-keyboard-response","299","1900657","0.0-1.0-400.0","0","0","10130","","null","","","null","44","","NaN","","","","","","","","","","","","","",""
"","response","","html-keyboard-response","300","1901076","0.0-1.0-401.0","0","0","10130","","415","","","75","44","","","2","44","training","adjacent","FE","6","5","L.jpg","Q.jpg","0","0","1","",""
"","feedback","","html-keyboard-response","301","1902081","0.0-1.0-402.0-0.0","0","0","10130","","null","","","null","44","","","","","","","","","","","","","","","",""
"","ITI","","html-keyboard-response","302","1903086","0.0-1.0-405.0","0","0","10130","","null","","","null","44","","","","","","","","","","","","","","","NaN",""
"","S1","","html-keyboard-response","303","1903341","0.0-1.0-407.0","0","0","10130","","null","","","null","45","","","","","","","","","","","","","","","",""
"","ISI","","html-keyboard-response","304","1905345","0.0-1.0-408.0","0","0","10130","","null","","","null","45","NaN","","","","","","","","","","","","","","",""
"","S2","","html-keyboard-response","305","1905599","0.0-1.0-409.0","0","0","10130","","null","","","null","45","","NaN","","","","","","","","","","","","","",""
"","response","","html-keyboard-response","306","1906297","0.0-1.0-410.0","0","0","10130","","695","","","68","45","","","2","45","training","adjacent","EF","5","6","Q.jpg","L.jpg","1","1","1","",""
"","feedback","","html-keyboard-response","307","1907301","0.0-1.0-411.0-0.0","0","0","10130","","null","","","null","45","","","","","","","","","","","","","","","",""
"","ITI","","html-keyboard-response","308","1908305","0.0-1.0-414.0","0","0","10130","","null","","","null","45","","","","","","","","","","","","","","","NaN",""
"","S1","","html-keyboard-response","309","1908574","0.0-1.0-416.0","0","0","10130","","null","","","null","46","","","","","","","","","","","","","","","",""
"","ISI","","html-keyboard-response","310","1910579","0.0-1.0-417.0","0","0","10130","","null","","","null","46","NaN","","","","","","","","","","","","","","",""
"","S2","","html-keyboard-response","311","1910833","0.0-1.0-418.0","0","0","10130","","null","","","null","46","","NaN","","","","","","","","","","","","","",""
"","response","","html-keyboard-response","312","1911431","0.0-1.0-419.0","0","0","10130","","595","","","75","46","","","2","46","training","adjacent","DE","4","5","R.jpg","Q.jpg","0","1","0","",""
"","feedback","","html-keyboard-response","313","1912435","0.0-1.0-420.0-0.0","0","0","10130","","null","","","null","46","","","","","","","","","","","","","","","",""
"","time_out","","html-keyboard-response","314","1914441","0.0-1.0-422.0-0.0","0","0","10130","","null","","","null","46","","","","","","","","","","","","","","","",""
"","ITI","","html-keyboard-response","315","1915444","0.0-1.0-423.0","0","0","10130","","null","","","null","46","","","","","","","","","","","","","","","NaN",""
"","S1","","html-keyboard-response","316","1915699","0.0-1.0-425.0","0","0","10130","","null","","","null","47","","","","","","","","","","","","","","","",""
"","ISI","","html-keyboard-response","317","1917704","0.0-1.0-426.0","0","0","10130","","null","","","null","47","NaN","","","","","","","","","","","","","","",""
"","S2","","html-keyboard-response","318","1917958","0.0-1.0-427.0","0","0","10130","","null","","","null","47","","NaN","","","","","","","","","","","","","",""
"","response","","html-keyboard-response","319","1919007","0.0-1.0-428.0","0","0","10130","","1047","","","75","47","","","2","47","training","adjacent","CD","3","4","P.jpg","R.jpg","0","1","0","",""
"","feedback","","html-keyboard-response","320","1920011","0.0-1.0-429.0-0.0","0","0","10130","","null","","","null","47","","","","","","","","","","","","","","","",""
"","time_out","","html-keyboard-response","321","1922014","0.0-1.0-431.0-0.0","0","0","10130","","null","","","null","47","","","","","","","","","","","","","","","",""
"","ITI","","html-keyboard-response","322","1923019","0.0-1.0-432.0","0","0","10130","","null","","","null","47","","","","","","","","","","","","","","","NaN",""
"","S1","","html-keyboard-response","323","1923274","0.0-1.0-434.0","0","0","10130","","null","","","null","48","","","","","","","","","","","","","","","",""
"","ISI","","html-keyboard-response","324","1925278","0.0-1.0-435.0","0","0","10130","","null","","","null","48","NaN","","","","","","","","","","","","","","",""
"","S2","","html-keyboard-response","325","1925534","0.0-1.0-436.0","0","0","10130","","null","","","null","48","","NaN","","","","","","","","","","","","","",""
"","response","","html-keyboard-response","326","1925932","0.0-1.0-437.0","0","0","10130","","395","","","68","48","","","2","48","training","adjacent","BC","2","3","M.jpg","P.jpg","1","1","1","",""
"","feedback","","html-keyboard-response","327","1926937","0.0-1.0-438.0-0.0","0","0","10130","","null","","","null","48","","","","","","","","","","","","","","","",""
"","ITI","","html-keyboard-response","328","1927941","0.0-1.0-441.0","0","0","10130","","null","","","null","48","","","","","","","","","","","","","","","NaN",""
"","S1","","html-keyboard-response","329","1928194","0.0-1.0-443.0","0","0","10130","","null","","","null","49","","","","","","","","","","","","","","","",""
"","ISI","","html-keyboard-response","330","1930198","0.0-1.0-444.0","0","0","10130","","null","","","null","49","NaN","","","","","","","","","","","","","","",""
"","S2","","html-keyboard-response","331","1930453","0.0-1.0-445.0","0","0","10130","","null","","","null","49","","NaN","","","","","","","","","","","","","",""
"","response","","html-keyboard-response","332","1931112","0.0-1.0-446.0","0","0","10130","","656","","","68","49","","","2","49","training","adjacent","CB","3","2","P.jpg","M.jpg","1","0","0","",""
"","feedback","","html-keyboard-response","333","1932115","0.0-1.0-447.0-0.0","0","0","10130","","null","","","null","49","","","","","","","","","","","","","","","",""
"","time_out","","html-keyboard-response","334","1934120","0.0-1.0-449.0-0.0","0","0","10130","","null","","","null","49","","","","","","","","","","","","","","","",""
"","ITI","","html-keyboard-response","335","1935124","0.0-1.0-450.0","0","0","10130","","null","","","null","49","","","","","","","","","","","","","","","NaN",""
"","S1","","html-keyboard-response","336","1935380","0.0-1.0-452.0","0","0","10130","","null","","","null","50","","","","","","","","","","","","","","","",""
"","ISI","","html-keyboard-response","337","1937384","0.0-1.0-453.0","0","0","10130","","null","","","null","50","NaN","","","","","","","","","","","","","","",""
"","S2","","html-keyboard-response","338","1937638","0.0-1.0-454.0","0","0","10130","","null","","","null","50","","NaN","","","","","","","","","","","","","",""
"","response","","html-keyboard-response","339","1938283","0.0-1.0-455.0","0","0","10130","","642","","","75","50","","","2","50","training","adjacent","DC","4","3","R.jpg","P.jpg","0","0","1","",""
"","feedback","","html-keyboard-response","340","1939287","0.0-1.0-456.0-0.0","0","0","10130","","null","","","null","50","","","","","","","","","","","","","","","",""
"","ITI","","html-keyboard-response","341","1940291","0.0-1.0-459.0","0","0","10130","","null","","","null","50","","","","","","","","","","","","","","","NaN",""
"","S1","","html-keyboard-response","342","1940548","0.0-1.0-461.0","0","0","10130","","null","","","null","51","","","","","","","","","","","","","","","",""
"","ISI","","html-keyboard-response","343","1942551","0.0-1.0-462.0","0","0","10130","","null","","","null","51","NaN","","","","","","","","","","","","","","",""
"","S2","","html-keyboard-response","344","1942805","0.0-1.0-463.0","0","0","10130","","null","","","null","51","","NaN","","","","","","","","","","","","","",""
"","response","","html-keyboard-response","345","1943341","0.0-1.0-464.0","0","0","10130","","532","","","68","51","","","2","51","training","adjacent","GF","7","6","N.jpg","L.jpg","1","0","0","",""
"","feedback","","html-keyboard-response","346","1944347","0.0-1.0-465.0-0.0","0","0","10130","","null","","","null","51","","","","","","","","","","","","","","","",""
"","time_out","","html-keyboard-response","347","1946350","0.0-1.0-467.0-0.0","0","0","10130","","null","","","null","51","","","","","","","","","","","","","","","",""
"","ITI","","html-keyboard-response","348","1947353","0.0-1.0-468.0","0","0","10130","","null","","","null","51","","","","","","","","","","","","","","","NaN",""
"","S1","","html-keyboard-response","349","1947606","0.0-1.0-470.0","0","0","10130","","null","","","null","52","","","","","","","","","","","","","","","",""
"","ISI","","html-keyboard-response","350","1949609","0.0-1.0-471.0","0","0","10130","","null","","","null","52","NaN","","","","","","","","","","","","","","",""
"","S2","","html-keyboard-response","351","1949865","0.0-1.0-472.0","0","0","10130","","null","","","null","52","","NaN","","","","","","","","","","","","","",""
"","response","","html-keyboard-response","352","1950323","0.0-1.0-473.0","0","0","10130","","454","","","75","52","","","2","52","training","adjacent","EF","5","6","Q.jpg","L.jpg","0","1","0","",""
"","feedback","","html-keyboard-response","353","1951328","0.0-1.0-474.0-0.0","0","0","10130","","null","","","null","52","","","","","","","","","","","","","","","",""
"","time_out","","html-keyboard-response","354","1953332","0.0-1.0-476.0-0.0","0","0","10130","","null","","","null","52","","","","","","","","","","","","","","","",""
"","ITI","","html-keyboard-response","355","1954336","0.0-1.0-477.0","0","0","10130","","null","","","null","52","","","","","","","","","","","","","","","NaN",""
"","S1","","html-keyboard-response","356","1954591","0.0-1.0-479.0","0","0","10130","","null","","","null","53","","","","","","","","","","","","","","","",""
"","ISI","","html-keyboard-response","357","1956596","0.0-1.0-480.0","0","0","10130","","null","","","null","53","NaN","","","","","","","","","","","","","","",""
"","S2","","html-keyboard-response","358","1956850","0.0-1.0-481.0","0","0","10130","","null","","","null","53","","NaN","","","","","","","","","","","","","",""
"","response","","html-keyboard-response","359","1957020","0.0-1.0-482.0","0","0","10130","","167","","","68","53","","","2","53","training","adjacent","EF","5","6","Q.jpg","L.jpg","1","1","1","",""
"","feedback","","html-keyboard-response","360","1958024","0.0-1.0-483.0-0.0","0","0","10130","","null","","","null","53","","","","","","","","","","","","","","","",""
"","ITI","","html-keyboard-response","361","1959027","0.0-1.0-486.0","0","0","10130","","null","","","null","53","","","","","","","","","","","","","","","NaN",""
"","S1","","html-keyboard-response","362","1959281","0.0-1.0-488.0","0","0","10130","","null","","","null","54","","","","","","","","","","","","","","","",""
"","ISI","","html-keyboard-response","363","1961284","0.0-1.0-489.0","0","0","10130","","null","","","null","54","NaN","","","","","","","","","","","","","","",""
"","S2","","html-keyboard-response","364","1961540","0.0-1.0-490.0","0","0","10130","","null","","","null","54","","NaN","","","","","","","","","","","","","",""
"","response","","html-keyboard-response","365","1962025","0.0-1.0-491.0","0","0","10130","","481","","","68","54","","","2","54","training","adjacent","BC","2","3","M.jpg","P.jpg","1","1","1","",""
"","feedback","","html-keyboard-response","366","1963029","0.0-1.0-492.0-0.0","0","0","10130","","null","","","null","54","","","","","","","","","","","","","","","",""
"","ITI","","html-keyboard-response","367","1964032","0.0-1.0-495.0","0","0","10130","","null","","","null","54","","","","","","","","","","","","","","","NaN",""
"","S1","","html-keyboard-response","368","1964287","0.0-1.0-497.0","0","0","10130","","null","","","null","55","","","","","","","","","","","","","","","",""
"","ISI","","html-keyboard-response","369","1966292","0.0-1.0-498.0","0","0","10130","","null","","","null","55","NaN","","","","","","","","","","","","","","",""
"","S2","","html-keyboard-response","370","1966546","0.0-1.0-499.0","0","0","10130","","null","","","null","55","","NaN","","","","","","","","","","","","","",""
"","response","","html-keyboard-response","371","1967527","0.0-1.0-500.0","0","0","10130","","979","","","75","55","","","2","55","training","adjacent","CB","3","2","P.jpg","M.jpg","0","0","1","",""
"","feedback","","html-keyboard-response","372","1968532","0.0-1.0-501.0-0.0","0","0","10130","","null","","","null","55","","","","","","","","","","","","","","","",""
"","ITI","","html-keyboard-response","373","1969536","0.0-1.0-504.0","0","0","10130","","null","","","null","55","","","","","","","","","","","","","","","NaN",""
"","S1","","html-keyboard-response","374","1969791","0.0-1.0-506.0","0","0","10130","","null","","","null","56","","","","","","","","","","","","","","","",""
"","ISI","","html-keyboard-response","375","1971795","0.0-1.0-507.0","0","0","10130","","null","","","null","56","NaN","","","","","","","","","","","","","","",""
"","S2","","html-keyboard-response","376","1972049","0.0-1.0-508.0","0","0","10130","","null","","","null","56","","NaN","","","","","","","","","","","","","",""
"","response","","html-keyboard-response","377","1972609","0.0-1.0-509.0","0","0","10130","","557","","","68","56","","","2","56","training","adjacent","ED","5","4","Q.jpg","R.jpg","1","0","0","",""
"","feedback","","html-keyboard-response","378","1973614","0.0-1.0-510.0-0.0","0","0","10130","","null","","","null","56","","","","","","","","","","","","","","","",""
"","time_out","","html-keyboard-response","379","1975619","0.0-1.0-512.0-0.0","0","0","10130","","null","","","null","56","","","","","","","","","","","","","","","",""
"","ITI","","html-keyboard-response","380","1976623","0.0-1.0-513.0","0","0","10130","","null","","","null","56","","","","","","","","","","","","","","","NaN",""
"","S1","","html-keyboard-response","381","1976877","0.0-1.0-515.0","0","0","10130","","null","","","null","57","","","","","","","","","","","","","","","",""
"","ISI","","html-keyboard-response","382","1978881","0.0-1.0-516.0","0","0","10130","","null","","","null","57","NaN","","","","","","","","","","","","","","",""
"","S2","","html-keyboard-response","383","1979135","0.0-1.0-517.0","0","0","10130","","null","","","null","57","","NaN","","","","","","","","","","","","","",""
"","response","","html-keyboard-response","384","1980003","0.0-1.0-518.0","0","0","10130","","862","","","75","57","","","2","57","training","adjacent","CD","3","4","P.jpg","R.jpg","0","1","0","",""
"","feedback","","html-keyboard-response","385","1981008","0.0-1.0-519.0-0.0","0","0","10130","","null","","","null","57","","","","","","","","","","","","","","","",""
"","time_out","","html-keyboard-response","386","1983012","0.0-1.0-521.0-0.0","0","0","10130","","null","","","null","57","","","","","","","","","","","","","","","",""
"","ITI","","html-keyboard-response","387","1984018","0.0-1.0-522.0","0","0","10130","","null","","","null","57","","","","","","","","","","","","","","","NaN",""
"","S1","","html-keyboard-response","388","1984272","0.0-1.0-524.0","0","0","10130","","null","","","null","58","","","","","","","","","","","","","","","",""
"","ISI","","html-keyboard-response","389","1986275","0.0-1.0-525.0","0","0","10130","","null","","","null","58","NaN","","","","","","","","","","","","","","",""
"","S2","","html-keyboard-response","390","1986530","0.0-1.0-526.0","0","0","10130","","null","","","null","58","","NaN","","","","","","","","","","","","","",""
"","response","","html-keyboard-response","391","1986962","0.0-1.0-527.0","0","0","10130","","428","","","75","58","","","2","58","training","adjacent","DC","4","3","R.jpg","P.jpg","0","0","1","",""
"","feedback","","html-keyboard-response","392","1987968","0.0-1.0-528.0-0.0","0","0","10130","","null","","","null","58","","","","","","","","","","","","","","","",""
"","ITI","","html-keyboard-response","393","1988972","0.0-1.0-531.0","0","0","10130","","null","","","null","58","","","","","","","","","","","","","","","NaN",""
"","S1","","html-keyboard-response","394","1989226","0.0-1.0-533.0","0","0","10130","","null","","","null","59","","","","","","","","","","","","","","","",""
"","ISI","","html-keyboard-response","395","1991230","0.0-1.0-534.0","0","0","10130","","null","","","null","59","NaN","","","","","","","","","","","","","","",""
"","S2","","html-keyboard-response","396","1991484","0.0-1.0-535.0","0","0","10130","","null","","","null","59","","NaN","","","","","","","","","","","","","",""
"","response","","html-keyboard-response","397","1991951","0.0-1.0-536.0","0","0","10130","","464","","","68","59","","","2","59","training","adjacent","GF","7","6","N.jpg","L.jpg","1","0","0","",""
"","feedback","","html-keyboard-response","398","1992956","0.0-1.0-537.0-0.0","0","0","10130","","null","","","null","59","","","","","","","","","","","","","","","",""
"","time_out","","html-keyboard-response","399","1994961","0.0-1.0-539.0-0.0","0","0","10130","","null","","","null","59","","","","","","","","","","","","","","","",""
"","ITI","","html-keyboard-response","400","1995965","0.0-1.0-540.0","0","0","10130","","null","","","null","59","","","","","","","","","","","","","","","NaN",""
"","S1","","html-keyboard-response","401","1996220","0.0-1.0-542.0","0","0","10130","","null","","","null","60","","","","","","","","","","","","","","","",""
"","ISI","","html-keyboard-response","402","1998224","0.0-1.0-543.0","0","0","10130","","null","","","null","60","NaN","","","","","","","","","","","","","","",""
"","S2","","html-keyboard-response","403","1998479","0.0-1.0-544.0","0","0","10130","","null","","","null","60","","NaN","","","","","","","","","","","","","",""
"","response","","html-keyboard-response","404","1999005","0.0-1.0-545.0","0","0","10130","","523","","","75","60","","","2","60","training","adjacent","DE","4","5","R.jpg","Q.jpg","0","1","0","",""
"","feedback","","html-keyboard-response","405","2000011","0.0-1.0-546.0-0.0","0","0","10130","","null","","","null","60","","","","","","","","","","","","","","","",""
"","time_out","","html-keyboard-response","406","2002015","0.0-1.0-548.0-0.0","0","0","10130","","null","","","null","60","","","","","","","","","","","","","","","",""
"","ITI","","html-keyboard-response","407","2003019","0.0-1.0-549.0","0","0","10130","","null","","","null","60","","","","","","","","","","","","","","","NaN",""
"","S1","","html-keyboard-response","408","2003274","0.0-1.0-551.0","0","0","10130","","null","","","null","61","","","","","","","","","","","","","","","",""
"","ISI","","html-keyboard-response","409","2005277","0.0-1.0-552.0","0","0","10130","","null","","","null","61","NaN","","","","","","","","","","","","","","",""
"","S2","","html-keyboard-response","410","2005532","0.0-1.0-553.0","0","0","10130","","null","","","null","61","","NaN","","","","","","","","","","","","","",""
"","response","","html-keyboard-response","411","2006083","0.0-1.0-554.0","0","0","10130","","548","","","68","61","","","2","61","training","adjacent","FE","6","5","L.jpg","Q.jpg","1","0","0","",""
"","feedback","","html-keyboard-response","412","2007085","0.0-1.0-555.0-0.0","0","0","10130","","null","","","null","61","","","","","","","","","","","","","","","",""
"","time_out","","html-keyboard-response","413","2009090","0.0-1.0-557.0-0.0","0","0","10130","","null","","","null","61","","","","","","","","","","","","","","","",""
"","ITI","","html-keyboard-response","414","2010094","0.0-1.0-558.0","0","0","10130","","null","","","null","61","","","","","","","","","","","","","","","NaN",""
"","S1","","html-keyboard-response","415","2010349","0.0-1.0-560.0","0","0","10130","","null","","","null","62","","","","","","","","","","","","","","","",""
"","ISI","","html-keyboard-response","416","2012353","0.0-1.0-561.0","0","0","10130","","972","","","68","62","d","","","","","","","","","","","","","","",""
"","S2","","html-keyboard-response","417","2012608","0.0-1.0-562.0","0","0","10130","","null","","","null","62","","NaN","","","","","","","","","","","","","",""
"","response","","html-keyboard-response","418","2014050","0.0-1.0-563.0","0","0","10130","","1439","","","75","62","","","2","62","training","adjacent","ED","5","4","Q.jpg","R.jpg","0","0","1","",""
"","feedback","","html-keyboard-response","419","2015056","0.0-1.0-564.0-0.0","0","0","10130","","null","","","null","62","","","","","","","","","","","","","","","",""
"","ITI","","html-keyboard-response","420","2016061","0.0-1.0-567.0","0","0","10130","","null","","","null","62","","","","","","","","","","","","","","","NaN",""
"","S1","","html-keyboard-response","421","2016316","0.0-1.0-569.0","0","0","10130","","null","","","null","63","","","","","","","","","","","","","","","",""
"","ISI","","html-keyboard-response","422","2018320","0.0-1.0-570.0","0","0","10130","","null","","","null","63","NaN","","","","","","","","","","","","","","",""
"","S2","","html-keyboard-response","423","2018575","0.0-1.0-571.0","0","0","10130","","null","","","null","63","","NaN","","","","","","","","","","","","","",""
"","response","","html-keyboard-response","424","2019470","0.0-1.0-572.0","0","0","10130","","892","","","75","63","","","2","63","training","adjacent","FG","6","7","L.jpg","N.jpg","0","1","0","",""
"","feedback","","html-keyboard-response","425","2020474","0.0-1.0-573.0-0.0","0","0","10130","","null","","","null","63","","","","","","","","","","","","","","","",""
"","time_out","","html-keyboard-response","426","2022479","0.0-1.0-575.0-0.0","0","0","10130","","null","","","null","63","","","","","","","","","","","","","","","",""
"","ITI","","html-keyboard-response","427","2023482","0.0-1.0-576.0","0","0","10130","","null","","","null","63","","","","","","","","","","","","","","","NaN",""
"","S1","","html-keyboard-response","428","2023738","0.0-1.0-578.0","0","0","10130","","null","","","null","64","","","","","","","","","","","","","","","",""
"","ISI","","html-keyboard-response","429","2025741","0.0-1.0-579.0","0","0","10130","","715","","","68","64","d","","","","","","","","","","","","","","",""
"","S2","","html-keyboard-response","430","2025996","0.0-1.0-580.0","0","0","10130","","null","","","null","64","","NaN","","","","","","","","","","","","","",""
"","response","","html-keyboard-response","431","2026684","0.0-1.0-581.0","0","0","10130","","684","","","68","64","","","2","64","training","adjacent","ED","5","4","Q.jpg","R.jpg","1","0","0","",""
"","feedback","","html-keyboard-response","432","2027691","0.0-1.0-582.0-0.0","0","0","10130","","null","","","null","64","","","","","","","","","","","","","","","",""
"","time_out","","html-keyboard-response","433","2029695","0.0-1.0-584.0-0.0","0","0","10130","","null","","","null","64","","","","","","","","","","","","","","","",""
"","ITI","","html-keyboard-response","434","2030701","0.0-1.0-585.0","0","0","10130","","null","","","null","64","","","","","","","","","","","","","","","NaN",""
"","S1","","html-keyboard-response","435","2030955","0.0-1.0-587.0","0","0","10130","","null","","","null","65","","","","","","","","","","","","","","","",""
"","ISI","","html-keyboard-response","436","2032958","0.0-1.0-588.0","0","0","10130","","null","","","null","65","NaN","","","","","","","","","","","","","","",""
"","S2","","html-keyboard-response","437","2033212","0.0-1.0-589.0","0","0","10130","","null","","","null","65","","NaN","","","","","","","","","","","","","",""
"","response","","html-keyboard-response","438","2033692","0.0-1.0-590.0","0","0","10130","","477","","","75","65","","","2","65","training","adjacent","DE","4","5","R.jpg","Q.jpg","0","1","0","",""
"","feedback","","html-keyboard-response","439","2034698","0.0-1.0-591.0-0.0","0","0","10130","","null","","","null","65","","","","","","","","","","","","","","","",""
"","time_out","","html-keyboard-response","440","2036702","0.0-1.0-593.0-0.0","0","0","10130","","null","","","null","65","","","","","","","","","","","","","","","",""
"","ITI","","html-keyboard-response","441","2037707","0.0-1.0-594.0","0","0","10130","","null","","","null","65","","","","","","","","","","","","","","","NaN",""
"","S1","","html-keyboard-response","442","2037969","0.0-1.0-596.0","0","0","10130","","null","","","null","66","","","","","","","","","","","","","","","",""
"","ISI","","html-keyboard-response","443","2039974","0.0-1.0-597.0","0","0","10130","","1679","","","75","66","k","","","","","","","","","","","","","","",""
"","S2","","html-keyboard-response","444","2040228","0.0-1.0-598.0","0","0","10130","","null","","","null","66","","NaN","","","","","","","","","","","","","",""
"","response","","html-keyboard-response","445","2041015","0.0-1.0-599.0","0","0","10130","","784","","","68","66","","","2","66","training","adjacent","BA","2","1","M.jpg","O.jpg","1","0","0","",""
"","feedback","","html-keyboard-response","446","2042021","0.0-1.0-600.0-0.0","0","0","10130","","null","","","null","66","","","","","","","","","","","","","","","",""
"","time_out","","html-keyboard-response","447","2044025","0.0-1.0-602.0-0.0","0","0","10130","","null","","","null","66","","","","","","","","","","","","","","","",""
"","ITI","","html-keyboard-response","448","2045030","0.0-1.0-603.0","0","0","10130","","null","","","null","66","","","","","","","","","","","","","","","NaN",""
"","S1","","html-keyboard-response","449","2045286","0.0-1.0-605.0","0","0","10130","","null","","","null","67","","","","","","","","","","","","","","","",""
"","ISI","","html-keyboard-response","450","2047290","0.0-1.0-606.0","0","0","10130","","null","","","null","67","NaN","","","","","","","","","","","","","","",""
"","S2","","html-keyboard-response","451","2047545","0.0-1.0-607.0","0","0","10130","","null","","","null","67","","NaN","","","","","","","","","","","","","",""
"","response","","html-keyboard-response","452","2048250","0.0-1.0-608.0","0","0","10130","","703","","","68","67","","","2","67","training","adjacent","ED","5","4","Q.jpg","R.jpg","1","0","0","",""
"","feedback","","html-keyboard-response","453","2049254","0.0-1.0-609.0-0.0","0","0","10130","","null","","","null","67","","","","","","","","","","","","","","","",""
"","time_out","","html-keyboard-response","454","2051258","0.0-1.0-611.0-0.0","0","0","10130","","null","","","null","67","","","","","","","","","","","","","","","",""
"","ITI","","html-keyboard-response","455","2052262","0.0-1.0-612.0","0","0","10130","","null","","","null","67","","","","","","","","","","","","","","","NaN",""
"","S1","","html-keyboard-response","456","2052517","0.0-1.0-614.0","0","0","10130","","null","","","null","68","","","","","","","","","","","","","","","",""
"","ISI","","html-keyboard-response","457","2054521","0.0-1.0-615.0","0","0","10130","","null","","","null","68","NaN","","","","","","","","","","","","","","",""
"","S2","","html-keyboard-response","458","2054777","0.0-1.0-616.0","0","0","10130","","null","","","null","68","","NaN","","","","","","","","","","","","","",""
"","response","","html-keyboard-response","459","2055404","0.0-1.0-617.0","0","0","10130","","624","","","75","68","","","2","68","training","adjacent","BC","2","3","M.jpg","P.jpg","0","1","0","",""
"","feedback","","html-keyboard-response","460","2056410","0.0-1.0-618.0-0.0","0","0","10130","","null","","","null","68","","","","","","","","","","","","","","","",""
"","time_out","","html-keyboard-response","461","2058413","0.0-1.0-620.0-0.0","0","0","10130","","null","","","null","68","","","","","","","","","","","","","","","",""
"","ITI","","html-keyboard-response","462","2059417","0.0-1.0-621.0","0","0","10130","","null","","","null","68","","","","","","","","","","","","","","","NaN",""
"","S1","","html-keyboard-response","463","2059671","0.0-1.0-623.0","0","0","10130","","null","","","null","69","","","","","","","","","","","","","","","",""
"","ISI","","html-keyboard-response","464","2061674","0.0-1.0-624.0","0","0","10130","","null","","","null","69","NaN","","","","","","","","","","","","","","",""
"","S2","","html-keyboard-response","465","2061927","0.0-1.0-625.0","0","0","10130","","null","","","null","69","","NaN","","","","","","","","","","","","","",""
"","response","","html-keyboard-response","466","2063123","0.0-1.0-626.0","0","0","10130","","1193","","","75","69","","","2","69","training","adjacent","DC","4","3","R.jpg","P.jpg","0","0","1","",""
"","feedback","","html-keyboard-response","467","2064128","0.0-1.0-627.0-0.0","0","0","10130","","null","","","null","69","","","","","","","","","","","","","","","",""
"","ITI","","html-keyboard-response","468","2065133","0.0-1.0-630.0","0","0","10130","","null","","","null","69","","","","","","","","","","","","","","","NaN",""
"","S1","","html-keyboard-response","469","2065386","0.0-1.0-632.0","0","0","10130","","null","","","null","70","","","","","","","","","","","","","","","",""
"","ISI","","html-keyboard-response","470","2067391","0.0-1.0-633.0","0","0","10130","","null","","","null","70","NaN","","","","","","","","","","","","","","",""
"","S2","","html-keyboard-response","471","2067644","0.0-1.0-634.0","0","0","10130","","null","","","null","70","","NaN","","","","","","","","","","","","","",""
"","response","","html-keyboard-response","472","2068053","0.0-1.0-635.0","0","0","10130","","405","","","68","70","","","2","70","training","adjacent","CD","3","4","P.jpg","R.jpg","1","1","1","",""
"","feedback","","html-keyboard-response","473","2069057","0.0-1.0-636.0-0.0","0","0","10130","","null","","","null","70","","","","","","","","","","","","","","","",""
"","ITI","","html-keyboard-response","474","2070063","0.0-1.0-639.0","0","0","10130","","null","","","null","70","","","","","","","","","","","","","","","NaN",""
"","S1","","html-keyboard-response","475","2070317","0.0-1.0-641.0","0","0","10130","","null","","","null","71","","","","","","","","","","","","","","","",""
"","ISI","","html-keyboard-response","476","2072321","0.0-1.0-642.0","0","0","10130","","null","","","null","71","NaN","","","","","","","","","","","","","","",""
"","S2","","html-keyboard-response","477","2072575","0.0-1.0-643.0","0","0","10130","","null","","","null","71","","NaN","","","","","","","","","","","","","",""
"","response","","html-keyboard-response","478","2074579","0.0-1.0-644.0","0","0","10130","","null","","","null","71","","","2","71","training","adjacent","CB","3","2","P.jpg","M.jpg","NaN","0","0","",""
"","too_slow_prompt","","html-keyboard-response","479","2075597","0.0-1.0-646.0-0.0","1","0","10130","","null","","","null","","","","","","","","","","","","","","","","",""
"","time_out","","html-keyboard-response","480","2077602","0.0-1.0-647.0-0.0","0","0","10130","","null","","","null","71","","","","","","","","","","","","","","","",""
"","ITI","","html-keyboard-response","481","2078605","0.0-1.0-648.0","0","0","10130","","null","","","null","71","","","","","","","","","","","","","","","NaN",""
"","S1","","html-keyboard-response","482","2078857","0.0-1.0-650.0","0","0","10130","","null","","","null","72","","","","","","","","","","","","","","","",""
"","ISI","","html-keyboard-response","483","2080861","0.0-1.0-651.0","0","0","10130","","null","","","null","72","NaN","","","","","","","","","","","","","","",""
"","S2","","html-keyboard-response","484","2081117","0.0-1.0-652.0","0","0","10130","","null","","","null","72","","NaN","","","","","","","","","","","","","",""
"","response","","html-keyboard-response","485","2081300","0.0-1.0-653.0","0","0","10130","","179","","","75","72","","","2","72","training","adjacent","FG","6","7","L.jpg","N.jpg","0","1","0","",""
"","feedback","","html-keyboard-response","486","2082306","0.0-1.0-654.0-0.0","0","0","10130","","null","","","null","72","","","","","","","","","","","","","","","",""
"","time_out","","html-keyboard-response","487","2084310","0.0-1.0-656.0-0.0","0","0","10130","","null","","","null","72","","","","","","","","","","","","","","","",""
"","ITI","","html-keyboard-response","488","2085313","0.0-1.0-657.0","0","0","10130","","null","","","null","72","","","","","","","","","","","","","","","NaN",""
"","S1","","html-keyboard-response","489","2085567","0.0-1.0-659.0","0","0","10130","","null","","","null","73","","","","","","","","","","","","","","","",""
"","ISI","","html-keyboard-response","490","2087571","0.0-1.0-660.0","0","0","10130","","null","","","null","73","NaN","","","","","","","","","","","","","","",""
"","S2","","html-keyboard-response","491","2087826","0.0-1.0-661.0","0","0","10130","","null","","","null","73","","NaN","","","","","","","","","","","","","",""
"","response","","html-keyboard-response","492","2088252","0.0-1.0-662.0","0","0","10130","","424","","","68","73","","","2","73","training","adjacent","AB","1","2","O.jpg","M.jpg","1","1","1","",""
"","feedback","","html-keyboard-response","493","2089256","0.0-1.0-663.0-0.0","0","0","10130","","null","","","null","73","","","","","","","","","","","","","","","",""
"","ITI","","html-keyboard-response","494","2090261","0.0-1.0-666.0","0","0","10130","","null","","","null","73","","","","","","","","","","","","","","","NaN",""
"","S1","","html-keyboard-response","495","2090515","0.0-1.0-668.0","0","0","10130","","null","","","null","74","","","","","","","","","","","","","","","",""
"","ISI","","html-keyboard-response","496","2092520","0.0-1.0-669.0","0","0","10130","","null","","","null","74","NaN","","","","","","","","","","","","","","",""
"","S2","","html-keyboard-response","497","2092773","0.0-1.0-670.0","0","0","10130","","null","","","null","74","","NaN","","","","","","","","","","","","","",""
"","response","","html-keyboard-response","498","2093600","0.0-1.0-671.0","0","0","10130","","825","","","68","74","","","2","74","training","adjacent","CD","3","4","P.jpg","R.jpg","1","1","1","",""
"","feedback","","html-keyboard-response","499","2094604","0.0-1.0-672.0-0.0","0","0","10130","","null","","","null","74","","","","","","","","","","","","","","","",""
"","ITI","","html-keyboard-response","500","2095608","0.0-1.0-675.0","0","0","10130","","null","","","null","74","","","","","","","","","","","","","","","NaN",""
"","S1","","html-keyboard-response","501","2095863","0.0-1.0-677.0","0","0","10130","","null","","","null","75","","","","","","","","","","","","","","","",""
"","ISI","","html-keyboard-response","502","2097880","0.0-1.0-678.0","0","0","10130","","null","","","null","75","NaN","","","","","","","","","","","","","","",""
"","S2","","html-keyboard-response","503","2098134","0.0-1.0-679.0","0","0","10130","","null","","","null","75","","NaN","","","","","","","","","","","","","",""
"","response","","html-keyboard-response","504","2098849","0.0-1.0-680.0","0","0","10130","","712","","","75","75","","","2","75","training","adjacent","AB","1","2","O.jpg","M.jpg","0","1","0","",""
"","feedback","","html-keyboard-response","505","2099853","0.0-1.0-681.0-0.0","0","0","10130","","null","","","null","75","","","","","","","","","","","","","","","",""
"","time_out","","html-keyboard-response","506","2101857","0.0-1.0-683.0-0.0","0","0","10130","","null","","","null","75","","","","","","","","","","","","","","","",""
"","ITI","","html-keyboard-response","507","2102861","0.0-1.0-684.0","0","0","10130","","null","","","null","75","","","","","","","","","","","","","","","NaN",""
"","S1","","html-keyboard-response","508","2103116","0.0-1.0-686.0","0","0","10130","","null","","","null","76","","","","","","","","","","","","","","","",""
"","ISI","","html-keyboard-response","509","2105119","0.0-1.0-687.0","0","0","10130","","null","","","null","76","NaN","","","","","","","","","","","","","","",""
"","S2","","html-keyboard-response","510","2105373","0.0-1.0-688.0","0","0","10130","","null","","","null","76","","NaN","","","","","","","","","","","","","",""
"","response","","html-keyboard-response","511","2105784","0.0-1.0-689.0","0","0","10130","","408","","","68","76","","","2","76","training","adjacent","BA","2","1","M.jpg","O.jpg","1","0","0","",""
"","feedback","","html-keyboard-response","512","2106789","0.0-1.0-690.0-0.0","0","0","10130","","null","","","null","76","","","","","","","","","","","","","","","",""
"","time_out","","html-keyboard-response","513","2108794","0.0-1.0-692.0-0.0","0","0","10130","","null","","","null","76","","","","","","","","","","","","","","","",""
"","ITI","","html-keyboard-response","514","2109799","0.0-1.0-693.0","0","0","10130","","null","","","null","76","","","","","","","","","","","","","","","NaN",""
"","S1","","html-keyboard-response","515","2110054","0.0-1.0-695.0","0","0","10130","","null","","","null","77","","","","","","","","","","","","","","","",""
"","ISI","","html-keyboard-response","516","2112058","0.0-1.0-696.0","0","0","10130","","null","","","null","77","NaN","","","","","","","","","","","","","","",""
"","S2","","html-keyboard-response","517","2112312","0.0-1.0-697.0","0","0","10130","","null","","","null","77","","NaN","","","","","","","","","","","","","",""
"","response","","html-keyboard-response","518","2112654","0.0-1.0-698.0","0","0","10130","","339","","","75","77","","","2","77","training","adjacent","DE","4","5","R.jpg","Q.jpg","0","1","0","",""
"","feedback","","html-keyboard-response","519","2113658","0.0-1.0-699.0-0.0","0","0","10130","","null","","","null","77","","","","","","","","","","","","","","","",""
"","time_out","","html-keyboard-response","520","2115663","0.0-1.0-701.0-0.0","0","0","10130","","null","","","null","77","","","","","","","","","","","","","","","",""
"","ITI","","html-keyboard-response","521","2116666","0.0-1.0-702.0","0","0","10130","","null","","","null","77","","","","","","","","","","","","","","","NaN",""
"","S1","","html-keyboard-response","522","2116920","0.0-1.0-704.0","0","0","10130","","null","","","null","78","","","","","","","","","","","","","","","",""
"","ISI","","html-keyboard-response","523","2118923","0.0-1.0-705.0","0","0","10130","","167","","","68","78","d","","","","","","","","","","","","","","",""
"","S2","","html-keyboard-response","524","2119177","0.0-1.0-706.0","0","0","10130","","null","","","null","78","","NaN","","","","","","","","","","","","","",""
"","response","","html-keyboard-response","525","2119478","0.0-1.0-707.0","0","0","10130","","298","","","68","78","","","2","78","training","adjacent","DC","4","3","R.jpg","P.jpg","1","0","0","",""
"","feedback","","html-keyboard-response","526","2120482","0.0-1.0-708.0-0.0","0","0","10130","","null","","","null","78","","","","","","","","","","","","","","","",""
"","time_out","","html-keyboard-response","527","2122487","0.0-1.0-710.0-0.0","0","0","10130","","null","","","null","78","","","","","","","","","","","","","","","",""
"","ITI","","html-keyboard-response","528","2123490","0.0-1.0-711.0","0","0","10130","","null","","","null","78","","","","","","","","","","","","","","","NaN",""
"","S1","","html-keyboard-response","529","2123744","0.0-1.0-713.0","0","0","10130","","null","","","null","79","","","","","","","","","","","","","","","",""
"","ISI","","html-keyboard-response","530","2125746","0.0-1.0-714.0","0","0","10130","","557","","","75","79","k","","","","","","","","","","","","","","",""
"","S2","","html-keyboard-response","531","2126001","0.0-1.0-715.0","0","0","10130","","null","","","null","79","","NaN","","","","","","","","","","","","","",""
"","response","","html-keyboard-response","532","2126581","0.0-1.0-716.0","0","0","10130","","576","","","75","79","","","2","79","training","adjacent","BA","2","1","M.jpg","O.jpg","0","0","1","",""
"","feedback","","html-keyboard-response","533","2127586","0.0-1.0-717.0-0.0","0","0","10130","","null","","","null","79","","","","","","","","","","","","","","","",""
"","ITI","","html-keyboard-response","534","2128591","0.0-1.0-720.0","0","0","10130","","null","","","null","79","","","","","","","","","","","","","","","NaN",""
"","block_over","","html-keyboard-response","535","2180330","0.0-1.0-721.0-0.0","0","0","10130","","51734","","","32","79","","","","","","","","","","","","","","","",""
"","S1","","html-keyboard-response","536","2180587","0.0-1.0-722.0","0","0","10130","","null","","","null","80","","","","","","","","","","","","","","","",""
"","ISI","","html-keyboard-response","537","2182591","0.0-1.0-723.0","0","0","10130","","null","","","null","80","NaN","","","","","","","","","","","","","","",""
"","S2","","html-keyboard-response","538","2182846","0.0-1.0-724.0","0","0","10130","","null","","","null","80","","NaN","","","","","","","","","","","","","",""
"","response","","html-keyboard-response","539","2184167","0.0-1.0-725.0","0","0","10130","","1319","","","68","80","","","3","80","training","adjacent","FE","6","5","L.jpg","Q.jpg","1","0","0","",""
"","feedback","","html-keyboard-response","540","2185170","0.0-1.0-726.0-0.0","0","0","10130","","null","","","null","80","","","","","","","","","","","","","","","",""
"","time_out","","html-keyboard-response","541","2187174","0.0-1.0-728.0-0.0","0","0","10130","","null","","","null","80","","","","","","","","","","","","","","","",""
"","ITI","","html-keyboard-response","542","2188179","0.0-1.0-729.0","0","0","10130","","null","","","null","80","","","","","","","","","","","","","","","NaN",""
"","S1","","html-keyboard-response","543","2188434","0.0-1.0-731.0","0","0","10130","","null","","","null","81","","","","","","","","","","","","","","","",""
"","ISI","","html-keyboard-response","544","2190438","0.0-1.0-732.0","0","0","10130","","266","","","75","81","k","","","","","","","","","","","","","","",""
"","S2","","html-keyboard-response","545","2190693","0.0-1.0-733.0","0","0","10130","","null","","","null","81","","NaN","","","","","","","","","","","","","",""
"","response","","html-keyboard-response","546","2191474","0.0-1.0-734.0","0","0","10130","","777","","","68","81","","","3","81","training","adjacent","DE","4","5","R.jpg","Q.jpg","1","1","1","",""
"","feedback","","html-keyboard-response","547","2192480","0.0-1.0-735.0-0.0","0","0","10130","","null","","","null","81","","","","","","","","","","","","","","","",""
"","ITI","","html-keyboard-response","548","2193485","0.0-1.0-738.0","0","0","10130","","null","","","null","81","","","","","","","","","","","","","","","NaN",""
"","S1","","html-keyboard-response","549","2193741","0.0-1.0-740.0","0","0","10130","","null","","","null","82","","","","","","","","","","","","","","","",""
"","ISI","","html-keyboard-response","550","2195746","0.0-1.0-741.0","0","0","10130","","null","","","null","82","NaN","","","","","","","","","","","","","","",""
"","S2","","html-keyboard-response","551","2196009","0.0-1.0-742.0","0","0","10130","","null","","","null","82","","NaN","","","","","","","","","","","","","",""
"","response","","html-keyboard-response","552","2196528","0.0-1.0-743.0","0","0","10130","","516","","","75","82","","","3","82","training","adjacent","FG","6","7","L.jpg","N.jpg","0","1","0","",""
"","feedback","","html-keyboard-response","553","2197533","0.0-1.0-744.0-0.0","0","0","10130","","null","","","null","82","","","","","","","","","","","","","","","",""
"","time_out","","html-keyboard-response","554","2199538","0.0-1.0-746.0-0.0","0","0","10130","","null","","","null","82","","","","","","","","","","","","","","","",""
"","ITI","","html-keyboard-response","555","2200542","0.0-1.0-747.0","0","0","10130","","null","","","null","82","","","","","","","","","","","","","","","NaN",""
"","S1","","html-keyboard-response","556","2200797","0.0-1.0-749.0","0","0","10130","","null","","","null","83","","","","","","","","","","","","","","","",""
"","ISI","","html-keyboard-response","557","2202801","0.0-1.0-750.0","0","0","10130","","null","","","null","83","NaN","","","","","","","","","","","","","","",""
"","S2","","html-keyboard-response","558","2203056","0.0-1.0-751.0","0","0","10130","","null","","","null","83","","NaN","","","","","","","","","","","","","",""
"","response","","html-keyboard-response","559","2204405","0.0-1.0-752.0","0","0","10130","","1346","","","75","83","","","3","83","training","adjacent","GF","7","6","N.jpg","L.jpg","0","0","1","",""
"","feedback","","html-keyboard-response","560","2205410","0.0-1.0-753.0-0.0","0","0","10130","","null","","","null","83","","","","","","","","","","","","","","","",""
"","ITI","","html-keyboard-response","561","2206414","0.0-1.0-756.0","0","0","10130","","null","","","null","83","","","","","","","","","","","","","","","NaN",""
"","S1","","html-keyboard-response","562","2206669","0.0-1.0-758.0","0","0","10130","","null","","","null","84","","","","","","","","","","","","","","","",""
"","ISI","","html-keyboard-response","563","2208671","0.0-1.0-759.0","0","0","10130","","null","","","null","84","NaN","","","","","","","","","","","","","","",""
"","S2","","html-keyboard-response","564","2208925","0.0-1.0-760.0","0","0","10130","","null","","","null","84","","NaN","","","","","","","","","","","","","",""
"","response","","html-keyboard-response","565","2209935","0.0-1.0-761.0","0","0","10130","","1006","","","68","84","","","3","84","training","adjacent","ED","5","4","Q.jpg","R.jpg","1","0","0","",""
"","feedback","","html-keyboard-response","566","2210941","0.0-1.0-762.0-0.0","0","0","10130","","null","","","null","84","","","","","","","","","","","","","","","",""
"","time_out","","html-keyboard-response","567","2212945","0.0-1.0-764.0-0.0","0","0","10130","","null","","","null","84","","","","","","","","","","","","","","","",""
"","ITI","","html-keyboard-response","568","2213950","0.0-1.0-765.0","0","0","10130","","null","","","null","84","","","","","","","","","","","","","","","NaN",""
"","S1","","html-keyboard-response","569","2214205","0.0-1.0-767.0","0","0","10130","","null","","","null","85","","","","","","","","","","","","","","","",""
"","ISI","","html-keyboard-response","570","2216209","0.0-1.0-768.0","0","0","10130","","null","","","null","85","NaN","","","","","","","","","","","","","","",""
"","S2","","html-keyboard-response","571","2216463","0.0-1.0-769.0","0","0","10130","","null","","","null","85","","NaN","","","","","","","","","","","","","",""
"","response","","html-keyboard-response","572","2218467","0.0-1.0-770.0","0","0","10130","","null","","","null","85","","","3","85","training","adjacent","BC","2","3","M.jpg","P.jpg","NaN","1","0","",""
"","too_slow_prompt","","html-keyboard-response","573","2219472","0.0-1.0-772.0-0.0","1","0","10130","","null","","","null","","","","","","","","","","","","","","","","",""
"","time_out","","html-keyboard-response","574","2221476","0.0-1.0-773.0-0.0","0","0","10130","","null","","","null","85","","","","","","","","","","","","","","","",""
"","ITI","","html-keyboard-response","575","2222481","0.0-1.0-774.0","0","0","10130","","null","","","null","85","","","","","","","","","","","","","","","NaN",""
"","S1","","html-keyboard-response","576","2222736","0.0-1.0-776.0","0","0","10130","","null","","","null","86","","","","","","","","","","","","","","","",""
"","ISI","","html-keyboard-response","577","2224740","0.0-1.0-777.0","0","0","10130","","null","","","null","86","NaN","","","","","","","","","","","","","","",""
"","S2","","html-keyboard-response","578","2224994","0.0-1.0-778.0","0","0","10130","","null","","","null","86","","NaN","","","","","","","","","","","","","",""
"","response","","html-keyboard-response","579","2226246","0.0-1.0-779.0","0","0","10130","","1248","","","75","86","","","3","86","training","adjacent","EF","5","6","Q.jpg","L.jpg","0","1","0","",""
"","feedback","","html-keyboard-response","580","2227265","0.0-1.0-780.0-0.0","0","0","10130","","null","","","null","86","","","","","","","","","","","","","","","",""
"","time_out","","html-keyboard-response","581","2229269","0.0-1.0-782.0-0.0","0","0","10130","","null","","","null","86","","","","","","","","","","","","","","","",""
