"success","ttype","start_time","trial_type","trial_index","time_elapsed","internal_node_id","warning","missed_checkup","PID","view_history","rt","responses","repeat_instructions","key_press","index","keypress_isi","keypress_S2","block","trial_num","phase","group_type","pair_type","S1_stim","S2_stim","S1_img","S2_img","S1_chosen","S1_higher","accuracy","keypress_iti","total_bonus_tally"
"true","full_screen","d04062023hr1957","fullscreen","0","7387","0.0-0.0","0","0","43020","","","","","","","","","","","","","","","","","","","","","",""
"","instructions","","instructions","1","30534","0.0-1.0-0.0-0.0","0","0","43020","[{""page_index"":0,""viewing_time"":4360},{""page_index"":1,""viewing_time"":8256},{""page_index"":2,""viewing_time"":8368},{""page_index"":3,""viewing_time"":2160}]","23145","","","","","","","","","","","","","","","","","","","",""
"","comprehension_check","","survey-multi-choice","2","46176","0.0-1.0-0.0-1.0","0","0","43020","","15636","{""Q0"":""True"",""Q1"":""D"",""Q2"":""Only when the screen 'MAKE A CHOICE' is shown"",""Q3"":""Green mark"",""Q4"":""either D or K""}","1","","","","","","","","","","","","","","","","","",""
"","missed_instruction_checkup","","html-keyboard-response","3","48652","0.0-1.0-0.0-2.0-0.0","0","1","43020","","2473","","","32","","","","","","","","","","","","","","","","",""
"","instructions","","instructions","4","62588","0.0-1.0-0.1-0.1","0","0","43020","[{""page_index"":0,""viewing_time"":2375},{""page_index"":1,""viewing_time"":8056},{""page_index"":2,""viewing_time"":2576},{""page_index"":3,""viewing_time"":928}]","13935","","","","","","","","","","","","","","","","","","","",""
"","comprehension_check","","survey-multi-choice","5","74269","0.0-1.0-0.1-1.1","0","0","43020","","11674","{""Q0"":""True"",""Q1"":""D"",""Q2"":""Only while the second image is shown"",""Q3"":""Green mark"",""Q4"":""either D or K""}","1","","","","","","","","","","","","","","","","","",""
"","missed_instruction_checkup","","html-keyboard-response","6","75732","0.0-1.0-0.1-2.1-0.1","0","1","43020","","1461","","","32","","","","","","","","","","","","","","","","",""
"","instructions","","instructions","7","81693","0.0-1.0-0.2-0.2","0","0","43020","[{""page_index"":0,""viewing_time"":1102},{""page_index"":1,""viewing_time"":536},{""page_index"":2,""viewing_time"":712},{""page_index"":3,""viewing_time"":3608}]","5959","","","","","","","","","","","","","","","","","","","",""
"","comprehension_check","","survey-multi-choice","8","90965","0.0-1.0-0.2-1.2","0","0","43020","","9268","{""Q0"":""True"",""Q1"":""D"",""Q2"":""Once the second image appears and while the screen 'MAKE A CHOICE' is shown"",""Q3"":""Green mark"",""Q4"":""either D or K""}","0","","","","","","","","","","","","","","","","","",""
"","start_exp","","html-keyboard-response","9","92459","0.0-1.0-1.0","0","0","43020","","1491","","","32","","","","","","","","","","","","","","","","",""
"","S1","","html-keyboard-response","10","92612","0.0-1.0-2.0","0","0","43020","","null","","","null","0","","","","","","","","","","","","","","","",""
"","ISI","","html-keyboard-response","11","94614","0.0-1.0-3.0","0","0","43020","","null","","","null","0","NaN","","","","","","","","","","","","","","",""
"","S2","","html-keyboard-response","12","94768","0.0-1.0-4.0","0","0","43020","","null","","","null","0","","NaN","","","","","","","","","","","","","",""
"","response","","html-keyboard-response","13","95172","0.0-1.0-5.0-0.0","0","0","43020","","401","","","75","0","","","1","0","training","adjacent","CD","3","4","O.jpg","M.jpg","0","1","0","",""
"","feedback","","html-keyboard-response","14","96177","0.0-1.0-6.0-0.0","0","0","43020","","null","","","null","0","","","","","","","","","","","","","","","",""
"","time_out","","html-keyboard-response","15","98180","0.0-1.0-8.0-0.0","0","0","43020","","null","","","null","0","","","","","","","","","","","","","","","",""
"","ITI","","html-keyboard-response","16","99183","0.0-1.0-9.0","0","0","43020","","null","","","null","0","","","","","","","","","","","","","","","NaN",""
"","S1","","html-keyboard-response","17","99338","0.0-1.0-11.0","0","0","43020","","null","","","null","1","","","","","","","","","","","","","","","",""
"","ISI","","html-keyboard-response","18","101343","0.0-1.0-12.0","0","0","43020","","null","","","null","1","NaN","","","","","","","","","","","","","","",""
"","S2","","html-keyboard-response","19","101496","0.0-1.0-13.0","0","0","43020","","null","","","null","1","","NaN","","","","","","","","","","","","","",""
"","response","","html-keyboard-response","20","101715","0.0-1.0-14.0-0.0","0","0","43020","","217","","","75","1","","","1","1","training","adjacent","CB","3","2","O.jpg","Q.jpg","0","0","1","",""
"","feedback","","html-keyboard-response","21","102719","0.0-1.0-15.0-0.0","0","0","43020","","null","","","null","1","","","","","","","","","","","","","","","",""
"","ITI","","html-keyboard-response","22","103722","0.0-1.0-18.0","0","0","43020","","null","","","null","1","","","","","","","","","","","","","","","NaN",""
"","S1","","html-keyboard-response","23","103876","0.0-1.0-20.0","0","0","43020","","null","","","null","2","","","","","","","","","","","","","","","",""
"","ISI","","html-keyboard-response","24","105879","0.0-1.0-21.0","0","0","43020","","null","","","null","2","NaN","","","","","","","","","","","","","","",""
"","S2","","html-keyboard-response","25","106032","0.0-1.0-22.0","0","0","43020","","null","","","null","2","","NaN","","","","","","","","","","","","","",""
"","response","","html-keyboard-response","26","106204","0.0-1.0-23.0-0.0","0","0","43020","","169","","","68","2","","","1","2","training","adjacent","ED","5","4","R.jpg","M.jpg","1","0","0","",""
"","feedback","","html-keyboard-response","27","107207","0.0-1.0-24.0-0.0","0","0","43020","","null","","","null","2","","","","","","","","","","","","","","","",""
"","time_out","","html-keyboard-response","28","109210","0.0-1.0-26.0-0.0","0","0","43020","","null","","","null","2","","","","","","","","","","","","","","","",""
"","ITI","","html-keyboard-response","29","110213","0.0-1.0-27.0","0","0","43020","","null","","","null","2","","","","","","","","","","","","","","","NaN",""
"","S1","","html-keyboard-response","30","110366","0.0-1.0-29.0","0","0","43020","","null","","","null","3","","","","","","","","","","","","","","","",""
"","ISI","","html-keyboard-response","31","112370","0.0-1.0-30.0","0","0","43020","","1484","","","75","3","k","","","","","","","","","","","","","","",""
"","S2","","html-keyboard-response","32","112524","0.0-1.0-31.0","0","0","43020","","null","","","null","3","","NaN","","","","","","","","","","","","","",""
"","response","","html-keyboard-response","33","113468","0.0-1.0-32.0-0.0","0","0","43020","","941","","","75","3","","","1","3","training","adjacent","CD","3","4","O.jpg","M.jpg","0","1","0","",""
"","feedback","","html-keyboard-response","34","114471","0.0-1.0-33.0-0.0","0","0","43020","","null","","","null","3","","","","","","","","","","","","","","","",""
"","time_out","","html-keyboard-response","35","116477","0.0-1.0-35.0-0.0","0","0","43020","","null","","","null","3","","","","","","","","","","","","","","","",""
"","ITI","","html-keyboard-response","36","117480","0.0-1.0-36.0","0","0","43020","","null","","","null","3","","","","","","","","","","","","","","","NaN",""
"","S1","","html-keyboard-response","37","117634","0.0-1.0-38.0","0","0","43020","","null","","","null","4","","","","","","","","","","","","","","","",""
"","ISI","","html-keyboard-response","38","119638","0.0-1.0-39.0","0","0","43020","","288","","","75","4","k","","","","","","","","","","","","","","",""
"","S2","","html-keyboard-response","39","119792","0.0-1.0-40.0","0","0","43020","","null","","","null","4","","NaN","","","","","","","","","","","","","",""
"","response","","html-keyboard-response","40","120174","0.0-1.0-41.0-0.0","0","0","43020","","379","","","75","4","","","1","4","training","adjacent","ED","5","4","R.jpg","M.jpg","0","0","1","",""
"","feedback","","html-keyboard-response","41","121177","0.0-1.0-42.0-0.0","0","0","43020","","null","","","null","4","","","","","","","","","","","","","","","",""
"","ITI","","html-keyboard-response","42","122180","0.0-1.0-45.0","0","0","43020","","null","","","null","4","","","","","","","","","","","","","","","NaN",""
"","S1","","html-keyboard-response","43","122333","0.0-1.0-47.0","0","0","43020","","null","","","null","5","","","","","","","","","","","","","","","",""
"","ISI","","html-keyboard-response","44","124336","0.0-1.0-48.0","0","0","43020","","null","","","null","5","NaN","","","","","","","","","","","","","","",""
"","S2","","html-keyboard-response","45","124490","0.0-1.0-49.0","0","0","43020","","null","","","null","5","","NaN","","","","","","","","","","","","","",""
"","response","","html-keyboard-response","46","124605","0.0-1.0-50.0-0.0","0","0","43020","","112","","","75","5","","","1","5","training","adjacent","BC","2","3","Q.jpg","O.jpg","0","1","0","",""
"","feedback","","html-keyboard-response","47","125611","0.0-1.0-51.0-0.0","0","0","43020","","null","","","null","5","","","","","","","","","","","","","","","",""
"","time_out","","html-keyboard-response","48","127614","0.0-1.0-53.0-0.0","0","0","43020","","null","","","null","5","","","","","","","","","","","","","","","",""
"","ITI","","html-keyboard-response","49","128618","0.0-1.0-54.0","0","0","43020","","null","","","null","5","","","","","","","","","","","","","","","NaN",""
"","S1","","html-keyboard-response","50","128771","0.0-1.0-56.0","0","0","43020","","null","","","null","6","","","","","","","","","","","","","","","",""
"","ISI","","html-keyboard-response","51","130774","0.0-1.0-57.0","0","0","43020","","null","","","null","6","NaN","","","","","","","","","","","","","","",""
"","S2","","html-keyboard-response","52","130927","0.0-1.0-58.0","0","0","43020","","null","","","null","6","","NaN","","","","","","","","","","","","","",""
"","response","","html-keyboard-response","53","131132","0.0-1.0-59.0-0.0","0","0","43020","","203","","","68","6","","","1","6","training","adjacent","EF","5","6","R.jpg","N.jpg","1","1","1","",""
"","feedback","","html-keyboard-response","54","132135","0.0-1.0-60.0-0.0","0","0","43020","","null","","","null","6","","","","","","","","","","","","","","","",""
"","ITI","","html-keyboard-response","55","133138","0.0-1.0-63.0","0","0","43020","","null","","","null","6","","","","","","","","","","","","","","","NaN",""
"","S1","","html-keyboard-response","56","133293","0.0-1.0-65.0","0","0","43020","","null","","","null","7","","","","","","","","","","","","","","","",""
"","ISI","","html-keyboard-response","57","135294","0.0-1.0-66.0","0","0","43020","","null","","","null","7","NaN","","","","","","","","","","","","","","",""
"","S2","","html-keyboard-response","58","135448","0.0-1.0-67.0","0","0","43020","","null","","","null","7","","NaN","","","","","","","","","","","","","",""
"","response","","html-keyboard-response","59","135574","0.0-1.0-68.0-0.0","0","0","43020","","122","","","68","7","","","1","7","training","adjacent","FE","6","5","N.jpg","R.jpg","1","0","0","",""
"","feedback","","html-keyboard-response","60","136577","0.0-1.0-69.0-0.0","0","0","43020","","null","","","null","7","","","","","","","","","","","","","","","",""
"","time_out","","html-keyboard-response","61","138579","0.0-1.0-71.0-0.0","0","0","43020","","null","","","null","7","","","","","","","","","","","","","","","",""
"","ITI","","html-keyboard-response","62","139582","0.0-1.0-72.0","0","0","43020","","null","","","null","7","","","","","","","","","","","","","","","NaN",""
"","S1","","html-keyboard-response","63","139735","0.0-1.0-74.0","0","0","43020","","null","","","null","8","","","","","","","","","","","","","","","",""
"","ISI","","html-keyboard-response","64","141741","0.0-1.0-75.0","0","0","43020","","null","","","null","8","NaN","","","","","","","","","","","","","","",""
"","S2","","html-keyboard-response","65","141895","0.0-1.0-76.0","0","0","43020","","null","","","null","8","","NaN","","","","","","","","","","","","","",""
"","response","","html-keyboard-response","66","142077","0.0-1.0-77.0-0.0","0","0","43020","","180","","","75","8","","","1","8","training","adjacent","CD","3","4","O.jpg","M.jpg","0","1","0","",""
"","feedback","","html-keyboard-response","67","143080","0.0-1.0-78.0-0.0","0","0","43020","","null","","","null","8","","","","","","","","","","","","","","","",""
"","time_out","","html-keyboard-response","68","145082","0.0-1.0-80.0-0.0","0","0","43020","","null","","","null","8","","","","","","","","","","","","","","","",""
"","ITI","","html-keyboard-response","69","146085","0.0-1.0-81.0","0","0","43020","","null","","","null","8","","","","","","","","","","","","","","","NaN",""
"","S1","","html-keyboard-response","70","146239","0.0-1.0-83.0","0","0","43020","","null","","","null","9","","","","","","","","","","","","","","","",""
"","ISI","","html-keyboard-response","71","148243","0.0-1.0-84.0","0","0","43020","","179","","","68","9","d","","","","","","","","","","","","","","",""
"","S2","","html-keyboard-response","72","148396","0.0-1.0-85.0","0","0","43020","","null","","","null","9","","NaN","","","","","","","","","","","","","",""
"","response","","html-keyboard-response","73","148660","0.0-1.0-86.0-0.0","0","0","43020","","262","","","75","9","","","1","9","training","adjacent","DC","4","3","M.jpg","O.jpg","0","0","1","",""
"","feedback","","html-keyboard-response","74","149663","0.0-1.0-87.0-0.0","0","0","43020","","null","","","null","9","","","","","","","","","","","","","","","",""
"","ITI","","html-keyboard-response","75","150666","0.0-1.0-90.0","0","0","43020","","null","","","null","9","","","","","","","","","","","","","","","NaN",""
"","S1","","html-keyboard-response","76","150819","0.0-1.0-92.0","0","0","43020","","null","","","null","10","","","","","","","","","","","","","","","",""
"","ISI","","html-keyboard-response","77","152822","0.0-1.0-93.0","0","0","43020","","null","","","null","10","NaN","","","","","","","","","","","","","","",""
"","S2","","html-keyboard-response","78","152976","0.0-1.0-94.0","0","0","43020","","null","","","null","10","","NaN","","","","","","","","","","","","","",""
"","response","","html-keyboard-response","79","153116","0.0-1.0-95.0-0.0","0","0","43020","","138","","","75","10","","","1","10","training","adjacent","ED","5","4","R.jpg","M.jpg","0","0","1","",""
"","feedback","","html-keyboard-response","80","154119","0.0-1.0-96.0-0.0","0","0","43020","","null","","","null","10","","","","","","","","","","","","","","","",""
"","ITI","","html-keyboard-response","81","155121","0.0-1.0-99.0","0","0","43020","","null","","","null","10","","","","","","","","","","","","","","","NaN",""
"","S1","","html-keyboard-response","82","155275","0.0-1.0-101.0","0","0","43020","","null","","","null","11","","","","","","","","","","","","","","","",""
"","ISI","","html-keyboard-response","83","157277","0.0-1.0-102.0","0","0","43020","","null","","","null","11","NaN","","","","","","","","","","","","","","",""
"","S2","","html-keyboard-response","84","157430","0.0-1.0-103.0","0","0","43020","","null","","","null","11","","NaN","","","","","","","","","","","","","",""
"","response","","html-keyboard-response","85","157621","0.0-1.0-104.0-0.0","0","0","43020","","188","","","68","11","","","1","11","training","adjacent","BC","2","3","Q.jpg","O.jpg","1","1","1","",""
"","feedback","","html-keyboard-response","86","158624","0.0-1.0-105.0-0.0","0","0","43020","","null","","","null","11","","","","","","","","","","","","","","","",""
"","ITI","","html-keyboard-response","87","159627","0.0-1.0-108.0","0","0","43020","","null","","","null","11","","","","","","","","","","","","","","","NaN",""
"","S1","","html-keyboard-response","88","159781","0.0-1.0-110.0","0","0","43020","","null","","","null","12","","","","","","","","","","","","","","","",""
"","ISI","","html-keyboard-response","89","161785","0.0-1.0-111.0","0","0","43020","","null","","","null","12","NaN","","","","","","","","","","","","","","",""
"","S2","","html-keyboard-response","90","161938","0.0-1.0-112.0","0","0","43020","","null","","","null","12","","NaN","","","","","","","","","","","","","",""
"","response","","html-keyboard-response","91","162149","0.0-1.0-113.0-0.0","0","0","43020","","207","","","75","12","","","1","12","training","adjacent","CB","3","2","O.jpg","Q.jpg","0","0","1","",""
"","feedback","","html-keyboard-response","92","163152","0.0-1.0-114.0-0.0","0","0","43020","","null","","","null","12","","","","","","","","","","","","","","","",""
"","ITI","","html-keyboard-response","93","164155","0.0-1.0-117.0","0","0","43020","","null","","","null","12","","","","","","","","","","","","","","","NaN",""
"","S1","","html-keyboard-response","94","164310","0.0-1.0-119.0","0","0","43020","","null","","","null","13","","","","","","","","","","","","","","","",""
"","ISI","","html-keyboard-response","95","166314","0.0-1.0-120.0","0","0","43020","","null","","","null","13","NaN","","","","","","","","","","","","","","",""
"","S2","","html-keyboard-response","96","166468","0.0-1.0-121.0","0","0","43020","","null","","","null","13","","NaN","","","","","","","","","","","","","",""
"","response","","html-keyboard-response","97","166629","0.0-1.0-122.0-0.0","0","0","43020","","159","","","68","13","","","1","13","training","adjacent","EF","5","6","R.jpg","N.jpg","1","1","1","",""
"","feedback","","html-keyboard-response","98","167632","0.0-1.0-123.0-0.0","0","0","43020","","null","","","null","13","","","","","","","","","","","","","","","",""
"","ITI","","html-keyboard-response","99","168635","0.0-1.0-126.0","0","0","43020","","null","","","null","13","","","","","","","","","","","","","","","NaN",""
"","S1","","html-keyboard-response","100","168788","0.0-1.0-128.0","0","0","43020","","null","","","null","14","","","","","","","","","","","","","","","",""
"","ISI","","html-keyboard-response","101","170790","0.0-1.0-129.0","0","0","43020","","null","","","null","14","NaN","","","","","","","","","","","","","","",""
"","S2","","html-keyboard-response","102","170942","0.0-1.0-130.0","0","0","43020","","null","","","null","14","","NaN","","","","","","","","","","","","","",""
"","response","","html-keyboard-response","103","171238","0.0-1.0-131.0-0.0","0","0","43020","","293","","","75","14","","","1","14","training","adjacent","DC","4","3","M.jpg","O.jpg","0","0","1","",""
"","feedback","","html-keyboard-response","104","172242","0.0-1.0-132.0-0.0","0","0","43020","","null","","","null","14","","","","","","","","","","","","","","","",""
"","ITI","","html-keyboard-response","105","173248","0.0-1.0-135.0","0","0","43020","","null","","","null","14","","","","","","","","","","","","","","","NaN",""
"","S1","","html-keyboard-response","106","173402","0.0-1.0-137.0","0","0","43020","","null","","","null","15","","","","","","","","","","","","","","","",""
"","ISI","","html-keyboard-response","107","175405","0.0-1.0-138.0","0","0","43020","","null","","","null","15","NaN","","","","","","","","","","","","","","",""
"","S2","","html-keyboard-response","108","175560","0.0-1.0-139.0","0","0","43020","","null","","","null","15","","NaN","","","","","","","","","","","","","",""
"","response","","html-keyboard-response","109","175724","0.0-1.0-140.0-0.0","0","0","43020","","161","","","68","15","","","1","15","training","adjacent","BC","2","3","Q.jpg","O.jpg","1","1","1","",""
"","feedback","","html-keyboard-response","110","176728","0.0-1.0-141.0-0.0","0","0","43020","","null","","","null","15","","","","","","","","","","","","","","","",""
"","ITI","","html-keyboard-response","111","177732","0.0-1.0-144.0","0","0","43020","","null","","","null","15","","","","","","","","","","","","","","","NaN",""
"","S1","","html-keyboard-response","112","177885","0.0-1.0-146.0","0","0","43020","","null","","","null","16","","","","","","","","","","","","","","","",""
"","ISI","","html-keyboard-response","113","179887","0.0-1.0-147.0","0","0","43020","","null","","","null","16","NaN","","","","","","","","","","","","","","",""
"","S2","","html-keyboard-response","114","180041","0.0-1.0-148.0","0","0","43020","","null","","","null","16","","NaN","","","","","","","","","","","","","",""
"","response","","html-keyboard-response","115","180251","0.0-1.0-149.0-0.0","0","0","43020","","208","","","75","16","","","1","16","training","adjacent","EF","5","6","R.jpg","N.jpg","0","1","0","",""
"","feedback","","html-keyboard-response","116","181254","0.0-1.0-150.0-0.0","0","0","43020","","null","","","null","16","","","","","","","","","","","","","","","",""
"","time_out","","html-keyboard-response","117","183261","0.0-1.0-152.0-0.0","0","0","43020","","null","","","null","16","","","","","","","","","","","","","","","",""
"","ITI","","html-keyboard-response","118","184263","0.0-1.0-153.0","0","0","43020","","null","","","null","16","","","","","","","","","","","","","","","NaN",""
"","S1","","html-keyboard-response","119","184417","0.0-1.0-155.0","0","0","43020","","null","","","null","17","","","","","","","","","","","","","","","",""
"","ISI","","html-keyboard-response","120","186420","0.0-1.0-156.0","0","0","43020","","null","","","null","17","NaN","","","","","","","","","","","","","","",""
"","S2","","html-keyboard-response","121","186574","0.0-1.0-157.0","0","0","43020","","null","","","null","17","","NaN","","","","","","","","","","","","","",""
"","response","","html-keyboard-response","122","186742","0.0-1.0-158.0-0.0","0","0","43020","","164","","","75","17","","","1","17","training","adjacent","FE","6","5","N.jpg","R.jpg","0","0","1","",""
"","feedback","","html-keyboard-response","123","187746","0.0-1.0-159.0-0.0","0","0","43020","","null","","","null","17","","","","","","","","","","","","","","","",""
"","ITI","","html-keyboard-response","124","188748","0.0-1.0-162.0","0","0","43020","","null","","","null","17","","","","","","","","","","","","","","","NaN",""
"","S1","","html-keyboard-response","125","188901","0.0-1.0-164.0","0","0","43020","","null","","","null","18","","","","","","","","","","","","","","","",""
"","ISI","","html-keyboard-response","126","190904","0.0-1.0-165.0","0","0","43020","","null","","","null","18","NaN","","","","","","","","","","","","","","",""
"","S2","","html-keyboard-response","127","191058","0.0-1.0-166.0","0","0","43020","","null","","","null","18","","NaN","","","","","","","","","","","","","",""
"","response","","html-keyboard-response","128","191220","0.0-1.0-167.0-0.0","0","0","43020","","159","","","68","18","","","1","18","training","adjacent","BA","2","1","Q.jpg","L.jpg","1","0","0","",""
"","feedback","","html-keyboard-response","129","192223","0.0-1.0-168.0-0.0","0","0","43020","","null","","","null","18","","","","","","","","","","","","","","","",""
"","time_out","","html-keyboard-response","130","194226","0.0-1.0-170.0-0.0","0","0","43020","","null","","","null","18","","","","","","","","","","","","","","","",""
"","ITI","","html-keyboard-response","131","195230","0.0-1.0-171.0","0","0","43020","","null","","","null","18","","","","","","","","","","","","","","","NaN",""
"","S1","","html-keyboard-response","132","195385","0.0-1.0-173.0","0","0","43020","","null","","","null","19","","","","","","","","","","","","","","","",""
"","ISI","","html-keyboard-response","133","197387","0.0-1.0-174.0","0","0","43020","","null","","","null","19","NaN","","","","","","","","","","","","","","",""
"","S2","","html-keyboard-response","134","197541","0.0-1.0-175.0","0","0","43020","","null","","","null","19","","NaN","","","","","","","","","","","","","",""
"","response","","html-keyboard-response","135","197732","0.0-1.0-176.0-0.0","0","0","43020","","188","","","68","19","","","1","19","training","adjacent","DE","4","5","M.jpg","R.jpg","1","1","1","",""
"","feedback","","html-keyboard-response","136","198735","0.0-1.0-177.0-0.0","0","0","43020","","null","","","null","19","","","","","","","","","","","","","","","",""
"","ITI","","html-keyboard-response","137","199739","0.0-1.0-180.0","0","0","43020","","null","","","null","19","","","","","","","","","","","","","","","NaN",""
"","S1","","html-keyboard-response","138","199892","0.0-1.0-182.0","0","0","43020","","null","","","null","20","","","","","","","","","","","","","","","",""
"","ISI","","html-keyboard-response","139","201895","0.0-1.0-183.0","0","0","43020","","null","","","null","20","NaN","","","","","","","","","","","","","","",""
"","S2","","html-keyboard-response","140","202048","0.0-1.0-184.0","0","0","43020","","null","","","null","20","","NaN","","","","","","","","","","","","","",""
"","response","","html-keyboard-response","141","202204","0.0-1.0-185.0-0.0","0","0","43020","","154","","","75","20","","","1","20","training","adjacent","BA","2","1","Q.jpg","L.jpg","0","0","1","",""
"","feedback","","html-keyboard-response","142","203209","0.0-1.0-186.0-0.0","0","0","43020","","null","","","null","20","","","","","","","","","","","","","","","",""
"","ITI","","html-keyboard-response","143","204212","0.0-1.0-189.0","0","0","43020","","null","","","null","20","","","","","","","","","","","","","","","NaN",""
"","S1","","html-keyboard-response","144","204364","0.0-1.0-191.0","0","0","43020","","null","","","null","21","","","","","","","","","","","","","","","",""
"","ISI","","html-keyboard-response","145","206367","0.0-1.0-192.0","0","0","43020","","null","","","null","21","NaN","","","","","","","","","","","","","","",""
"","S2","","html-keyboard-response","146","206520","0.0-1.0-193.0","0","0","43020","","null","","","null","21","","NaN","","","","","","","","","","","","","",""
"","response","","html-keyboard-response","147","206756","0.0-1.0-194.0-0.0","0","0","43020","","232","","","68","21","","","1","21","training","adjacent","GF","7","6","P.jpg","N.jpg","1","0","0","",""
"","feedback","","html-keyboard-response","148","207759","0.0-1.0-195.0-0.0","0","0","43020","","null","","","null","21","","","","","","","","","","","","","","","",""
"","time_out","","html-keyboard-response","149","209762","0.0-1.0-197.0-0.0","0","0","43020","","null","","","null","21","","","","","","","","","","","","","","","",""
"","ITI","","html-keyboard-response","150","210766","0.0-1.0-198.0","0","0","43020","","null","","","null","21","","","","","","","","","","","","","","","NaN",""
"","S1","","html-keyboard-response","151","210919","0.0-1.0-200.0","0","0","43020","","null","","","null","22","","","","","","","","","","","","","","","",""
"","ISI","","html-keyboard-response","152","212923","0.0-1.0-201.0","0","0","43020","","890","","","75","22","k","","","","","","","","","","","","","","",""
"","S2","","html-keyboard-response","153","213076","0.0-1.0-202.0","0","0","43020","","null","","","null","22","","NaN","","","","","","","","","","","","","",""
"","response","","html-keyboard-response","154","213300","0.0-1.0-203.0-0.0","0","0","43020","","222","","","75","22","","","1","22","training","adjacent","AB","1","2","L.jpg","Q.jpg","0","1","0","",""
"","feedback","","html-keyboard-response","155","214303","0.0-1.0-204.0-0.0","0","0","43020","","null","","","null","22","","","","","","","","","","","","","","","",""
"","time_out","","html-keyboard-response","156","216306","0.0-1.0-206.0-0.0","0","0","43020","","null","","","null","22","","","","","","","","","","","","","","","",""
"","ITI","","html-keyboard-response","157","217308","0.0-1.0-207.0","0","0","43020","","null","","","null","22","","","","","","","","","","","","","","","NaN",""
"","S1","","html-keyboard-response","158","217461","0.0-1.0-209.0","0","0","43020","","null","","","null","23","","","","","","","","","","","","","","","",""
"","ISI","","html-keyboard-response","159","219464","0.0-1.0-210.0","0","0","43020","","125","","","68","23","d","","","","","","","","","","","","","","",""
"","S2","","html-keyboard-response","160","219618","0.0-1.0-211.0","0","0","43020","","null","","","null","23","","NaN","","","","","","","","","","","","","",""
"","response","","html-keyboard-response","161","219780","0.0-1.0-212.0-0.0","0","0","43020","","159","","","75","23","","","1","23","training","adjacent","FE","6","5","N.jpg","R.jpg","0","0","1","",""
"","feedback","","html-keyboard-response","162","220784","0.0-1.0-213.0-0.0","0","0","43020","","null","","","null","23","","","","","","","","","","","","","","","",""
"","ITI","","html-keyboard-response","163","221787","0.0-1.0-216.0","0","0","43020","","null","","","null","23","","","","","","","","","","","","","","","NaN",""
"","S1","","html-keyboard-response","164","221941","0.0-1.0-218.0","0","0","43020","","null","","","null","24","","","","","","","","","","","","","","","",""
"","ISI","","html-keyboard-response","165","223944","0.0-1.0-219.0","0","0","43020","","null","","","null","24","NaN","","","","","","","","","","","","","","",""
"","S2","","html-keyboard-response","166","224098","0.0-1.0-220.0","0","0","43020","","null","","","null","24","","NaN","","","","","","","","","","","","","",""
"","response","","html-keyboard-response","167","225051","0.0-1.0-221.0-0.0","0","0","43020","","952","","","68","24","","","1","24","training","adjacent","FG","6","7","N.jpg","P.jpg","1","1","1","",""
"","feedback","","html-keyboard-response","168","226053","0.0-1.0-222.0-0.0","0","0","43020","","null","","","null","24","","","","","","","","","","","","","","","",""
"","ITI","","html-keyboard-response","169","227056","0.0-1.0-225.0","0","0","43020","","null","","","null","24","","","","","","","","","","","","","","","NaN",""
"","S1","","html-keyboard-response","170","227209","0.0-1.0-227.0","0","0","43020","","null","","","null","25","","","","","","","","","","","","","","","",""
"","ISI","","html-keyboard-response","171","229212","0.0-1.0-228.0","0","0","43020","","null","","","null","25","NaN","","","","","","","","","","","","","","",""
"","S2","","html-keyboard-response","172","229365","0.0-1.0-229.0","0","0","43020","","null","","","null","25","","NaN","","","","","","","","","","","","","",""
"","response","","html-keyboard-response","173","229644","0.0-1.0-230.0-0.0","0","0","43020","","276","","","75","25","","","1","25","training","adjacent","DE","4","5","M.jpg","R.jpg","0","1","0","",""
"","feedback","","html-keyboard-response","174","230647","0.0-1.0-231.0-0.0","0","0","43020","","null","","","null","25","","","","","","","","","","","","","","","",""
"","time_out","","html-keyboard-response","175","232650","0.0-1.0-233.0-0.0","0","0","43020","","null","","","null","25","","","","","","","","","","","","","","","",""
"","ITI","","html-keyboard-response","176","233653","0.0-1.0-234.0","0","0","43020","","null","","","null","25","","","","","","","","","","","","","","","NaN",""
"","S1","","html-keyboard-response","177","233807","0.0-1.0-236.0","0","0","43020","","null","","","null","26","","","","","","","","","","","","","","","",""
"","ISI","","html-keyboard-response","178","235810","0.0-1.0-237.0","0","0","43020","","null","","","null","26","NaN","","","","","","","","","","","","","","",""
"","S2","","html-keyboard-response","179","235963","0.0-1.0-238.0","0","0","43020","","null","","","null","26","","NaN","","","","","","","","","","","","","",""
"","response","","html-keyboard-response","180","236076","0.0-1.0-239.0-0.0","0","0","43020","","110","","","68","26","","","1","26","training","adjacent","FG","6","7","N.jpg","P.jpg","1","1","1","",""
"","feedback","","html-keyboard-response","181","237078","0.0-1.0-240.0-0.0","0","0","43020","","null","","","null","26","","","","","","","","","","","","","","","",""
"","ITI","","html-keyboard-response","182","238080","0.0-1.0-243.0","0","0","43020","","null","","","null","26","","","","","","","","","","","","","","","NaN",""
"","S1","","html-keyboard-response","183","238234","0.0-1.0-245.0","0","0","43020","","null","","","null","27","","","","","","","","","","","","","","","",""
"","ISI","","html-keyboard-response","184","240237","0.0-1.0-246.0","0","0","43020","","null","","","null","27","NaN","","","","","","","","","","","","","","",""
"","S2","","html-keyboard-response","185","240391","0.0-1.0-247.0","0","0","43020","","null","","","null","27","","NaN","","","","","","","","","","","","","",""
"","response","","html-keyboard-response","186","240547","0.0-1.0-248.0-0.0","0","0","43020","","155","","","75","27","","","1","27","training","adjacent","GF","7","6","P.jpg","N.jpg","0","0","1","",""
"","feedback","","html-keyboard-response","187","241551","0.0-1.0-249.0-0.0","0","0","43020","","null","","","null","27","","","","","","","","","","","","","","","",""
"","ITI","","html-keyboard-response","188","242555","0.0-1.0-252.0","0","0","43020","","null","","","null","27","","","","","","","","","","","","","","","NaN",""
"","S1","","html-keyboard-response","189","242708","0.0-1.0-254.0","0","0","43020","","null","","","null","28","","","","","","","","","","","","","","","",""
"","ISI","","html-keyboard-response","190","244712","0.0-1.0-255.0","0","0","43020","","null","","","null","28","NaN","","","","","","","","","","","","","","",""
"","S2","","html-keyboard-response","191","244865","0.0-1.0-256.0","0","0","43020","","null","","","null","28","","NaN","","","","","","","","","","","","","",""
"","response","","html-keyboard-response","192","244963","0.0-1.0-257.0-0.0","0","0","43020","","96","","","68","28","","","1","28","training","adjacent","EF","5","6","R.jpg","N.jpg","1","1","1","",""
"","feedback","","html-keyboard-response","193","245967","0.0-1.0-258.0-0.0","0","0","43020","","null","","","null","28","","","","","","","","","","","","","","","",""
"","ITI","","html-keyboard-response","194","246970","0.0-1.0-261.0","0","0","43020","","null","","","null","28","","","","","","","","","","","","","","","NaN",""
"","S1","","html-keyboard-response","195","247124","0.0-1.0-263.0","0","0","43020","","null","","","null","29","","","","","","","","","","","","","","","",""
"","ISI","","html-keyboard-response","196","249126","0.0-1.0-264.0","0","0","43020","","null","","","null","29","NaN","","","","","","","","","","","","","","",""
"","S2","","html-keyboard-response","197","249280","0.0-1.0-265.0","0","0","43020","","null","","","null","29","","NaN","","","","","","","","","","","","","",""
"","response","","html-keyboard-response","198","249532","0.0-1.0-266.0-0.0","0","0","43020","","249","","","68","29","","","1","29","training","adjacent","DE","4","5","M.jpg","R.jpg","1","1","1","",""
"","feedback","","html-keyboard-response","199","250535","0.0-1.0-267.0-0.0","0","0","43020","","null","","","null","29","","","","","","","","","","","","","","","",""
"","ITI","","html-keyboard-response","200","251539","0.0-1.0-270.0","0","0","43020","","null","","","null","29","","","","","","","","","","","","","","","NaN",""
"","S1","","html-keyboard-response","201","251693","0.0-1.0-272.0","0","0","43020","","null","","","null","30","","","","","","","","","","","","","","","",""
"","ISI","","html-keyboard-response","202","253695","0.0-1.0-273.0","0","0","43020","","null","","","null","30","NaN","","","","","","","","","","","","","","",""
"","S2","","html-keyboard-response","203","253849","0.0-1.0-274.0","0","0","43020","","null","","","null","30","","NaN","","","","","","","","","","","","","",""
"","response","","html-keyboard-response","204","254067","0.0-1.0-275.0-0.0","0","0","43020","","216","","","75","30","","","1","30","training","adjacent","FG","6","7","N.jpg","P.jpg","0","1","0","",""
"","feedback","","html-keyboard-response","205","255070","0.0-1.0-276.0-0.0","0","0","43020","","null","","","null","30","","","","","","","","","","","","","","","",""
"","time_out","","html-keyboard-response","206","257072","0.0-1.0-278.0-0.0","0","0","43020","","null","","","null","30","","","","","","","","","","","","","","","",""
"","ITI","","html-keyboard-response","207","258081","0.0-1.0-279.0","0","0","43020","","null","","","null","30","","","","","","","","","","","","","","","NaN",""
"","S1","","html-keyboard-response","208","258234","0.0-1.0-281.0","0","0","43020","","null","","","null","31","","","","","","","","","","","","","","","",""
"","ISI","","html-keyboard-response","209","260236","0.0-1.0-282.0","0","0","43020","","null","","","null","31","NaN","","","","","","","","","","","","","","",""
"","S2","","html-keyboard-response","210","260391","0.0-1.0-283.0","0","0","43020","","null","","","null","31","","NaN","","","","","","","","","","","","","",""
"","response","","html-keyboard-response","211","260651","0.0-1.0-284.0-0.0","0","0","43020","","259","","","68","31","","","1","31","training","adjacent","CD","3","4","O.jpg","M.jpg","1","1","1","",""
"","feedback","","html-keyboard-response","212","261655","0.0-1.0-285.0-0.0","0","0","43020","","null","","","null","31","","","","","","","","","","","","","","","",""
"","ITI","","html-keyboard-response","213","262658","0.0-1.0-288.0","0","0","43020","","null","","","null","31","","","","","","","","","","","","","","","NaN",""
"","S1","","html-keyboard-response","214","262812","0.0-1.0-290.0","0","0","43020","","null","","","null","32","","","","","","","","","","","","","","","",""
"","ISI","","html-keyboard-response","215","264815","0.0-1.0-291.0","0","0","43020","","null","","","null","32","NaN","","","","","","","","","","","","","","",""
"","S2","","html-keyboard-response","216","264969","0.0-1.0-292.0","0","0","43020","","null","","","null","32","","NaN","","","","","","","","","","","","","",""
"","response","","html-keyboard-response","217","265092","0.0-1.0-293.0-0.0","0","0","43020","","120","","","68","32","","","1","32","training","adjacent","DC","4","3","M.jpg","O.jpg","1","0","0","",""
"","feedback","","html-keyboard-response","218","266096","0.0-1.0-294.0-0.0","0","0","43020","","null","","","null","32","","","","","","","","","","","","","","","",""
"","time_out","","html-keyboard-response","219","268103","0.0-1.0-296.0-0.0","0","0","43020","","null","","","null","32","","","","","","","","","","","","","","","",""
"","ITI","","html-keyboard-response","220","269111","0.0-1.0-297.0","0","0","43020","","null","","","null","32","","","","","","","","","","","","","","","NaN",""
"","S1","","html-keyboard-response","221","269264","0.0-1.0-299.0","0","0","43020","","null","","","null","33","","","","","","","","","","","","","","","",""
"","ISI","","html-keyboard-response","222","271267","0.0-1.0-300.0","0","0","43020","","null","","","null","33","NaN","","","","","","","","","","","","","","",""
"","S2","","html-keyboard-response","223","271420","0.0-1.0-301.0","0","0","43020","","null","","","null","33","","NaN","","","","","","","","","","","","","",""
"","response","","html-keyboard-response","224","271796","0.0-1.0-302.0-0.0","0","0","43020","","374","","","75","33","","","1","33","training","adjacent","FE","6","5","N.jpg","R.jpg","0","0","1","",""
"","feedback","","html-keyboard-response","225","272799","0.0-1.0-303.0-0.0","0","0","43020","","null","","","null","33","","","","","","","","","","","","","","","",""
"","ITI","","html-keyboard-response","226","273801","0.0-1.0-306.0","0","0","43020","","null","","","null","33","","","","","","","","","","","","","","","NaN",""
"","S1","","html-keyboard-response","227","273956","0.0-1.0-308.0","0","0","43020","","null","","","null","34","","","","","","","","","","","","","","","",""
"","ISI","","html-keyboard-response","228","275959","0.0-1.0-309.0","0","0","43020","","null","","","null","34","NaN","","","","","","","","","","","","","","",""
"","S2","","html-keyboard-response","229","276113","0.0-1.0-310.0","0","0","43020","","null","","","null","34","","NaN","","","","","","","","","","","","","",""
"","response","","html-keyboard-response","230","276274","0.0-1.0-311.0-0.0","0","0","43020","","159","","","75","34","","","1","34","training","adjacent","DE","4","5","M.jpg","R.jpg","0","1","0","",""
"","feedback","","html-keyboard-response","231","277278","0.0-1.0-312.0-0.0","0","0","43020","","null","","","null","34","","","","","","","","","","","","","","","",""
"","time_out","","html-keyboard-response","232","279294","0.0-1.0-314.0-0.0","0","0","43020","","null","","","null","34","","","","","","","","","","","","","","","",""
"","ITI","","html-keyboard-response","233","280297","0.0-1.0-315.0","0","0","43020","","null","","","null","34","","","","","","","","","","","","","","","NaN",""
"","S1","","html-keyboard-response","234","280451","0.0-1.0-317.0","0","0","43020","","null","","","null","35","","","","","","","","","","","","","","","",""
"","ISI","","html-keyboard-response","235","282454","0.0-1.0-318.0","0","0","43020","","null","","","null","35","NaN","","","","","","","","","","","","","","",""
"","S2","","html-keyboard-response","236","282607","0.0-1.0-319.0","0","0","43020","","null","","","null","35","","NaN","","","","","","","","","","","","","",""
"","response","","html-keyboard-response","237","282796","0.0-1.0-320.0-0.0","0","0","43020","","186","","","68","35","","","1","35","training","adjacent","AB","1","2","L.jpg","Q.jpg","1","1","1","",""
"","feedback","","html-keyboard-response","238","283799","0.0-1.0-321.0-0.0","0","0","43020","","null","","","null","35","","","","","","","","","","","","","","","",""
"","ITI","","html-keyboard-response","239","284802","0.0-1.0-324.0","0","0","43020","","null","","","null","35","","","","","","","","","","","","","","","NaN",""
"","S1","","html-keyboard-response","240","284955","0.0-1.0-326.0","0","0","43020","","null","","","null","36","","","","","","","","","","","","","","","",""
"","ISI","","html-keyboard-response","241","286958","0.0-1.0-327.0","0","0","43020","","null","","","null","36","NaN","","","","","","","","","","","","","","",""
"","S2","","html-keyboard-response","242","287111","0.0-1.0-328.0","0","0","43020","","null","","","null","36","","NaN","","","","","","","","","","","","","",""
"","response","","html-keyboard-response","243","287178","0.0-1.0-329.0-0.0","0","0","43020","","65","","","68","36","","","1","36","training","adjacent","FG","6","7","N.jpg","P.jpg","1","1","1","",""
"","feedback","","html-keyboard-response","244","288182","0.0-1.0-330.0-0.0","0","0","43020","","null","","","null","36","","","","","","","","","","","","","","","",""
"","ITI","","html-keyboard-response","245","289186","0.0-1.0-333.0","0","0","43020","","null","","","null","36","","","","","","","","","","","","","","","NaN",""
"","S1","","html-keyboard-response","246","289340","0.0-1.0-335.0","0","0","43020","","null","","","null","37","","","","","","","","","","","","","","","",""
"","ISI","","html-keyboard-response","247","291343","0.0-1.0-336.0","0","0","43020","","null","","","null","37","NaN","","","","","","","","","","","","","","",""
"","S2","","html-keyboard-response","248","291497","0.0-1.0-337.0","0","0","43020","","null","","","null","37","","NaN","","","","","","","","","","","","","",""
"","response","","html-keyboard-response","249","291578","0.0-1.0-338.0-0.0","0","0","43020","","79","","","68","37","","","1","37","training","adjacent","ED","5","4","R.jpg","M.jpg","1","0","0","",""
"","feedback","","html-keyboard-response","250","292581","0.0-1.0-339.0-0.0","0","0","43020","","null","","","null","37","","","","","","","","","","","","","","","",""
"","time_out","","html-keyboard-response","251","294584","0.0-1.0-341.0-0.0","0","0","43020","","null","","","null","37","","","","","","","","","","","","","","","",""
"","ITI","","html-keyboard-response","252","295586","0.0-1.0-342.0","0","0","43020","","null","","","null","37","","","","","","","","","","","","","","","NaN",""
"","S1","","html-keyboard-response","253","295739","0.0-1.0-344.0","0","0","43020","","null","","","null","38","","","","","","","","","","","","","","","",""
"","ISI","","html-keyboard-response","254","297742","0.0-1.0-345.0","0","0","43020","","199","","","75","38","k","","","","","","","","","","","","","","",""
"","S2","","html-keyboard-response","255","297896","0.0-1.0-346.0","0","0","43020","","null","","","null","38","","NaN","","","","","","","","","","","","","",""
"","response","","html-keyboard-response","256","298099","0.0-1.0-347.0-0.0","0","0","43020","","200","","","75","38","","","1","38","training","adjacent","DC","4","3","M.jpg","O.jpg","0","0","1","",""
"","feedback","","html-keyboard-response","257","299102","0.0-1.0-348.0-0.0","0","0","43020","","null","","","null","38","","","","","","","","","","","","","","","",""
"","ITI","","html-keyboard-response","258","300106","0.0-1.0-351.0","0","0","43020","","null","","","null","38","","","","","","","","","","","","","","","NaN",""
"","S1","","html-keyboard-response","259","300260","0.0-1.0-353.0","0","0","43020","","null","","","null","39","","","","","","","","","","","","","","","",""
"","ISI","","html-keyboard-response","260","302263","0.0-1.0-354.0","0","0","43020","","null","","","null","39","NaN","","","","","","","","","","","","","","",""
"","S2","","html-keyboard-response","261","302416","0.0-1.0-355.0","0","0","43020","","null","","","null","39","","NaN","","","","","","","","","","","","","",""
"","response","","html-keyboard-response","262","302588","0.0-1.0-356.0-0.0","0","0","43020","","169","","","68","39","","","1","39","training","adjacent","AB","1","2","L.jpg","Q.jpg","1","1","1","",""
"","feedback","","html-keyboard-response","263","303592","0.0-1.0-357.0-0.0","0","0","43020","","null","","","null","39","","","","","","","","","","","","","","","",""
"","ITI","","html-keyboard-response","264","304596","0.0-1.0-360.0","0","0","43020","","null","","","null","39","","","","","","","","","","","","","","","NaN",""
"","S1","","html-keyboard-response","265","304748","0.0-1.0-362.0","0","0","43020","","null","","","null","40","","","","","","","","","","","","","","","",""
"","ISI","","html-keyboard-response","266","306752","0.0-1.0-363.0","0","0","43020","","null","","","null","40","NaN","","","","","","","","","","","","","","",""
"","S2","","html-keyboard-response","267","306905","0.0-1.0-364.0","0","0","43020","","null","","","null","40","","NaN","","","","","","","","","","","","","",""
"","response","","html-keyboard-response","268","306988","0.0-1.0-365.0-0.0","0","0","43020","","80","","","68","40","","","1","40","training","adjacent","BC","2","3","Q.jpg","O.jpg","1","1","1","",""
"","feedback","","html-keyboard-response","269","307994","0.0-1.0-366.0-0.0","0","0","43020","","null","","","null","40","","","","","","","","","","","","","","","",""
"","ITI","","html-keyboard-response","270","308997","0.0-1.0-369.0","0","0","43020","","null","","","null","40","","","","","","","","","","","","","","","NaN",""
"","S1","","html-keyboard-response","271","309150","0.0-1.0-371.0","0","0","43020","","null","","","null","41","","","","","","","","","","","","","","","",""
"","ISI","","html-keyboard-response","272","311153","0.0-1.0-372.0","0","0","43020","","null","","","null","41","NaN","","","","","","","","","","","","","","",""
"","S2","","html-keyboard-response","273","311307","0.0-1.0-373.0","0","0","43020","","null","","","null","41","","NaN","","","","","","","","","","","","","",""
"","response","","html-keyboard-response","274","311387","0.0-1.0-374.0-0.0","0","0","43020","","78","","","75","41","","","1","41","training","adjacent","BA","2","1","Q.jpg","L.jpg","0","0","1","",""
"","feedback","","html-keyboard-response","275","312391","0.0-1.0-375.0-0.0","0","0","43020","","null","","","null","41","","","","","","","","","","","","","","","",""
"","ITI","","html-keyboard-response","276","313394","0.0-1.0-378.0","0","0","43020","","null","","","null","41","","","","","","","","","","","","","","","NaN",""
"","S1","","html-keyboard-response","277","313547","0.0-1.0-380.0","0","0","43020","","null","","","null","42","","","","","","","","","","","","","","","",""
"","ISI","","html-keyboard-response","278","315550","0.0-1.0-381.0","0","0","43020","","null","","","null","42","NaN","","","","","","","","","","","","","","",""
"","S2","","html-keyboard-response","279","315705","0.0-1.0-382.0","0","0","43020","","null","","","null","42","","NaN","","","","","","","","","","","","","",""
"","response","","html-keyboard-response","280","315891","0.0-1.0-383.0-0.0","0","0","43020","","184","","","75","42","","","1","42","training","adjacent","BA","2","1","Q.jpg","L.jpg","0","0","1","",""
"","feedback","","html-keyboard-response","281","316895","0.0-1.0-384.0-0.0","0","0","43020","","null","","","null","42","","","","","","","","","","","","","","","",""
"","ITI","","html-keyboard-response","282","317898","0.0-1.0-387.0","0","0","43020","","null","","","null","42","","","","","","","","","","","","","","","NaN",""
"","S1","","html-keyboard-response","283","318051","0.0-1.0-389.0","0","0","43020","","null","","","null","43","","","","","","","","","","","","","","","",""
"","ISI","","html-keyboard-response","284","320055","0.0-1.0-390.0","0","0","43020","","null","","","null","43","NaN","","","","","","","","","","","","","","",""
"","S2","","html-keyboard-response","285","320208","0.0-1.0-391.0","0","0","43020","","null","","","null","43","","NaN","","","","","","","","","","","","","",""
"","response","","html-keyboard-response","286","320324","0.0-1.0-392.0-0.0","0","0","43020","","114","","","68","43","","","1","43","training","adjacent","CB","3","2","O.jpg","Q.jpg","1","0","0","",""
"","feedback","","html-keyboard-response","287","321327","0.0-1.0-393.0-0.0","0","0","43020","","null","","","null","43","","","","","","","","","","","","","","","",""
"","time_out","","html-keyboard-response","288","323331","0.0-1.0-395.0-0.0","0","0","43020","","null","","","null","43","","","","","","","","","","","","","","","",""
"","ITI","","html-keyboard-response","289","324334","0.0-1.0-396.0","0","0","43020","","null","","","null","43","","","","","","","","","","","","","","","NaN",""
"","S1","","html-keyboard-response","290","324488","0.0-1.0-398.0","0","0","43020","","null","","","null","44","","","","","","","","","","","","","","","",""
"","ISI","","html-keyboard-response","291","326490","0.0-1.0-399.0","0","0","43020","","null","","","null","44","NaN","","","","","","","","","","","","","","",""
"","S2","","html-keyboard-response","292","326643","0.0-1.0-400.0","0","0","43020","","null","","","null","44","","NaN","","","","","","","","","","","","","",""
"","response","","html-keyboard-response","293","326690","0.0-1.0-401.0-0.0","0","0","43020","","45","","","75","44","","","1","44","training","adjacent","CB","3","2","O.jpg","Q.jpg","0","0","1","",""
"","feedback","","html-keyboard-response","294","327694","0.0-1.0-402.0-0.0","0","0","43020","","null","","","null","44","","","","","","","","","","","","","","","",""
"","ITI","","html-keyboard-response","295","328698","0.0-1.0-405.0","0","0","43020","","null","","","null","44","","","","","","","","","","","","","","","NaN",""
"","S1","","html-keyboard-response","296","328851","0.0-1.0-407.0","0","0","43020","","null","","","null","45","","","","","","","","","","","","","","","",""
"","ISI","","html-keyboard-response","297","330854","0.0-1.0-408.0","0","0","43020","","null","","","null","45","NaN","","","","","","","","","","","","","","",""
"","S2","","html-keyboard-response","298","331007","0.0-1.0-409.0","0","0","43020","","null","","","null","45","","NaN","","","","","","","","","","","","","",""
"","response","","html-keyboard-response","299","331276","0.0-1.0-410.0-0.0","0","0","43020","","266","","","75","45","","","1","45","training","adjacent","GF","7","6","P.jpg","N.jpg","0","0","1","",""
"","feedback","","html-keyboard-response","300","332279","0.0-1.0-411.0-0.0","0","0","43020","","null","","","null","45","","","","","","","","","","","","","","","",""
"","ITI","","html-keyboard-response","301","333284","0.0-1.0-414.0","0","0","43020","","null","","","null","45","","","","","","","","","","","","","","","NaN",""
"","S1","","html-keyboard-response","302","333438","0.0-1.0-416.0","0","0","43020","","null","","","null","46","","","","","","","","","","","","","","","",""
"","ISI","","html-keyboard-response","303","335456","0.0-1.0-417.0","0","0","43020","","null","","","null","46","NaN","","","","","","","","","","","","","","",""
"","S2","","html-keyboard-response","304","335608","0.0-1.0-418.0","0","0","43020","","null","","","null","46","","NaN","","","","","","","","","","","","","",""
"","response","","html-keyboard-response","305","335756","0.0-1.0-419.0-0.0","0","0","43020","","145","","","75","46","","","1","46","training","adjacent","AB","1","2","L.jpg","Q.jpg","0","1","0","",""
"","feedback","","html-keyboard-response","306","336759","0.0-1.0-420.0-0.0","0","0","43020","","null","","","null","46","","","","","","","","","","","","","","","",""
"","time_out","","html-keyboard-response","307","338762","0.0-1.0-422.0-0.0","0","0","43020","","null","","","null","46","","","","","","","","","","","","","","","",""
"","ITI","","html-keyboard-response","308","339765","0.0-1.0-423.0","0","0","43020","","null","","","null","46","","","","","","","","","","","","","","","NaN",""
"","S1","","html-keyboard-response","309","339918","0.0-1.0-425.0","0","0","43020","","null","","","null","47","","","","","","","","","","","","","","","",""
"","ISI","","html-keyboard-response","310","341940","0.0-1.0-426.0","0","0","43020","","null","","","null","47","NaN","","","","","","","","","","","","","","",""
"","S2","","html-keyboard-response","311","342093","0.0-1.0-427.0","0","0","43020","","null","","","null","47","","NaN","","","","","","","","","","","","","",""
"","response","","html-keyboard-response","312","342428","0.0-1.0-428.0-0.0","0","0","43020","","332","","","68","47","","","1","47","training","adjacent","GF","7","6","P.jpg","N.jpg","1","0","0","",""
"","feedback","","html-keyboard-response","313","343444","0.0-1.0-429.0-0.0","0","0","43020","","null","","","null","47","","","","","","","","","","","","","","","",""
"","time_out","","html-keyboard-response","314","345446","0.0-1.0-431.0-0.0","0","0","43020","","null","","","null","47","","","","","","","","","","","","","","","",""
"","ITI","","html-keyboard-response","315","346450","0.0-1.0-432.0","0","0","43020","","null","","","null","47","","","","","","","","","","","","","","","NaN",""
"","block_over","","html-keyboard-response","316","352419","0.0-1.0-433.0-0.0","0","0","43020","","5967","","","32","47","","","","","","","","","","","","","","","",""
"","S1","","html-keyboard-response","317","352572","0.0-1.0-434.0","0","0","43020","","null","","","null","48","","","","","","","","","","","","","","","",""
"","ISI","","html-keyboard-response","318","354575","0.0-1.0-435.0","0","0","43020","","null","","","null","48","NaN","","","","","","","","","","","","","","",""
"","S2","","html-keyboard-response","319","354728","0.0-1.0-436.0","0","0","43020","","null","","","null","48","","NaN","","","","","","","","","","","","","",""
"","response","","html-keyboard-response","320","354876","0.0-1.0-437.0-0.0","0","0","43020","","145","","","75","48","","","2","48","training","adjacent","CB","3","2","O.jpg","Q.jpg","0","0","1","",""
"","feedback","","html-keyboard-response","321","355880","0.0-1.0-438.0-0.0","0","0","43020","","null","","","null","48","","","","","","","","","","","","","","","",""
"","ITI","","html-keyboard-response","322","356883","0.0-1.0-441.0","0","0","43020","","null","","","null","48","","","","","","","","","","","","","","","NaN",""
"","S1","","html-keyboard-response","323","357039","0.0-1.0-443.0","0","0","43020","","null","","","null","49","","","","","","","","","","","","","","","",""
"","ISI","","html-keyboard-response","324","359041","0.0-1.0-444.0","0","0","43020","","null","","","null","49","NaN","","","","","","","","","","","","","","",""
"","S2","","html-keyboard-response","325","359195","0.0-1.0-445.0","0","0","43020","","null","","","null","49","","NaN","","","","","","","","","","","","","",""
"","response","","html-keyboard-response","326","359275","0.0-1.0-446.0-0.0","0","0","43020","","78","","","68","49","","","2","49","training","adjacent","CB","3","2","O.jpg","Q.jpg","1","0","0","",""
"","feedback","","html-keyboard-response","327","360279","0.0-1.0-447.0-0.0","0","0","43020","","null","","","null","49","","","","","","","","","","","","","","","",""
"","time_out","","html-keyboard-response","328","362280","0.0-1.0-449.0-0.0","0","0","43020","","null","","","null","49","","","","","","","","","","","","","","","",""
"","ITI","","html-keyboard-response","329","363289","0.0-1.0-450.0","0","0","43020","","null","","","null","49","","","","","","","","","","","","","","","NaN",""
"","S1","","html-keyboard-response","330","363442","0.0-1.0-452.0","0","0","43020","","null","","","null","50","","","","","","","","","","","","","","","",""
"","ISI","","html-keyboard-response","331","365445","0.0-1.0-453.0","0","0","43020","","null","","","null","50","NaN","","","","","","","","","","","","","","",""
"","S2","","html-keyboard-response","332","365600","0.0-1.0-454.0","0","0","43020","","null","","","null","50","","NaN","","","","","","","","","","","","","",""
"","response","","html-keyboard-response","333","365724","0.0-1.0-455.0-0.0","0","0","43020","","122","","","75","50","","","2","50","training","adjacent","AB","1","2","L.jpg","Q.jpg","0","1","0","",""
"","feedback","","html-keyboard-response","334","366728","0.0-1.0-456.0-0.0","0","0","43020","","null","","","null","50","","","","","","","","","","","","","","","",""
"","time_out","","html-keyboard-response","335","368731","0.0-1.0-458.0-0.0","0","0","43020","","null","","","null","50","","","","","","","","","","","","","","","",""
"","ITI","","html-keyboard-response","336","369734","0.0-1.0-459.0","0","0","43020","","null","","","null","50","","","","","","","","","","","","","","","NaN",""
"","S1","","html-keyboard-response","337","369888","0.0-1.0-461.0","0","0","43020","","null","","","null","51","","","","","","","","","","","","","","","",""
"","ISI","","html-keyboard-response","338","371891","0.0-1.0-462.0","0","0","43020","","null","","","null","51","NaN","","","","","","","","","","","","","","",""
"","S2","","html-keyboard-response","339","372044","0.0-1.0-463.0","0","0","43020","","null","","","null","51","","NaN","","","","","","","","","","","","","",""
"","response","","html-keyboard-response","340","372115","0.0-1.0-464.0-0.0","0","0","43020","","69","","","75","51","","","2","51","training","adjacent","DE","4","5","M.jpg","R.jpg","0","1","0","",""
"","feedback","","html-keyboard-response","341","373118","0.0-1.0-465.0-0.0","0","0","43020","","null","","","null","51","","","","","","","","","","","","","","","",""
"","time_out","","html-keyboard-response","342","375121","0.0-1.0-467.0-0.0","0","0","43020","","null","","","null","51","","","","","","","","","","","","","","","",""
"","ITI","","html-keyboard-response","343","376123","0.0-1.0-468.0","0","0","43020","","null","","","null","51","","","","","","","","","","","","","","","NaN",""
"","S1","","html-keyboard-response","344","376277","0.0-1.0-470.0","0","0","43020","","null","","","null","52","","","","","","","","","","","","","","","",""
"","ISI","","html-keyboard-response","345","378280","0.0-1.0-471.0","0","0","43020","","222","","","68","52","d","","","","","","","","","","","","","","",""
"","S2","","html-keyboard-response","346","378433","0.0-1.0-472.0","0","0","43020","","null","","","null","52","","NaN","","","","","","","","","","","","","",""
"","response","","html-keyboard-response","347","378532","0.0-1.0-473.0-0.0","0","0","43020","","97","","","68","52","","","2","52","training","adjacent","ED","5","4","R.jpg","M.jpg","1","0","0","",""
"","feedback","","html-keyboard-response","348","379536","0.0-1.0-474.0-0.0","0","0","43020","","null","","","null","52","","","","","","","","","","","","","","","",""
"","time_out","","html-keyboard-response","349","381539","0.0-1.0-476.0-0.0","0","0","43020","","null","","","null","52","","","","","","","","","","","","","","","",""
"","ITI","","html-keyboard-response","350","382542","0.0-1.0-477.0","0","0","43020","","null","","","null","52","","","","","","","","","","","","","","","NaN",""
"","S1","","html-keyboard-response","351","382695","0.0-1.0-479.0","0","0","43020","","null","","","null","53","","","","","","","","","","","","","","","",""
"","ISI","","html-keyboard-response","352","384699","0.0-1.0-480.0","0","0","43020","","203","","","75","53","k","","","","","","","","","","","","","","",""
"","S2","","html-keyboard-response","353","384852","0.0-1.0-481.0","0","0","43020","","null","","","null","53","","NaN","","","","","","","","","","","","","",""
"","response","","html-keyboard-response","354","385051","0.0-1.0-482.0-0.0","0","0","43020","","196","","","75","53","","","2","53","training","adjacent","CB","3","2","O.jpg","Q.jpg","0","0","1","",""
"","feedback","","html-keyboard-response","355","386054","0.0-1.0-483.0-0.0","0","0","43020","","null","","","null","53","","","","","","","","","","","","","","","",""
"","ITI","","html-keyboard-response","356","387063","0.0-1.0-486.0","0","0","43020","","null","","","null","53","","","","","","","","","","","","","","","NaN",""
"","S1","","html-keyboard-response","357","387216","0.0-1.0-488.0","0","0","43020","","null","","","null","54","","","","","","","","","","","","","","","",""
"","ISI","","html-keyboard-response","358","389219","0.0-1.0-489.0","0","0","43020","","290","","","75","54","k","","","","","","","","","","","","","","",""
"","S2","","html-keyboard-response","359","389374","0.0-1.0-490.0","0","0","43020","","null","","","null","54","","NaN","","","","","","","","","","","","","",""
"","response","","html-keyboard-response","360","389516","0.0-1.0-491.0-0.0","0","0","43020","","139","","","75","54","","","2","54","training","adjacent","AB","1","2","L.jpg","Q.jpg","0","1","0","",""
"","feedback","","html-keyboard-response","361","390521","0.0-1.0-492.0-0.0","0","0","43020","","null","","","null","54","","","","","","","","","","","","","","","",""
"","time_out","","html-keyboard-response","362","392524","0.0-1.0-494.0-0.0","0","0","43020","","null","","","null","54","","","","","","","","","","","","","","","",""
"","ITI","","html-keyboard-response","363","393527","0.0-1.0-495.0","0","0","43020","","null","","","null","54","","","","","","","","","","","","","","","NaN",""
"","S1","","html-keyboard-response","364","393680","0.0-1.0-497.0","0","0","43020","","null","","","null","55","","","","","","","","","","","","","","","",""
"","ISI","","html-keyboard-response","365","395684","0.0-1.0-498.0","0","0","43020","","258","","","75","55","k","","","","","","","","","","","","","","",""
"","S2","","html-keyboard-response","366","395838","0.0-1.0-499.0","0","0","43020","","null","","","null","55","","NaN","","","","","","","","","","","","","",""
"","response","","html-keyboard-response","367","395940","0.0-1.0-500.0-0.0","0","0","43020","","100","","","75","55","","","2","55","training","adjacent","FG","6","7","N.jpg","P.jpg","0","1","0","",""
"","feedback","","html-keyboard-response","368","396944","0.0-1.0-501.0-0.0","0","0","43020","","null","","","null","55","","","","","","","","","","","","","","","",""
"","time_out","","html-keyboard-response","369","398948","0.0-1.0-503.0-0.0","0","0","43020","","null","","","null","55","","","","","","","","","","","","","","","",""
"","ITI","","html-keyboard-response","370","399951","0.0-1.0-504.0","0","0","43020","","null","","","null","55","","","","","","","","","","","","","","","NaN",""
"","S1","","html-keyboard-response","371","400105","0.0-1.0-506.0","0","0","43020","","null","","","null","56","","","","","","","","","","","","","","","",""
"","ISI","","html-keyboard-response","372","402108","0.0-1.0-507.0","0","0","43020","","null","","","null","56","NaN","","","","","","","","","","","","","","",""
"","S2","","html-keyboard-response","373","402262","0.0-1.0-508.0","0","0","43020","","null","","","null","56","","NaN","","","","","","","","","","","","","",""
"","response","","html-keyboard-response","374","402484","0.0-1.0-509.0-0.0","0","0","43020","","220","","","68","56","","","2","56","training","adjacent","FE","6","5","N.jpg","R.jpg","1","0","0","",""
"","feedback","","html-keyboard-response","375","403488","0.0-1.0-510.0-0.0","0","0","43020","","null","","","null","56","","","","","","","","","","","","","","","",""
"","time_out","","html-keyboard-response","376","405491","0.0-1.0-512.0-0.0","0","0","43020","","null","","","null","56","","","","","","","","","","","","","","","",""
"","ITI","","html-keyboard-response","377","406494","0.0-1.0-513.0","0","0","43020","","null","","","null","56","","","","","","","","","","","","","","","NaN",""
"","S1","","html-keyboard-response","378","406648","0.0-1.0-515.0","0","0","43020","","null","","","null","57","","","","","","","","","","","","","","","",""
"","ISI","","html-keyboard-response","379","408650","0.0-1.0-516.0","0","0","43020","","null","","","null","57","NaN","","","","","","","","","","","","","","",""
"","S2","","html-keyboard-response","380","408803","0.0-1.0-517.0","0","0","43020","","null","","","null","57","","NaN","","","","","","","","","","","","","",""
"","response","","html-keyboard-response","381","408980","0.0-1.0-518.0-0.0","0","0","43020","","174","","","75","57","","","2","57","training","adjacent","ED","5","4","R.jpg","M.jpg","0","0","1","",""
"","feedback","","html-keyboard-response","382","409994","0.0-1.0-519.0-0.0","0","0","43020","","null","","","null","57","","","","","","","","","","","","","","","",""
"","ITI","","html-keyboard-response","383","410998","0.0-1.0-522.0","0","0","43020","","null","","","null","57","","","","","","","","","","","","","","","NaN",""
"","S1","","html-keyboard-response","384","411151","0.0-1.0-524.0","0","0","43020","","null","","","null","58","","","","","","","","","","","","","","","",""
"","ISI","","html-keyboard-response","385","413154","0.0-1.0-525.0","0","0","43020","","null","","","null","58","NaN","","","","","","","","","","","","","","",""
"","S2","","html-keyboard-response","386","413308","0.0-1.0-526.0","0","0","43020","","null","","","null","58","","NaN","","","","","","","","","","","","","",""
"","response","","html-keyboard-response","387","413467","0.0-1.0-527.0-0.0","0","0","43020","","158","","","68","58","","","2","58","training","adjacent","DE","4","5","M.jpg","R.jpg","1","1","1","",""
"","feedback","","html-keyboard-response","388","414471","0.0-1.0-528.0-0.0","0","0","43020","","null","","","null","58","","","","","","","","","","","","","","","",""
"","ITI","","html-keyboard-response","389","415474","0.0-1.0-531.0","0","0","43020","","null","","","null","58","","","","","","","","","","","","","","","NaN",""
"","S1","","html-keyboard-response","390","415627","0.0-1.0-533.0","0","0","43020","","null","","","null","59","","","","","","","","","","","","","","","",""
"","ISI","","html-keyboard-response","391","417631","0.0-1.0-534.0","0","0","43020","","null","","","null","59","NaN","","","","","","","","","","","","","","",""
"","S2","","html-keyboard-response","392","417783","0.0-1.0-535.0","0","0","43020","","null","","","null","59","","NaN","","","","","","","","","","","","","",""
"","response","","html-keyboard-response","393","417971","0.0-1.0-536.0-0.0","0","0","43020","","186","","","68","59","","","2","59","training","adjacent","EF","5","6","R.jpg","N.jpg","1","1","1","",""
"","feedback","","html-keyboard-response","394","418989","0.0-1.0-537.0-0.0","0","0","43020","","null","","","null","59","","","","","","","","","","","","","","","",""
"","ITI","","html-keyboard-response","395","419992","0.0-1.0-540.0","0","0","43020","","null","","","null","59","","","","","","","","","","","","","","","NaN",""
"","S1","","html-keyboard-response","396","420146","0.0-1.0-542.0","0","0","43020","","null","","","null","60","","","","","","","","","","","","","","","",""
"","ISI","","html-keyboard-response","397","422148","0.0-1.0-543.0","0","0","43020","","null","","","null","60","NaN","","","","","","","","","","","","","","",""
"","S2","","html-keyboard-response","398","422301","0.0-1.0-544.0","0","0","43020","","null","","","null","60","","NaN","","","","","","","","","","","","","",""
"","response","","html-keyboard-response","399","422435","0.0-1.0-545.0-0.0","0","0","43020","","132","","","75","60","","","2","60","training","adjacent","BA","2","1","Q.jpg","L.jpg","0","0","1","",""
"","feedback","","html-keyboard-response","400","423441","0.0-1.0-546.0-0.0","0","0","43020","","null","","","null","60","","","","","","","","","","","","","","","",""
"","ITI","","html-keyboard-response","401","424443","0.0-1.0-549.0","0","0","43020","","null","","","null","60","","","","","","","","","","","","","","","NaN",""
"","S1","","html-keyboard-response","402","424596","0.0-1.0-551.0","0","0","43020","","null","","","null","61","","","","","","","","","","","","","","","",""
"","ISI","","html-keyboard-response","403","426599","0.0-1.0-552.0","0","0","43020","","null","","","null","61","NaN","","","","","","","","","","","","","","",""
"","S2","","html-keyboard-response","404","426751","0.0-1.0-553.0","0","0","43020","","null","","","null","61","","NaN","","","","","","","","","","","","","",""
"","response","","html-keyboard-response","405","426955","0.0-1.0-554.0-0.0","0","0","43020","","202","","","75","61","","","2","61","training","adjacent","EF","5","6","R.jpg","N.jpg","0","1","0","",""
"","feedback","","html-keyboard-response","406","427958","0.0-1.0-555.0-0.0","0","0","43020","","null","","","null","61","","","","","","","","","","","","","","","",""
"","time_out","","html-keyboard-response","407","429962","0.0-1.0-557.0-0.0","0","0","43020","","null","","","null","61","","","","","","","","","","","","","","","",""
"","ITI","","html-keyboard-response","408","430965","0.0-1.0-558.0","0","0","43020","","null","","","null","61","","","","","","","","","","","","","","","NaN",""
"","S1","","html-keyboard-response","409","431118","0.0-1.0-560.0","0","0","43020","","null","","","null","62","","","","","","","","","","","","","","","",""
"","ISI","","html-keyboard-response","410","433126","0.0-1.0-561.0","0","0","43020","","null","","","null","62","NaN","","","","","","","","","","","","","","",""
"","S2","","html-keyboard-response","411","433280","0.0-1.0-562.0","0","0","43020","","null","","","null","62","","NaN","","","","","","","","","","","","","",""
"","response","","html-keyboard-response","412","433515","0.0-1.0-563.0-0.0","0","0","43020","","233","","","68","62","","","2","62","training","adjacent","CD","3","4","O.jpg","M.jpg","1","1","1","",""
"","feedback","","html-keyboard-response","413","434519","0.0-1.0-564.0-0.0","0","0","43020","","null","","","null","62","","","","","","","","","","","","","","","",""
"","ITI","","html-keyboard-response","414","435522","0.0-1.0-567.0","0","0","43020","","null","","","null","62","","","","","","","","","","","","","","","NaN",""
"","S1","","html-keyboard-response","415","435675","0.0-1.0-569.0","0","0","43020","","null","","","null","63","","","","","","","","","","","","","","","",""
"","ISI","","html-keyboard-response","416","437678","0.0-1.0-570.0","0","0","43020","","null","","","null","63","NaN","","","","","","","","","","","","","","",""
"","S2","","html-keyboard-response","417","437831","0.0-1.0-571.0","0","0","43020","","null","","","null","63","","NaN","","","","","","","","","","","","","",""
"","response","","html-keyboard-response","418","438172","0.0-1.0-572.0-0.0","0","0","43020","","339","","","75","63","","","2","63","training","adjacent","FG","6","7","N.jpg","P.jpg","0","1","0","",""
"","feedback","","html-keyboard-response","419","439181","0.0-1.0-573.0-0.0","0","0","43020","","null","","","null","63","","","","","","","","","","","","","","","",""
"","time_out","","html-keyboard-response","420","441184","0.0-1.0-575.0-0.0","0","0","43020","","null","","","null","63","","","","","","","","","","","","","","","",""
"","ITI","","html-keyboard-response","421","442187","0.0-1.0-576.0","0","0","43020","","null","","","null","63","","","","","","","","","","","","","","","NaN",""
"","S1","","html-keyboard-response","422","442340","0.0-1.0-578.0","0","0","43020","","null","","","null","64","","","","","","","","","","","","","","","",""
"","ISI","","html-keyboard-response","423","444342","0.0-1.0-579.0","0","0","43020","","null","","","null","64","NaN","","","","","","","","","","","","","","",""
"","S2","","html-keyboard-response","424","444495","0.0-1.0-580.0","0","0","43020","","null","","","null","64","","NaN","","","","","","","","","","","","","",""
"","response","","html-keyboard-response","425","444723","0.0-1.0-581.0-0.0","0","0","43020","","225","","","68","64","","","2","64","training","adjacent","EF","5","6","R.jpg","N.jpg","1","1","1","",""
"","feedback","","html-keyboard-response","426","445726","0.0-1.0-582.0-0.0","0","0","43020","","null","","","null","64","","","","","","","","","","","","","","","",""
"","ITI","","html-keyboard-response","427","446729","0.0-1.0-585.0","0","0","43020","","null","","","null","64","","","","","","","","","","","","","","","NaN",""
"","S1","","html-keyboard-response","428","446882","0.0-1.0-587.0","0","0","43020","","null","","","null","65","","","","","","","","","","","","","","","",""
"","ISI","","html-keyboard-response","429","448884","0.0-1.0-588.0","0","0","43020","","null","","","null","65","NaN","","","","","","","","","","","","","","",""
"","S2","","html-keyboard-response","430","449038","0.0-1.0-589.0","0","0","43020","","null","","","null","65","","NaN","","","","","","","","","","","","","",""
"","response","","html-keyboard-response","431","449460","0.0-1.0-590.0-0.0","0","0","43020","","419","","","75","65","","","2","65","training","adjacent","CD","3","4","O.jpg","M.jpg","0","1","0","",""
"","feedback","","html-keyboard-response","432","450463","0.0-1.0-591.0-0.0","0","0","43020","","null","","","null","65","","","","","","","","","","","","","","","",""
"","time_out","","html-keyboard-response","433","452466","0.0-1.0-593.0-0.0","0","0","43020","","null","","","null","65","","","","","","","","","","","","","","","",""
"","ITI","","html-keyboard-response","434","453471","0.0-1.0-594.0","0","0","43020","","null","","","null","65","","","","","","","","","","","","","","","NaN",""
"","S1","","html-keyboard-response","435","453627","0.0-1.0-596.0","0","0","43020","","null","","","null","66","","","","","","","","","","","","","","","",""
"","ISI","","html-keyboard-response","436","455629","0.0-1.0-597.0","0","0","43020","","null","","","null","66","NaN","","","","","","","","","","","","","","",""
"","S2","","html-keyboard-response","437","455783","0.0-1.0-598.0","0","0","43020","","null","","","null","66","","NaN","","","","","","","","","","","","","",""
"","response","","html-keyboard-response","438","455875","0.0-1.0-599.0-0.0","0","0","43020","","90","","","68","66","","","2","66","training","adjacent","BC","2","3","Q.jpg","O.jpg","1","1","1","",""
"","feedback","","html-keyboard-response","439","456879","0.0-1.0-600.0-0.0","0","0","43020","","null","","","null","66","","","","","","","","","","","","","","","",""
"","ITI","","html-keyboard-response","440","457883","0.0-1.0-603.0","0","0","43020","","null","","","null","66","","","","","","","","","","","","","","","NaN",""
"","S1","","html-keyboard-response","441","458037","0.0-1.0-605.0","0","0","43020","","null","","","null","67","","","","","","","","","","","","","","","",""
"","ISI","","html-keyboard-response","442","460040","0.0-1.0-606.0","0","0","43020","","null","","","null","67","NaN","","","","","","","","","","","","","","",""
"","S2","","html-keyboard-response","443","460193","0.0-1.0-607.0","0","0","43020","","null","","","null","67","","NaN","","","","","","","","","","","","","",""
"","response","","html-keyboard-response","444","460348","0.0-1.0-608.0-0.0","0","0","43020","","152","","","68","67","","","2","67","training","adjacent","BC","2","3","Q.jpg","O.jpg","1","1","1","",""
"","feedback","","html-keyboard-response","445","461351","0.0-1.0-609.0-0.0","0","0","43020","","null","","","null","67","","","","","","","","","","","","","","","",""
"","ITI","","html-keyboard-response","446","462356","0.0-1.0-612.0","0","0","43020","","null","","","null","67","","","","","","","","","","","","","","","NaN",""
"","S1","","html-keyboard-response","447","462509","0.0-1.0-614.0","0","0","43020","","null","","","null","68","","","","","","","","","","","","","","","",""
"","ISI","","html-keyboard-response","448","464513","0.0-1.0-615.0","0","0","43020","","null","","","null","68","NaN","","","","","","","","","","","","","","",""
"","S2","","html-keyboard-response","449","464667","0.0-1.0-616.0","0","0","43020","","null","","","null","68","","NaN","","","","","","","","","","","","","",""
"","response","","html-keyboard-response","450","464779","0.0-1.0-617.0-0.0","0","0","43020","","110","","","68","68","","","2","68","training","adjacent","AB","1","2","L.jpg","Q.jpg","1","1","1","",""
"","feedback","","html-keyboard-response","451","465782","0.0-1.0-618.0-0.0","0","0","43020","","null","","","null","68","","","","","","","","","","","","","","","",""
"","ITI","","html-keyboard-response","452","466786","0.0-1.0-621.0","0","0","43020","","null","","","null","68","","","","","","","","","","","","","","","NaN",""
"","S1","","html-keyboard-response","453","466940","0.0-1.0-623.0","0","0","43020","","null","","","null","69","","","","","","","","","","","","","","","",""
"","ISI","","html-keyboard-response","454","468943","0.0-1.0-624.0","0","0","43020","","null","","","null","69","NaN","","","","","","","","","","","","","","",""
"","S2","","html-keyboard-response","455","469096","0.0-1.0-625.0","0","0","43020","","null","","","null","69","","NaN","","","","","","","","","","","","","",""
"","response","","html-keyboard-response","456","469315","0.0-1.0-626.0-0.0","0","0","43020","","217","","","75","69","","","2","69","training","adjacent","CD","3","4","O.jpg","M.jpg","0","1","0","",""
"","feedback","","html-keyboard-response","457","470320","0.0-1.0-627.0-0.0","0","0","43020","","null","","","null","69","","","","","","","","","","","","","","","",""
"","time_out","","html-keyboard-response","458","472323","0.0-1.0-629.0-0.0","0","0","43020","","null","","","null","69","","","","","","","","","","","","","","","",""
"","ITI","","html-keyboard-response","459","473326","0.0-1.0-630.0","0","0","43020","","null","","","null","69","","","","","","","","","","","","","","","NaN",""
"","S1","","html-keyboard-response","460","473479","0.0-1.0-632.0","0","0","43020","","null","","","null","70","","","","","","","","","","","","","","","",""
"","ISI","","html-keyboard-response","461","475482","0.0-1.0-633.0","0","0","43020","","null","","","null","70","NaN","","","","","","","","","","","","","","",""
"","S2","","html-keyboard-response","462","475636","0.0-1.0-634.0","0","0","43020","","null","","","null","70","","NaN","","","","","","","","","","","","","",""
"","response","","html-keyboard-response","463","475892","0.0-1.0-635.0-0.0","0","0","43020","","253","","","68","70","","","2","70","training","adjacent","FE","6","5","N.jpg","R.jpg","1","0","0","",""
"","feedback","","html-keyboard-response","464","476895","0.0-1.0-636.0-0.0","0","0","43020","","null","","","null","70","","","","","","","","","","","","","","","",""
"","time_out","","html-keyboard-response","465","478899","0.0-1.0-638.0-0.0","0","0","43020","","null","","","null","70","","","","","","","","","","","","","","","",""
"","ITI","","html-keyboard-response","466","479902","0.0-1.0-639.0","0","0","43020","","null","","","null","70","","","","","","","","","","","","","","","NaN",""
"","S1","","html-keyboard-response","467","480057","0.0-1.0-641.0","0","0","43020","","null","","","null","71","","","","","","","","","","","","","","","",""
"","ISI","","html-keyboard-response","468","482060","0.0-1.0-642.0","0","0","43020","","304","","","68","71","d","","","","","","","","","","","","","","",""
"","S2","","html-keyboard-response","469","482214","0.0-1.0-643.0","0","0","43020","","null","","","null","71","","NaN","","","","","","","","","","","","","",""
"","response","","html-keyboard-response","470","482340","0.0-1.0-644.0-0.0","0","0","43020","","124","","","68","71","","","2","71","training","adjacent","DE","4","5","M.jpg","R.jpg","1","1","1","",""
"","feedback","","html-keyboard-response","471","483344","0.0-1.0-645.0-0.0","0","0","43020","","null","","","null","71","","","","","","","","","","","","","","","",""
"","ITI","","html-keyboard-response","472","484347","0.0-1.0-648.0","0","0","43020","","null","","","null","71","","","","","","","","","","","","","","","NaN",""
"","S1","","html-keyboard-response","473","484500","0.0-1.0-650.0","0","0","43020","","null","","","null","72","","","","","","","","","","","","","","","",""
"","ISI","","html-keyboard-response","474","486504","0.0-1.0-651.0","0","0","43020","","null","","","null","72","NaN","","","","","","","","","","","","","","",""
"","S2","","html-keyboard-response","475","486657","0.0-1.0-652.0","0","0","43020","","null","","","null","72","","NaN","","","","","","","","","","","","","",""
"","response","","html-keyboard-response","476","487621","0.0-1.0-653.0-0.0","0","0","43020","","960","","","68","72","","","2","72","training","adjacent","DC","4","3","M.jpg","O.jpg","1","0","0","",""
"","feedback","","html-keyboard-response","477","488624","0.0-1.0-654.0-0.0","0","0","43020","","null","","","null","72","","","","","","","","","","","","","","","",""
"","time_out","","html-keyboard-response","478","490627","0.0-1.0-656.0-0.0","0","0","43020","","null","","","null","72","","","","","","","","","","","","","","","",""
"","ITI","","html-keyboard-response","479","491629","0.0-1.0-657.0","0","0","43020","","null","","","null","72","","","","","","","","","","","","","","","NaN",""
"","S1","","html-keyboard-response","480","491782","0.0-1.0-659.0","0","0","43020","","null","","","null","73","","","","","","","","","","","","","","","",""
"","ISI","","html-keyboard-response","481","493787","0.0-1.0-660.0","0","0","43020","","null","","","null","73","NaN","","","","","","","","","","","","","","",""
"","S2","","html-keyboard-response","482","493940","0.0-1.0-661.0","0","0","43020","","null","","","null","73","","NaN","","","","","","","","","","","","","",""
"","response","","html-keyboard-response","483","494131","0.0-1.0-662.0-0.0","0","0","43020","","189","","","75","73","","","2","73","training","adjacent","FG","6","7","N.jpg","P.jpg","0","1","0","",""
"","feedback","","html-keyboard-response","484","495135","0.0-1.0-663.0-0.0","0","0","43020","","null","","","null","73","","","","","","","","","","","","","","","",""
"","time_out","","html-keyboard-response","485","497139","0.0-1.0-665.0-0.0","0","0","43020","","null","","","null","73","","","","","","","","","","","","","","","",""
"","ITI","","html-keyboard-response","486","498141","0.0-1.0-666.0","0","0","43020","","null","","","null","73","","","","","","","","","","","","","","","NaN",""
"","S1","","html-keyboard-response","487","498294","0.0-1.0-668.0","0","0","43020","","null","","","null","74","","","","","","","","","","","","","","","",""
"","ISI","","html-keyboard-response","488","500297","0.0-1.0-669.0","0","0","43020","","null","","","null","74","NaN","","","","","","","","","","","","","","",""
"","S2","","html-keyboard-response","489","500449","0.0-1.0-670.0","0","0","43020","","null","","","null","74","","NaN","","","","","","","","","","","","","",""
"","response","","html-keyboard-response","490","500708","0.0-1.0-671.0-0.0","0","0","43020","","257","","","68","74","","","2","74","training","adjacent","GF","7","6","P.jpg","N.jpg","1","0","0","",""
"","feedback","","html-keyboard-response","491","501712","0.0-1.0-672.0-0.0","0","0","43020","","null","","","null","74","","","","","","","","","","","","","","","",""
"","time_out","","html-keyboard-response","492","503715","0.0-1.0-674.0-0.0","0","0","43020","","null","","","null","74","","","","","","","","","","","","","","","",""
"","ITI","","html-keyboard-response","493","504718","0.0-1.0-675.0","0","0","43020","","null","","","null","74","","","","","","","","","","","","","","","NaN",""
"","S1","","html-keyboard-response","494","504874","0.0-1.0-677.0","0","0","43020","","null","","","null","75","","","","","","","","","","","","","","","",""
"","ISI","","html-keyboard-response","495","506878","0.0-1.0-678.0","0","0","43020","","null","","","null","75","NaN","","","","","","","","","","","","","","",""
"","S2","","html-keyboard-response","496","507031","0.0-1.0-679.0","0","0","43020","","null","","","null","75","","NaN","","","","","","","","","","","","","",""
"","response","","html-keyboard-response","497","507196","0.0-1.0-680.0-0.0","0","0","43020","","163","","","75","75","","","2","75","training","adjacent","BA","2","1","Q.jpg","L.jpg","0","0","1","",""
"","feedback","","html-keyboard-response","498","508200","0.0-1.0-681.0-0.0","0","0","43020","","null","","","null","75","","","","","","","","","","","","","","","",""
"","ITI","","html-keyboard-response","499","509204","0.0-1.0-684.0","0","0","43020","","null","","","null","75","","","","","","","","","","","","","","","NaN",""
"","S1","","html-keyboard-response","500","509357","0.0-1.0-686.0","0","0","43020","","null","","","null","76","","","","","","","","","","","","","","","",""
"","ISI","","html-keyboard-response","501","511360","0.0-1.0-687.0","0","0","43020","","null","","","null","76","NaN","","","","","","","","","","","","","","",""
"","S2","","html-keyboard-response","502","511514","0.0-1.0-688.0","0","0","43020","","null","","","null","76","","NaN","","","","","","","","","","","","","",""
"","response","","html-keyboard-response","503","511675","0.0-1.0-689.0-0.0","0","0","43020","","159","","","75","76","","","2","76","training","adjacent","BA","2","1","Q.jpg","L.jpg","0","0","1","",""
"","feedback","","html-keyboard-response","504","512679","0.0-1.0-690.0-0.0","0","0","43020","","null","","","null","76","","","","","","","","","","","","","","","",""
"","ITI","","html-keyboard-response","505","513681","0.0-1.0-693.0","0","0","43020","","null","","","null","76","","","","","","","","","","","","","","","NaN",""
"","S1","","html-keyboard-response","506","513834","0.0-1.0-695.0","0","0","43020","","null","","","null","77","","","","","","","","","","","","","","","",""
"","ISI","","html-keyboard-response","507","515838","0.0-1.0-696.0","0","0","43020","","null","","","null","77","NaN","","","","","","","","","","","","","","",""
"","S2","","html-keyboard-response","508","515992","0.0-1.0-697.0","0","0","43020","","null","","","null","77","","NaN","","","","","","","","","","","","","",""
"","response","","html-keyboard-response","509","516204","0.0-1.0-698.0-0.0","0","0","43020","","210","","","68","77","","","2","77","training","adjacent","DE","4","5","M.jpg","R.jpg","1","1","1","",""
"","feedback","","html-keyboard-response","510","517208","0.0-1.0-699.0-0.0","0","0","43020","","null","","","null","77","","","","","","","","","","","","","","","",""
"","ITI","","html-keyboard-response","511","518213","0.0-1.0-702.0","0","0","43020","","null","","","null","77","","","","","","","","","","","","","","","NaN",""
"","S1","","html-keyboard-response","512","518365","0.0-1.0-704.0","0","0","43020","","null","","","null","78","","","","","","","","","","","","","","","",""
"","ISI","","html-keyboard-response","513","520368","0.0-1.0-705.0","0","0","43020","","null","","","null","78","NaN","","","","","","","","","","","","","","",""
"","S2","","html-keyboard-response","514","520521","0.0-1.0-706.0","0","0","43020","","null","","","null","78","","NaN","","","","","","","","","","","","","",""
"","response","","html-keyboard-response","515","520908","0.0-1.0-707.0-0.0","0","0","43020","","384","","","68","78","","","2","78","training","adjacent","EF","5","6","R.jpg","N.jpg","1","1","1","",""
"","feedback","","html-keyboard-response","516","521911","0.0-1.0-708.0-0.0","0","0","43020","","null","","","null","78","","","","","","","","","","","","","","","",""
"","ITI","","html-keyboard-response","517","522914","0.0-1.0-711.0","0","0","43020","","null","","","null","78","","","","","","","","","","","","","","","NaN",""
"","S1","","html-keyboard-response","518","523066","0.0-1.0-713.0","0","0","43020","","null","","","null","79","","","","","","","","","","","","","","","",""
"","ISI","","html-keyboard-response","519","525070","0.0-1.0-714.0","0","0","43020","","null","","","null","79","NaN","","","","","","","","","","","","","","",""
"","S2","","html-keyboard-response","520","525222","0.0-1.0-715.0","0","0","43020","","null","","","null","79","","NaN","","","","","","","","","","","","","",""
"","response","","html-keyboard-response","521","525410","0.0-1.0-716.0-0.0","0","0","43020","","187","","","68","79","","","2","79","training","adjacent","CB","3","2","O.jpg","Q.jpg","1","0","0","",""
"","feedback","","html-keyboard-response","522","526413","0.0-1.0-717.0-0.0","0","0","43020","","null","","","null","79","","","","","","","","","","","","","","","",""
"","time_out","","html-keyboard-response","523","528418","0.0-1.0-719.0-0.0","0","0","43020","","null","","","null","79","","","","","","","","","","","","","","","",""
"","ITI","","html-keyboard-response","524","529421","0.0-1.0-720.0","0","0","43020","","null","","","null","79","","","","","","","","","","","","","","","NaN",""
"","S1","","html-keyboard-response","525","529573","0.0-1.0-722.0","0","0","43020","","null","","","null","80","","","","","","","","","","","","","","","",""
"","ISI","","html-keyboard-response","526","531575","0.0-1.0-723.0","0","0","43020","","null","","","null","80","NaN","","","","","","","","","","","","","","",""
"","S2","","html-keyboard-response","527","531728","0.0-1.0-724.0","0","0","43020","","null","","","null","80","","NaN","","","","","","","","","","","","","",""
"","response","","html-keyboard-response","528","532003","0.0-1.0-725.0-0.0","0","0","43020","","273","","","68","80","","","2","80","training","adjacent","GF","7","6","P.jpg","N.jpg","1","0","0","",""
"","feedback","","html-keyboard-response","529","533006","0.0-1.0-726.0-0.0","0","0","43020","","null","","","null","80","","","","","","","","","","","","","","","",""
"","time_out","","html-keyboard-response","530","535008","0.0-1.0-728.0-0.0","0","0","43020","","null","","","null","80","","","","","","","","","","","","","","","",""
"","ITI","","html-keyboard-response","531","536011","0.0-1.0-729.0","0","0","43020","","null","","","null","80","","","","","","","","","","","","","","","NaN",""
"","S1","","html-keyboard-response","532","536163","0.0-1.0-731.0","0","0","43020","","null","","","null","81","","","","","","","","","","","","","","","",""
"","ISI","","html-keyboard-response","533","538166","0.0-1.0-732.0","0","0","43020","","null","","","null","81","NaN","","","","","","","","","","","","","","",""
"","S2","","html-keyboard-response","534","538318","0.0-1.0-733.0","0","0","43020","","null","","","null","81","","NaN","","","","","","","","","","","","","",""
"","response","","html-keyboard-response","535","538709","0.0-1.0-734.0-0.0","0","0","43020","","388","","","75","81","","","2","81","training","adjacent","BC","2","3","Q.jpg","O.jpg","0","1","0","",""
"","feedback","","html-keyboard-response","536","539711","0.0-1.0-735.0-0.0","0","0","43020","","null","","","null","81","","","","","","","","","","","","","","","",""
"","time_out","","html-keyboard-response","537","541714","0.0-1.0-737.0-0.0","0","0","43020","","null","","","null","81","","","","","","","","","","","","","","","",""
"","ITI","","html-keyboard-response","538","542716","0.0-1.0-738.0","0","0","43020","","null","","","null","81","","","","","","","","","","","","","","","NaN",""
"","S1","","html-keyboard-response","539","542870","0.0-1.0-740.0","0","0","43020","","null","","","null","82","","","","","","","","","","","","","","","",""
"","ISI","","html-keyboard-response","540","544876","0.0-1.0-741.0","0","0","43020","","251","","","68","82","d","","","","","","","","","","","","","","",""
"","S2","","html-keyboard-response","541","545054","0.0-1.0-742.0","0","0","43020","","null","","","null","82","","NaN","","","","","","","","","","","","","",""
"","response","","html-keyboard-response","542","545597","0.0-1.0-743.0-0.0","0","0","43020","","542","","","75","82","","","2","82","training","adjacent","FE","6","5","N.jpg","R.jpg","0","0","1","",""
"","feedback","","html-keyboard-response","543","546600","0.0-1.0-744.0-0.0","0","0","43020","","null","","","null","82","","","","","","","","","","","","","","","",""
"","ITI","","html-keyboard-response","544","547604","0.0-1.0-747.0","0","0","43020","","null","","","null","82","","","","","","","","","","","","","","","NaN",""
"","S1","","html-keyboard-response","545","547756","0.0-1.0-749.0","0","0","43020","","null","","","null","83","","","","","","","","","","","","","","","",""
"","ISI","","html-keyboard-response","546","549758","0.0-1.0-750.0","0","0","43020","","null","","","null","83","NaN","","","","","","","","","","","","","","",""
"","S2","","html-keyboard-response","547","549915","0.0-1.0-751.0","0","0","43020","","null","","","null","83","","NaN","","","","","","","","","","","","","",""
"","response","","html-keyboard-response","548","550163","0.0-1.0-752.0-0.0","0","0","43020","","246","","","68","83","","","2","83","training","adjacent","CD","3","4","O.jpg","M.jpg","1","1","1","",""
"","feedback","","html-keyboard-response","549","551165","0.0-1.0-753.0-0.0","0","0","43020","","null","","","null","83","","","","","","","","","","","","","","","",""
"","ITI","","html-keyboard-response","550","552169","0.0-1.0-756.0","0","0","43020","","null","","","null","83","","","","","","","","","","","","","","","NaN",""
"","S1","","html-keyboard-response","551","552322","0.0-1.0-758.0","0","0","43020","","null","","","null","84","","","","","","","","","","","","","","","",""
"","ISI","","html-keyboard-response","552","554325","0.0-1.0-759.0","0","0","43020","","null","","","null","84","NaN","","","","","","","","","","","","","","",""
"","S2","","html-keyboard-response","553","554478","0.0-1.0-760.0","0","0","43020","","null","","","null","84","","NaN","","","","","","","","","","","","","",""
"","response","","html-keyboard-response","554","554595","0.0-1.0-761.0-0.0","0","0","43020","","115","","","68","84","","","2","84","training","adjacent","ED","5","4","R.jpg","M.jpg","1","0","0","",""
"","feedback","","html-keyboard-response","555","555598","0.0-1.0-762.0-0.0","0","0","43020","","null","","","null","84","","","","","","","","","","","","","","","",""
"","time_out","","html-keyboard-response","556","557601","0.0-1.0-764.0-0.0","0","0","43020","","null","","","null","84","","","","","","","","","","","","","","","",""
"","ITI","","html-keyboard-response","557","558604","0.0-1.0-765.0","0","0","43020","","null","","","null","84","","","","","","","","","","","","","","","NaN",""
"","S1","","html-keyboard-response","558","558758","0.0-1.0-767.0","0","0","43020","","null","","","null","85","","","","","","","","","","","","","","","",""
"","ISI","","html-keyboard-response","559","560761","0.0-1.0-768.0","0","0","43020","","null","","","null","85","NaN","","","","","","","","","","","","","","",""
"","S2","","html-keyboard-response","560","560914","0.0-1.0-769.0","0","0","43020","","null","","","null","85","","NaN","","","","","","","","","","","","","",""
"","response","","html-keyboard-response","561","561067","0.0-1.0-770.0-0.0","0","0","43020","","151","","","68","85","","","2","85","training","adjacent","DC","4","3","M.jpg","O.jpg","1","0","0","",""
"","feedback","","html-keyboard-response","562","562071","0.0-1.0-771.0-0.0","0","0","43020","","null","","","null","85","","","","","","","","","","","","","","","",""
"","time_out","","html-keyboard-response","563","564074","0.0-1.0-773.0-0.0","0","0","43020","","null","","","null","85","","","","","","","","","","","","","","","",""
"","ITI","","html-keyboard-response","564","565078","0.0-1.0-774.0","0","0","43020","","null","","","null","85","","","","","","","","","","","","","","","NaN",""
"","S1","","html-keyboard-response","565","565231","0.0-1.0-776.0","0","0","43020","","null","","","null","86","","","","","","","","","","","","","","","",""
"","ISI","","html-keyboard-response","566","567234","0.0-1.0-777.0","0","0","43020","","null","","","null","86","NaN","","","","","","","","","","","","","","",""
"","S2","","html-keyboard-response","567","567389","0.0-1.0-778.0","0","0","43020","","null","","","null","86","","NaN","","","","","","","","","","","","","",""
"","response","","html-keyboard-response","568","567539","0.0-1.0-779.0-0.0","0","0","43020","","149","","","68","86","","","2","86","training","adjacent","AB","1","2","L.jpg","Q.jpg","1","1","1","",""
"","feedback","","html-keyboard-response","569","568544","0.0-1.0-780.0-0.0","0","0","43020","","null","","","null","86","","","","","","","","","","","","","","","",""
"","ITI","","html-keyboard-response","570","569547","0.0-1.0-783.0","0","0","43020","","null","","","null","86","","","","","","","","","","","","","","","NaN",""
"","S1","","html-keyboard-response","571","569700","0.0-1.0-785.0","0","0","43020","","null","","","null","87","","","","","","","","","","","","","","","",""
"","ISI","","html-keyboard-response","572","571704","0.0-1.0-786.0","0","0","43020","","null","","","null","87","NaN","","","","","","","","","","","","","","",""
"","S2","","html-keyboard-response","573","571858","0.0-1.0-787.0","0","0","43020","","null","","","null","87","","NaN","","","","","","","","","","","","","",""
"","response","","html-keyboard-response","574","572236","0.0-1.0-788.0-0.0","0","0","43020","","376","","","68","87","","","2","87","training","adjacent","GF","7","6","P.jpg","N.jpg","1","0","0","",""
"","feedback","","html-keyboard-response","575","573241","0.0-1.0-789.0-0.0","0","0","43020","","null","","","null","87","","","","","","","","","","","","","","","",""
"","time_out","","html-keyboard-response","576","575245","0.0-1.0-791.0-0.0","0","0","43020","","null","","","null","87","","","","","","","","","","","","","","","",""
"","ITI","","html-keyboard-response","577","576248","0.0-1.0-792.0","0","0","43020","","null","","","null","87","","","","","","","","","","","","","","","NaN",""
"","S1","","html-keyboard-response","578","576402","0.0-1.0-794.0","0","0","43020","","null","","","null","88","","","","","","","","","","","","","","","",""
"","ISI","","html-keyboard-response","579","578405","0.0-1.0-795.0","0","0","43020","","null","","","null","88","NaN","","","","","","","","","","","","","","",""
