"success","ttype","start_time","trial_type","trial_index","time_elapsed","internal_node_id","warning","missed_checkup","PID","view_history","rt","responses","repeat_instructions","key_press","index","keypress_isi","keypress_S2","block","trial_num","phase","group_type","pair_type","S1_stim","S2_stim","S1_img","S2_img","S1_chosen","S1_higher","accuracy","keypress_iti","total_bonus_tally"
"true","full_screen","d03032023hr1947","fullscreen","0","102049","0.0-0.0","0","0","85583","","","","","","","","","","","","","","","","","","","","","",""
"","instructions","","instructions","1","181932","0.0-1.0-0.0-0.0","0","0","85583","[{""page_index"":0,""viewing_time"":5838},{""page_index"":1,""viewing_time"":66129},{""page_index"":2,""viewing_time"":3719},{""page_index"":3,""viewing_time"":4174}]","79862","","","","","","","","","","","","","","","","","","","",""
"","comprehension_check","","survey-multi-choice","2","211578","0.0-1.0-0.0-1.0","0","0","85583","","29629","{""Q0"":""True"",""Q1"":""D"",""Q2"":""Once the second image appears and while the screen 'MAKE A CHOICE' is shown"",""Q3"":""Green mark"",""Q4"":""either D or K""}","1","","","","","","","","","","","","","","","","","",""
"","missed_instruction_checkup","","html-keyboard-response","3","223906","0.0-1.0-0.0-2.0-0.0","0","1","85583","","12313","","","32","","","","","","","","","","","","","","","","",""
"","instructions","","instructions","4","441048","0.0-1.0-0.1-0.1","0","0","85583","[{""page_index"":0,""viewing_time"":2569},{""page_index"":1,""viewing_time"":208945},{""page_index"":2,""viewing_time"":2542},{""page_index"":3,""viewing_time"":3073}]","217129","","","","","","","","","","","","","","","","","","","",""
"","comprehension_check","","survey-multi-choice","5","454194","0.0-1.0-0.1-1.1","0","0","85583","","13122","{""Q0"":""True"",""Q1"":""K"",""Q2"":""Once the second image appears and while the screen 'MAKE A CHOICE' is shown"",""Q3"":""Green mark"",""Q4"":""either D or K""}","0","","","","","","","","","","","","","","","","","",""
"","start_exp","","html-keyboard-response","6","458254","0.0-1.0-1.0","0","0","85583","","4050","","","32","","","","","","","","","","","","","","","","",""
"","S1","","html-keyboard-response","7","458514","0.0-1.0-2.0","0","0","85583","","null","","","null","0","","","","","","","","","","","","","","","",""
"","ISI","","html-keyboard-response","8","459019","0.0-1.0-3.0","0","0","85583","","null","","","null","0","NaN","","","","","","","","","","","","","","",""
"","S2","","html-keyboard-response","9","459276","0.0-1.0-4.0","0","0","85583","","null","","","null","0","","NaN","","","","","","","","","","","","","",""
"","response","","html-keyboard-response","10","461035","0.0-1.0-5.0-0.0","0","0","85583","","null","","","null","0","","","1","0","training","adjacent","FG","6","7","L.jpg","Q.jpg","NaN","1","0","",""
"","too_slow_prompt","","html-keyboard-response","11","462045","0.0-1.0-7.0-0.0","1","0","85583","","null","","","null","","","","","","","","","","","","","","","","",""
"","time_out","","html-keyboard-response","12","464050","0.0-1.0-8.0-0.0","0","0","85583","","null","","","null","0","","","","","","","","","","","","","","","",""
"","ITI","","html-keyboard-response","13","465058","0.0-1.0-9.0","0","0","85583","","633","","","68","0","","","","","","","","","","","","","","","d",""
"","S1","","html-keyboard-response","14","465316","0.0-1.0-11.0","0","0","85583","","null","","","null","1","","","","","","","","","","","","","","","",""
"","ISI","","html-keyboard-response","15","465824","0.0-1.0-12.0","0","0","85583","","363","","","68","1","d","","","","","","","","","","","","","","",""
"","S2","","html-keyboard-response","16","465902","0.0-1.0-13.0","0","0","85583","","69","","","75","1","","k","1","1","training","adjacent","BA","2","1","P.jpg","N.jpg","1","0","0","",""
"","feedback","","html-keyboard-response","17","466910","0.0-1.0-15.0-0.0","0","0","85583","","null","","","null","1","","","","","","","","","","","","","","","",""
"","time_out","","html-keyboard-response","18","468921","0.0-1.0-17.0-0.0","0","0","85583","","null","","","null","1","","","","","","","","","","","","","","","",""
"","ITI","","html-keyboard-response","19","469971","0.0-1.0-18.0","0","0","85583","","204","","","68","1","","","","","","","","","","","","","","","d",""
"","S1","","html-keyboard-response","20","470227","0.0-1.0-20.0","0","0","85583","","null","","","null","2","","","","","","","","","","","","","","","",""
"","ISI","","html-keyboard-response","21","470729","0.0-1.0-21.0","0","0","85583","","237","","","75","2","k","","","","","","","","","","","","","","",""
"","S2","","html-keyboard-response","22","470986","0.0-1.0-22.0","0","0","85583","","null","","","null","2","","NaN","","","","","","","","","","","","","",""
"","response","","html-keyboard-response","23","472450","0.0-1.0-23.0-0.0","0","0","85583","","1459","","","68","2","","","1","2","training","adjacent","FG","6","7","L.jpg","Q.jpg","0","1","0","",""
"","feedback","","html-keyboard-response","24","473454","0.0-1.0-24.0-0.0","0","0","85583","","null","","","null","2","","","","","","","","","","","","","","","",""
"","time_out","","html-keyboard-response","25","475460","0.0-1.0-26.0-0.0","0","0","85583","","null","","","null","2","","","","","","","","","","","","","","","",""
"","ITI","","html-keyboard-response","26","476465","0.0-1.0-27.0","0","0","85583","","null","","","null","2","","","","","","","","","","","","","","","NaN",""
"","S1","","html-keyboard-response","27","476721","0.0-1.0-29.0","0","0","85583","","null","","","null","3","","","","","","","","","","","","","","","",""
"","ISI","","html-keyboard-response","28","477224","0.0-1.0-30.0","0","0","85583","","265","","","68","3","d","","","","","","","","","","","","","","",""
"","S2","","html-keyboard-response","29","477481","0.0-1.0-31.0","0","0","85583","","null","","","null","3","","NaN","","","","","","","","","","","","","",""
"","response","","html-keyboard-response","30","478485","0.0-1.0-32.0-0.0","0","0","85583","","998","","","75","3","","","1","3","training","adjacent","AB","1","2","N.jpg","P.jpg","1","1","1","",""
"","feedback","","html-keyboard-response","31","479492","0.0-1.0-33.0-0.0","0","0","85583","","null","","","null","3","","","","","","","","","","","","","","","",""
"","ITI","","html-keyboard-response","32","480502","0.0-1.0-36.0","0","0","85583","","null","","","null","3","","","","","","","","","","","","","","","NaN",""
"","S1","","html-keyboard-response","33","480757","0.0-1.0-38.0","0","0","85583","","null","","","null","4","","","","","","","","","","","","","","","",""
"","ISI","","html-keyboard-response","34","481262","0.0-1.0-39.0","0","0","85583","","null","","","null","4","NaN","","","","","","","","","","","","","","",""
"","S2","","html-keyboard-response","35","481524","0.0-1.0-40.0","0","0","85583","","null","","","null","4","","NaN","","","","","","","","","","","","","",""
"","response","","html-keyboard-response","36","482319","0.0-1.0-41.0-0.0","0","0","85583","","789","","","75","4","","","1","4","training","adjacent","EF","5","6","O.jpg","L.jpg","1","1","1","",""
"","feedback","","html-keyboard-response","37","483326","0.0-1.0-42.0-0.0","0","0","85583","","null","","","null","4","","","","","","","","","","","","","","","",""
"","ITI","","html-keyboard-response","38","484332","0.0-1.0-45.0","0","0","85583","","null","","","null","4","","","","","","","","","","","","","","","NaN",""
"","S1","","html-keyboard-response","39","484588","0.0-1.0-47.0","0","0","85583","","null","","","null","5","","","","","","","","","","","","","","","",""
"","ISI","","html-keyboard-response","40","485094","0.0-1.0-48.0","0","0","85583","","128","","","68","5","d","","","","","","","","","","","","","","",""
"","S2","","html-keyboard-response","41","485352","0.0-1.0-49.0","0","0","85583","","null","","","null","5","","NaN","","","","","","","","","","","","","",""
"","response","","html-keyboard-response","42","486088","0.0-1.0-50.0-0.0","0","0","85583","","732","","","75","5","","","1","5","training","adjacent","BC","2","3","P.jpg","M.jpg","1","1","1","",""
"","feedback","","html-keyboard-response","43","487096","0.0-1.0-51.0-0.0","0","0","85583","","null","","","null","5","","","","","","","","","","","","","","","",""
"","ITI","","html-keyboard-response","44","488102","0.0-1.0-54.0","0","0","85583","","null","","","null","5","","","","","","","","","","","","","","","NaN",""
"","S1","","html-keyboard-response","45","488358","0.0-1.0-56.0","0","0","85583","","null","","","null","6","","","","","","","","","","","","","","","",""
"","ISI","","html-keyboard-response","46","488952","0.0-1.0-57.0","0","0","85583","","313","","","68","6","d","","","","","","","","","","","","","","",""
"","S2","","html-keyboard-response","47","489208","0.0-1.0-58.0","0","0","85583","","null","","","null","6","","NaN","","","","","","","","","","","","","",""
"","response","","html-keyboard-response","48","489938","0.0-1.0-59.0-0.0","0","0","85583","","722","","","75","6","","","1","6","training","adjacent","FG","6","7","L.jpg","Q.jpg","1","1","1","",""
"","feedback","","html-keyboard-response","49","490946","0.0-1.0-60.0-0.0","0","0","85583","","null","","","null","6","","","","","","","","","","","","","","","",""
"","ITI","","html-keyboard-response","50","491950","0.0-1.0-63.0","0","0","85583","","null","","","null","6","","","","","","","","","","","","","","","NaN",""
"","S1","","html-keyboard-response","51","492204","0.0-1.0-65.0","0","0","85583","","null","","","null","7","","","","","","","","","","","","","","","",""
"","ISI","","html-keyboard-response","52","492724","0.0-1.0-66.0","0","0","85583","","null","","","null","7","NaN","","","","","","","","","","","","","","",""
"","S2","","html-keyboard-response","53","492980","0.0-1.0-67.0","0","0","85583","","null","","","null","7","","NaN","","","","","","","","","","","","","",""
"","response","","html-keyboard-response","54","493074","0.0-1.0-68.0-0.0","0","0","85583","","90","","","68","7","","","1","7","training","adjacent","CD","3","4","M.jpg","R.jpg","0","1","0","",""
"","feedback","","html-keyboard-response","55","494083","0.0-1.0-69.0-0.0","0","0","85583","","null","","","null","7","","","","","","","","","","","","","","","",""
"","time_out","","html-keyboard-response","56","496096","0.0-1.0-71.0-0.0","0","0","85583","","null","","","null","7","","","","","","","","","","","","","","","",""
"","ITI","","html-keyboard-response","57","497101","0.0-1.0-72.0","0","0","85583","","null","","","null","7","","","","","","","","","","","","","","","NaN",""
"","S1","","html-keyboard-response","58","497356","0.0-1.0-74.0","0","0","85583","","null","","","null","8","","","","","","","","","","","","","","","",""
"","ISI","","html-keyboard-response","59","497861","0.0-1.0-75.0","0","0","85583","","302","","","68","8","d","","","","","","","","","","","","","","",""
"","S2","","html-keyboard-response","60","498116","0.0-1.0-76.0","0","0","85583","","null","","","null","8","","NaN","","","","","","","","","","","","","",""
"","response","","html-keyboard-response","61","498721","0.0-1.0-77.0-0.0","0","0","85583","","596","","","75","8","","","1","8","training","adjacent","FE","6","5","L.jpg","O.jpg","1","0","0","",""
"","feedback","","html-keyboard-response","62","499727","0.0-1.0-78.0-0.0","0","0","85583","","null","","","null","8","","","","","","","","","","","","","","","",""
"","time_out","","html-keyboard-response","63","501734","0.0-1.0-80.0-0.0","0","0","85583","","null","","","null","8","","","","","","","","","","","","","","","",""
"","ITI","","html-keyboard-response","64","502746","0.0-1.0-81.0","0","0","85583","","null","","","null","8","","","","","","","","","","","","","","","NaN",""
"","S1","","html-keyboard-response","65","503004","0.0-1.0-83.0","0","0","85583","","null","","","null","9","","","","","","","","","","","","","","","",""
"","ISI","","html-keyboard-response","66","503506","0.0-1.0-84.0","0","0","85583","","236","","","68","9","d","","","","","","","","","","","","","","",""
"","S2","","html-keyboard-response","67","503760","0.0-1.0-85.0","0","0","85583","","null","","","null","9","","NaN","","","","","","","","","","","","","",""
"","response","","html-keyboard-response","68","504065","0.0-1.0-86.0-0.0","0","0","85583","","300","","","75","9","","","1","9","training","adjacent","FE","6","5","L.jpg","O.jpg","1","0","0","",""
"","feedback","","html-keyboard-response","69","505118","0.0-1.0-87.0-0.0","0","0","85583","","null","","","null","9","","","","","","","","","","","","","","","",""
"","time_out","","html-keyboard-response","70","507126","0.0-1.0-89.0-0.0","0","0","85583","","null","","","null","9","","","","","","","","","","","","","","","",""
"","ITI","","html-keyboard-response","71","508130","0.0-1.0-90.0","0","0","85583","","857","","","68","9","","","","","","","","","","","","","","","d",""
"","S1","","html-keyboard-response","72","508384","0.0-1.0-92.0","0","0","85583","","null","","","null","10","","","","","","","","","","","","","","","",""
"","ISI","","html-keyboard-response","73","508890","0.0-1.0-93.0","0","0","85583","","null","","","null","10","NaN","","","","","","","","","","","","","","",""
"","S2","","html-keyboard-response","74","508965","0.0-1.0-94.0","0","0","85583","","71","","","75","10","","k","1","10","training","adjacent","ED","5","4","O.jpg","R.jpg","1","0","0","",""
"","feedback","","html-keyboard-response","75","509973","0.0-1.0-96.0-0.0","0","0","85583","","null","","","null","10","","","","","","","","","","","","","","","",""
"","time_out","","html-keyboard-response","76","511982","0.0-1.0-98.0-0.0","0","0","85583","","null","","","null","10","","","","","","","","","","","","","","","",""
"","ITI","","html-keyboard-response","77","512988","0.0-1.0-99.0","0","0","85583","","null","","","null","10","","","","","","","","","","","","","","","NaN",""
"","S1","","html-keyboard-response","78","513241","0.0-1.0-101.0","0","0","85583","","null","","","null","11","","","","","","","","","","","","","","","",""
"","ISI","","html-keyboard-response","79","513748","0.0-1.0-102.0","0","0","85583","","117","","","68","11","d","","","","","","","","","","","","","","",""
"","S2","","html-keyboard-response","80","513821","0.0-1.0-103.0","0","0","85583","","66","","","75","11","","k","1","11","training","adjacent","CB","3","2","M.jpg","P.jpg","1","0","0","",""
"","feedback","","html-keyboard-response","81","514830","0.0-1.0-105.0-0.0","0","0","85583","","null","","","null","11","","","","","","","","","","","","","","","",""
"","time_out","","html-keyboard-response","82","516851","0.0-1.0-107.0-0.0","0","0","85583","","null","","","null","11","","","","","","","","","","","","","","","",""
"","ITI","","html-keyboard-response","83","517857","0.0-1.0-108.0","0","0","85583","","421","","","68","11","","","","","","","","","","","","","","","d",""
"","S1","","html-keyboard-response","84","518112","0.0-1.0-110.0","0","0","85583","","null","","","null","12","","","","","","","","","","","","","","","",""
"","ISI","","html-keyboard-response","85","518620","0.0-1.0-111.0","0","0","85583","","343","","","68","12","d","","","","","","","","","","","","","","",""
"","S2","","html-keyboard-response","86","518673","0.0-1.0-112.0","0","0","85583","","47","","","75","12","","k","1","12","training","adjacent","DC","4","3","R.jpg","M.jpg","1","0","0","",""
"","feedback","","html-keyboard-response","87","519682","0.0-1.0-114.0-0.0","0","0","85583","","null","","","null","12","","","","","","","","","","","","","","","",""
"","time_out","","html-keyboard-response","88","521689","0.0-1.0-116.0-0.0","0","0","85583","","null","","","null","12","","","","","","","","","","","","","","","",""
"","ITI","","html-keyboard-response","89","522706","0.0-1.0-117.0","0","0","85583","","null","","","null","12","","","","","","","","","","","","","","","NaN",""
"","S1","","html-keyboard-response","90","522961","0.0-1.0-119.0","0","0","85583","","null","","","null","13","","","","","","","","","","","","","","","",""
"","ISI","","html-keyboard-response","91","523465","0.0-1.0-120.0","0","0","85583","","null","","","null","13","NaN","","","","","","","","","","","","","","",""
"","S2","","html-keyboard-response","92","523514","0.0-1.0-121.0","0","0","85583","","44","","","75","13","","k","1","13","training","adjacent","BA","2","1","P.jpg","N.jpg","1","0","0","",""
"","feedback","","html-keyboard-response","93","524524","0.0-1.0-123.0-0.0","0","0","85583","","null","","","null","13","","","","","","","","","","","","","","","",""
"","time_out","","html-keyboard-response","94","526533","0.0-1.0-125.0-0.0","0","0","85583","","null","","","null","13","","","","","","","","","","","","","","","",""
"","ITI","","html-keyboard-response","95","527535","0.0-1.0-126.0","0","0","85583","","null","","","null","13","","","","","","","","","","","","","","","NaN",""
"","S1","","html-keyboard-response","96","527789","0.0-1.0-128.0","0","0","85583","","null","","","null","14","","","","","","","","","","","","","","","",""
"","ISI","","html-keyboard-response","97","528295","0.0-1.0-129.0","0","0","85583","","null","","","null","14","NaN","","","","","","","","","","","","","","",""
"","S2","","html-keyboard-response","98","528551","0.0-1.0-130.0","0","0","85583","","null","","","null","14","","NaN","","","","","","","","","","","","","",""
"","response","","html-keyboard-response","99","528892","0.0-1.0-131.0-0.0","0","0","85583","","337","","","68","14","","","1","14","training","adjacent","ED","5","4","O.jpg","R.jpg","0","0","1","",""
"","feedback","","html-keyboard-response","100","529898","0.0-1.0-132.0-0.0","0","0","85583","","null","","","null","14","","","","","","","","","","","","","","","",""
"","ITI","","html-keyboard-response","101","530904","0.0-1.0-135.0","0","0","85583","","null","","","null","14","","","","","","","","","","","","","","","NaN",""
"","S1","","html-keyboard-response","102","531162","0.0-1.0-137.0","0","0","85583","","null","","","null","15","","","","","","","","","","","","","","","",""
"","ISI","","html-keyboard-response","103","531704","0.0-1.0-138.0","0","0","85583","","null","","","null","15","NaN","","","","","","","","","","","","","","",""
"","S2","","html-keyboard-response","104","531960","0.0-1.0-139.0","0","0","85583","","null","","","null","15","","NaN","","","","","","","","","","","","","",""
"","response","","html-keyboard-response","105","532283","0.0-1.0-140.0-0.0","0","0","85583","","316","","","68","15","","","1","15","training","adjacent","AB","1","2","N.jpg","P.jpg","0","1","0","",""
"","feedback","","html-keyboard-response","106","533291","0.0-1.0-141.0-0.0","0","0","85583","","null","","","null","15","","","","","","","","","","","","","","","",""
"","time_out","","html-keyboard-response","107","535300","0.0-1.0-143.0-0.0","0","0","85583","","null","","","null","15","","","","","","","","","","","","","","","",""
"","ITI","","html-keyboard-response","108","536308","0.0-1.0-144.0","0","0","85583","","null","","","null","15","","","","","","","","","","","","","","","NaN",""
"","S1","","html-keyboard-response","109","536564","0.0-1.0-146.0","0","0","85583","","null","","","null","16","","","","","","","","","","","","","","","",""
"","ISI","","html-keyboard-response","110","537068","0.0-1.0-147.0","0","0","85583","","303","","","68","16","d","","","","","","","","","","","","","","",""
"","S2","","html-keyboard-response","111","537322","0.0-1.0-148.0","0","0","85583","","null","","","null","16","","NaN","","","","","","","","","","","","","",""
"","response","","html-keyboard-response","112","537350","0.0-1.0-149.0-0.0","0","0","85583","","22","","","75","16","","","1","16","training","adjacent","EF","5","6","O.jpg","L.jpg","1","1","1","",""
"","feedback","","html-keyboard-response","113","538362","0.0-1.0-150.0-0.0","0","0","85583","","null","","","null","16","","","","","","","","","","","","","","","",""
"","ITI","","html-keyboard-response","114","539367","0.0-1.0-153.0","0","0","85583","","null","","","null","16","","","","","","","","","","","","","","","NaN",""
"","S1","","html-keyboard-response","115","539622","0.0-1.0-155.0","0","0","85583","","null","","","null","17","","","","","","","","","","","","","","","",""
"","ISI","","html-keyboard-response","116","540128","0.0-1.0-156.0","0","0","85583","","null","","","null","17","NaN","","","","","","","","","","","","","","",""
"","S2","","html-keyboard-response","117","540382","0.0-1.0-157.0","0","0","85583","","null","","","null","17","","NaN","","","","","","","","","","","","","",""
"","response","","html-keyboard-response","118","540714","0.0-1.0-158.0-0.0","0","0","85583","","328","","","68","17","","","1","17","training","adjacent","DE","4","5","R.jpg","O.jpg","0","1","0","",""
"","feedback","","html-keyboard-response","119","541720","0.0-1.0-159.0-0.0","0","0","85583","","null","","","null","17","","","","","","","","","","","","","","","",""
"","time_out","","html-keyboard-response","120","543735","0.0-1.0-161.0-0.0","0","0","85583","","null","","","null","17","","","","","","","","","","","","","","","",""
"","ITI","","html-keyboard-response","121","544755","0.0-1.0-162.0","0","0","85583","","null","","","null","17","","","","","","","","","","","","","","","NaN",""
"","S1","","html-keyboard-response","122","545010","0.0-1.0-164.0","0","0","85583","","null","","","null","18","","","","","","","","","","","","","","","",""
"","ISI","","html-keyboard-response","123","545519","0.0-1.0-165.0","0","0","85583","","null","","","null","18","NaN","","","","","","","","","","","","","","",""
"","S2","","html-keyboard-response","124","545799","0.0-1.0-166.0","0","0","85583","","null","","","null","18","","NaN","","","","","","","","","","","","","",""
"","response","","html-keyboard-response","125","546078","0.0-1.0-167.0-0.0","0","0","85583","","274","","","68","18","","","1","18","training","adjacent","GF","7","6","Q.jpg","L.jpg","0","0","1","",""
"","feedback","","html-keyboard-response","126","547083","0.0-1.0-168.0-0.0","0","0","85583","","null","","","null","18","","","","","","","","","","","","","","","",""
"","ITI","","html-keyboard-response","127","548249","0.0-1.0-171.0","0","0","85583","","null","","","null","18","","","","","","","","","","","","","","","NaN",""
"","S1","","html-keyboard-response","128","548503","0.0-1.0-173.0","0","0","85583","","null","","","null","19","","","","","","","","","","","","","","","",""
"","ISI","","html-keyboard-response","129","549007","0.0-1.0-174.0","0","0","85583","","null","","","null","19","NaN","","","","","","","","","","","","","","",""
"","S2","","html-keyboard-response","130","549264","0.0-1.0-175.0","0","0","85583","","null","","","null","19","","NaN","","","","","","","","","","","","","",""
"","response","","html-keyboard-response","131","549533","0.0-1.0-176.0-0.0","0","0","85583","","265","","","68","19","","","1","19","training","adjacent","CD","3","4","M.jpg","R.jpg","0","1","0","",""
"","feedback","","html-keyboard-response","132","550537","0.0-1.0-177.0-0.0","0","0","85583","","null","","","null","19","","","","","","","","","","","","","","","",""
"","time_out","","html-keyboard-response","133","552543","0.0-1.0-179.0-0.0","0","0","85583","","null","","","null","19","","","","","","","","","","","","","","","",""
"","ITI","","html-keyboard-response","134","553548","0.0-1.0-180.0","0","0","85583","","null","","","null","19","","","","","","","","","","","","","","","NaN",""
"","S1","","html-keyboard-response","135","553804","0.0-1.0-182.0","0","0","85583","","null","","","null","20","","","","","","","","","","","","","","","",""
"","ISI","","html-keyboard-response","136","554309","0.0-1.0-183.0","0","0","85583","","null","","","null","20","NaN","","","","","","","","","","","","","","",""
"","S2","","html-keyboard-response","137","554437","0.0-1.0-184.0","0","0","85583","","123","","","68","20","","d","1","20","training","adjacent","BC","2","3","P.jpg","M.jpg","0","1","0","",""
"","feedback","","html-keyboard-response","138","555446","0.0-1.0-186.0-0.0","0","0","85583","","null","","","null","20","","","","","","","","","","","","","","","",""
"","time_out","","html-keyboard-response","139","557459","0.0-1.0-188.0-0.0","0","0","85583","","null","","","null","20","","","","","","","","","","","","","","","",""
"","ITI","","html-keyboard-response","140","558467","0.0-1.0-189.0","0","0","85583","","552","","","68","20","","","","","","","","","","","","","","","d",""
"","S1","","html-keyboard-response","141","558723","0.0-1.0-191.0","0","0","85583","","null","","","null","21","","","","","","","","","","","","","","","",""
"","ISI","","html-keyboard-response","142","559225","0.0-1.0-192.0","0","0","85583","","162","","","75","21","k","","","","","","","","","","","","","","",""
"","S2","","html-keyboard-response","143","559480","0.0-1.0-193.0","0","0","85583","","null","","","null","21","","NaN","","","","","","","","","","","","","",""
"","response","","html-keyboard-response","144","559726","0.0-1.0-194.0-0.0","0","0","85583","","241","","","68","21","","","1","21","training","adjacent","AB","1","2","N.jpg","P.jpg","0","1","0","",""
"","feedback","","html-keyboard-response","145","560732","0.0-1.0-195.0-0.0","0","0","85583","","null","","","null","21","","","","","","","","","","","","","","","",""
"","time_out","","html-keyboard-response","146","562742","0.0-1.0-197.0-0.0","0","0","85583","","null","","","null","21","","","","","","","","","","","","","","","",""
"","ITI","","html-keyboard-response","147","563759","0.0-1.0-198.0","0","0","85583","","null","","","null","21","","","","","","","","","","","","","","","NaN",""
"","S1","","html-keyboard-response","148","564014","0.0-1.0-200.0","0","0","85583","","null","","","null","22","","","","","","","","","","","","","","","",""
"","ISI","","html-keyboard-response","149","564523","0.0-1.0-201.0","0","0","85583","","null","","","null","22","NaN","","","","","","","","","","","","","","",""
"","S2","","html-keyboard-response","150","564543","0.0-1.0-202.0","0","0","85583","","13","","","68","22","","d","1","22","training","adjacent","BC","2","3","P.jpg","M.jpg","0","1","0","",""
"","feedback","","html-keyboard-response","151","565553","0.0-1.0-204.0-0.0","0","0","85583","","null","","","null","22","","","","","","","","","","","","","","","",""
"","time_out","","html-keyboard-response","152","567571","0.0-1.0-206.0-0.0","0","0","85583","","null","","","null","22","","","","","","","","","","","","","","","",""
"","ITI","","html-keyboard-response","153","568575","0.0-1.0-207.0","0","0","85583","","null","","","null","22","","","","","","","","","","","","","","","NaN",""
"","S1","","html-keyboard-response","154","568828","0.0-1.0-209.0","0","0","85583","","null","","","null","23","","","","","","","","","","","","","","","",""
"","ISI","","html-keyboard-response","155","569336","0.0-1.0-210.0","0","0","85583","","370","","","68","23","d","","","","","","","","","","","","","","",""
"","S2","","html-keyboard-response","156","569556","0.0-1.0-211.0","0","0","85583","","212","","","75","23","","k","1","23","training","adjacent","CD","3","4","M.jpg","R.jpg","1","1","1","",""
"","feedback","","html-keyboard-response","157","570610","0.0-1.0-213.0-0.0","0","0","85583","","null","","","null","23","","","","","","","","","","","","","","","",""
"","ITI","","html-keyboard-response","158","571618","0.0-1.0-216.0","0","0","85583","","null","","","null","23","","","","","","","","","","","","","","","NaN",""
"","S1","","html-keyboard-response","159","571879","0.0-1.0-218.0","0","0","85583","","null","","","null","24","","","","","","","","","","","","","","","",""
"","ISI","","html-keyboard-response","160","572386","0.0-1.0-219.0","0","0","85583","","null","","","null","24","NaN","","","","","","","","","","","","","","",""
"","S2","","html-keyboard-response","161","572495","0.0-1.0-220.0","0","0","85583","","103","","","68","24","","d","1","24","training","adjacent","DE","4","5","R.jpg","O.jpg","0","1","0","",""
"","feedback","","html-keyboard-response","162","573501","0.0-1.0-222.0-0.0","0","0","85583","","null","","","null","24","","","","","","","","","","","","","","","",""
"","time_out","","html-keyboard-response","163","575506","0.0-1.0-224.0-0.0","0","0","85583","","null","","","null","24","","","","","","","","","","","","","","","",""
"","ITI","","html-keyboard-response","164","576511","0.0-1.0-225.0","0","0","85583","","469","","","68","24","","","","","","","","","","","","","","","d",""
"","S1","","html-keyboard-response","165","576871","0.0-1.0-227.0","0","0","85583","","null","","","null","25","","","","","","","","","","","","","","","",""
"","ISI","","html-keyboard-response","166","577377","0.0-1.0-228.0","0","0","85583","","252","","","68","25","d","","","","","","","","","","","","","","",""
"","S2","","html-keyboard-response","167","577632","0.0-1.0-229.0","0","0","85583","","null","","","null","25","","NaN","","","","","","","","","","","","","",""
"","response","","html-keyboard-response","168","578440","0.0-1.0-230.0-0.0","0","0","85583","","804","","","75","25","","","1","25","training","adjacent","ED","5","4","O.jpg","R.jpg","1","0","0","",""
"","feedback","","html-keyboard-response","169","579447","0.0-1.0-231.0-0.0","0","0","85583","","null","","","null","25","","","","","","","","","","","","","","","",""
"","time_out","","html-keyboard-response","170","581461","0.0-1.0-233.0-0.0","0","0","85583","","null","","","null","25","","","","","","","","","","","","","","","",""
"","ITI","","html-keyboard-response","171","582466","0.0-1.0-234.0","0","0","85583","","null","","","null","25","","","","","","","","","","","","","","","NaN",""
"","S1","","html-keyboard-response","172","582720","0.0-1.0-236.0","0","0","85583","","null","","","null","26","","","","","","","","","","","","","","","",""
"","ISI","","html-keyboard-response","173","583232","0.0-1.0-237.0","0","0","85583","","48","","","68","26","d","","","","","","","","","","","","","","",""
"","S2","","html-keyboard-response","174","583293","0.0-1.0-238.0","0","0","85583","","51","","","75","26","","k","1","26","training","adjacent","GF","7","6","Q.jpg","L.jpg","1","0","0","",""
"","feedback","","html-keyboard-response","175","584307","0.0-1.0-240.0-0.0","0","0","85583","","null","","","null","26","","","","","","","","","","","","","","","",""
"","time_out","","html-keyboard-response","176","586313","0.0-1.0-242.0-0.0","0","0","85583","","null","","","null","26","","","","","","","","","","","","","","","",""
"","ITI","","html-keyboard-response","177","587320","0.0-1.0-243.0","0","0","85583","","null","","","null","26","","","","","","","","","","","","","","","NaN",""
"","S1","","html-keyboard-response","178","587576","0.0-1.0-245.0","0","0","85583","","null","","","null","27","","","","","","","","","","","","","","","",""
"","ISI","","html-keyboard-response","179","588083","0.0-1.0-246.0","0","0","85583","","null","","","null","27","NaN","","","","","","","","","","","","","","",""
"","S2","","html-keyboard-response","180","588340","0.0-1.0-247.0","0","0","85583","","null","","","null","27","","NaN","","","","","","","","","","","","","",""
"","response","","html-keyboard-response","181","588351","0.0-1.0-248.0-0.0","0","0","85583","","8","","","68","27","","","1","27","training","adjacent","ED","5","4","O.jpg","R.jpg","0","0","1","",""
"","feedback","","html-keyboard-response","182","589356","0.0-1.0-249.0-0.0","0","0","85583","","null","","","null","27","","","","","","","","","","","","","","","",""
"","ITI","","html-keyboard-response","183","590371","0.0-1.0-252.0","0","0","85583","","null","","","null","27","","","","","","","","","","","","","","","NaN",""
"","S1","","html-keyboard-response","184","590645","0.0-1.0-254.0","0","0","85583","","null","","","null","28","","","","","","","","","","","","","","","",""
"","ISI","","html-keyboard-response","185","591152","0.0-1.0-255.0","0","0","85583","","null","","","null","28","NaN","","","","","","","","","","","","","","",""
"","S2","","html-keyboard-response","186","591285","0.0-1.0-256.0","0","0","85583","","127","","","68","28","","d","1","28","training","adjacent","BA","2","1","P.jpg","N.jpg","0","0","1","",""
"","feedback","","html-keyboard-response","187","592292","0.0-1.0-258.0-0.0","0","0","85583","","null","","","null","28","","","","","","","","","","","","","","","",""
"","ITI","","html-keyboard-response","188","593298","0.0-1.0-261.0","0","0","85583","","null","","","null","28","","","","","","","","","","","","","","","NaN",""
"","S1","","html-keyboard-response","189","593554","0.0-1.0-263.0","0","0","85583","","null","","","null","29","","","","","","","","","","","","","","","",""
"","ISI","","html-keyboard-response","190","594059","0.0-1.0-264.0","0","0","85583","","340","","","68","29","d","","","","","","","","","","","","","","",""
"","S2","","html-keyboard-response","191","594316","0.0-1.0-265.0","0","0","85583","","null","","","null","29","","NaN","","","","","","","","","","","","","",""
"","response","","html-keyboard-response","192","594613","0.0-1.0-266.0-0.0","0","0","85583","","291","","","75","29","","","1","29","training","adjacent","FG","6","7","L.jpg","Q.jpg","1","1","1","",""
"","feedback","","html-keyboard-response","193","595631","0.0-1.0-267.0-0.0","0","0","85583","","null","","","null","29","","","","","","","","","","","","","","","",""
"","ITI","","html-keyboard-response","194","596640","0.0-1.0-270.0","0","0","85583","","null","","","null","29","","","","","","","","","","","","","","","NaN",""
"","S1","","html-keyboard-response","195","596925","0.0-1.0-272.0","0","0","85583","","null","","","null","30","","","","","","","","","","","","","","","",""
"","ISI","","html-keyboard-response","196","597429","0.0-1.0-273.0","0","0","85583","","186","","","68","30","d","","","","","","","","","","","","","","",""
"","S2","","html-keyboard-response","197","597667","0.0-1.0-274.0","0","0","85583","","233","","","68","30","","d","1","30","training","adjacent","CB","3","2","M.jpg","P.jpg","0","0","1","",""
"","feedback","","html-keyboard-response","198","598674","0.0-1.0-276.0-0.0","0","0","85583","","null","","","null","30","","","","","","","","","","","","","","","",""
"","ITI","","html-keyboard-response","199","599678","0.0-1.0-279.0","0","0","85583","","null","","","null","30","","","","","","","","","","","","","","","NaN",""
"","S1","","html-keyboard-response","200","599938","0.0-1.0-281.0","0","0","85583","","null","","","null","31","","","","","","","","","","","","","","","",""
"","ISI","","html-keyboard-response","201","600442","0.0-1.0-282.0","0","0","85583","","163","","","68","31","d","","","","","","","","","","","","","","",""
"","S2","","html-keyboard-response","202","600469","0.0-1.0-283.0","0","0","85583","","22","","","68","31","","d","1","31","training","adjacent","CB","3","2","M.jpg","P.jpg","0","0","1","",""
"","feedback","","html-keyboard-response","203","601474","0.0-1.0-285.0-0.0","0","0","85583","","null","","","null","31","","","","","","","","","","","","","","","",""
"","ITI","","html-keyboard-response","204","602481","0.0-1.0-288.0","0","0","85583","","null","","","null","31","","","","","","","","","","","","","","","NaN",""
"","S1","","html-keyboard-response","205","602741","0.0-1.0-290.0","0","0","85583","","null","","","null","32","","","","","","","","","","","","","","","",""
"","ISI","","html-keyboard-response","206","603247","0.0-1.0-291.0","0","0","85583","","291","","","68","32","d","","","","","","","","","","","","","","",""
"","S2","","html-keyboard-response","207","603504","0.0-1.0-292.0","0","0","85583","","null","","","null","32","","NaN","","","","","","","","","","","","","",""
"","response","","html-keyboard-response","208","603638","0.0-1.0-293.0-0.0","0","0","85583","","129","","","75","32","","","1","32","training","adjacent","AB","1","2","N.jpg","P.jpg","1","1","1","",""
"","feedback","","html-keyboard-response","209","604646","0.0-1.0-294.0-0.0","0","0","85583","","null","","","null","32","","","","","","","","","","","","","","","",""
"","ITI","","html-keyboard-response","210","605651","0.0-1.0-297.0","0","0","85583","","null","","","null","32","","","","","","","","","","","","","","","NaN",""
"","S1","","html-keyboard-response","211","605906","0.0-1.0-299.0","0","0","85583","","null","","","null","33","","","","","","","","","","","","","","","",""
"","ISI","","html-keyboard-response","212","606409","0.0-1.0-300.0","0","0","85583","","486","","","68","33","d","","","","","","","","","","","","","","",""
"","S2","","html-keyboard-response","213","606665","0.0-1.0-301.0","0","0","85583","","null","","","null","33","","NaN","","","","","","","","","","","","","",""
"","response","","html-keyboard-response","214","606734","0.0-1.0-302.0-0.0","0","0","85583","","55","","","75","33","","","1","33","training","adjacent","CB","3","2","M.jpg","P.jpg","1","0","0","",""
"","feedback","","html-keyboard-response","215","607748","0.0-1.0-303.0-0.0","0","0","85583","","null","","","null","33","","","","","","","","","","","","","","","",""
"","time_out","","html-keyboard-response","216","609752","0.0-1.0-305.0-0.0","0","0","85583","","null","","","null","33","","","","","","","","","","","","","","","",""
"","ITI","","html-keyboard-response","217","610768","0.0-1.0-306.0","0","0","85583","","338","","","68","33","","","","","","","","","","","","","","","d",""
"","S1","","html-keyboard-response","218","611022","0.0-1.0-308.0","0","0","85583","","null","","","null","34","","","","","","","","","","","","","","","",""
"","ISI","","html-keyboard-response","219","611525","0.0-1.0-309.0","0","0","85583","","439","","","68","34","d","","","","","","","","","","","","","","",""
"","S2","","html-keyboard-response","220","611668","0.0-1.0-310.0","0","0","85583","","139","","","75","34","","k","1","34","training","adjacent","DC","4","3","R.jpg","M.jpg","1","0","0","",""
"","feedback","","html-keyboard-response","221","612685","0.0-1.0-312.0-0.0","0","0","85583","","null","","","null","34","","","","","","","","","","","","","","","",""
"","time_out","","html-keyboard-response","222","614694","0.0-1.0-314.0-0.0","0","0","85583","","null","","","null","34","","","","","","","","","","","","","","","",""
"","ITI","","html-keyboard-response","223","615702","0.0-1.0-315.0","0","0","85583","","null","","","null","34","","","","","","","","","","","","","","","NaN",""
"","S1","","html-keyboard-response","224","615958","0.0-1.0-317.0","0","0","85583","","null","","","null","35","","","","","","","","","","","","","","","",""
"","ISI","","html-keyboard-response","225","616463","0.0-1.0-318.0","0","0","85583","","null","","","null","35","NaN","","","","","","","","","","","","","","",""
"","S2","","html-keyboard-response","226","616540","0.0-1.0-319.0","0","0","85583","","71","","","68","35","","d","1","35","training","adjacent","FE","6","5","L.jpg","O.jpg","0","0","1","",""
"","feedback","","html-keyboard-response","227","617556","0.0-1.0-321.0-0.0","0","0","85583","","null","","","null","35","","","","","","","","","","","","","","","",""
"","ITI","","html-keyboard-response","228","618560","0.0-1.0-324.0","0","0","85583","","null","","","null","35","","","","","","","","","","","","","","","NaN",""
"","S1","","html-keyboard-response","229","618820","0.0-1.0-326.0","0","0","85583","","null","","","null","36","","","","","","","","","","","","","","","",""
"","ISI","","html-keyboard-response","230","619325","0.0-1.0-327.0","0","0","85583","","null","","","null","36","NaN","","","","","","","","","","","","","","",""
"","S2","","html-keyboard-response","231","619581","0.0-1.0-328.0","0","0","85583","","null","","","null","36","","NaN","","","","","","","","","","","","","",""
"","response","","html-keyboard-response","232","620050","0.0-1.0-329.0-0.0","0","0","85583","","464","","","68","36","","","1","36","training","adjacent","EF","5","6","O.jpg","L.jpg","0","1","0","",""
"","feedback","","html-keyboard-response","233","621054","0.0-1.0-330.0-0.0","0","0","85583","","null","","","null","36","","","","","","","","","","","","","","","",""
"","time_out","","html-keyboard-response","234","623062","0.0-1.0-332.0-0.0","0","0","85583","","null","","","null","36","","","","","","","","","","","","","","","",""
"","ITI","","html-keyboard-response","235","624066","0.0-1.0-333.0","0","0","85583","","335","","","68","36","","","","","","","","","","","","","","","d",""
"","S1","","html-keyboard-response","236","624323","0.0-1.0-335.0","0","0","85583","","null","","","null","37","","","","","","","","","","","","","","","",""
"","ISI","","html-keyboard-response","237","624850","0.0-1.0-336.0","0","0","85583","","339","","","68","37","d","","","","","","","","","","","","","","",""
"","S2","","html-keyboard-response","238","624866","0.0-1.0-337.0","0","0","85583","","11","","","75","37","","k","1","37","training","adjacent","DC","4","3","R.jpg","M.jpg","1","0","0","",""
"","feedback","","html-keyboard-response","239","625873","0.0-1.0-339.0-0.0","0","0","85583","","null","","","null","37","","","","","","","","","","","","","","","",""
"","time_out","","html-keyboard-response","240","627879","0.0-1.0-341.0-0.0","0","0","85583","","null","","","null","37","","","","","","","","","","","","","","","",""
"","ITI","","html-keyboard-response","241","628921","0.0-1.0-342.0","0","0","85583","","41","","","68","37","","","","","","","","","","","","","","","d",""
"","S1","","html-keyboard-response","242","629176","0.0-1.0-344.0","0","0","85583","","null","","","null","38","","","","","","","","","","","","","","","",""
"","ISI","","html-keyboard-response","243","629682","0.0-1.0-345.0","0","0","85583","","321","","","68","38","d","","","","","","","","","","","","","","",""
"","S2","","html-keyboard-response","244","629752","0.0-1.0-346.0","0","0","85583","","61","","","75","38","","k","1","38","training","adjacent","FE","6","5","L.jpg","O.jpg","1","0","0","",""
"","feedback","","html-keyboard-response","245","630767","0.0-1.0-348.0-0.0","0","0","85583","","null","","","null","38","","","","","","","","","","","","","","","",""
"","time_out","","html-keyboard-response","246","632780","0.0-1.0-350.0-0.0","0","0","85583","","null","","","null","38","","","","","","","","","","","","","","","",""
"","ITI","","html-keyboard-response","247","633785","0.0-1.0-351.0","0","0","85583","","75","","","68","38","","","","","","","","","","","","","","","d",""
"","S1","","html-keyboard-response","248","634038","0.0-1.0-353.0","0","0","85583","","null","","","null","39","","","","","","","","","","","","","","","",""
"","ISI","","html-keyboard-response","249","634542","0.0-1.0-354.0","0","0","85583","","8","","","68","39","d","","","","","","","","","","","","","","",""
"","S2","","html-keyboard-response","250","634592","0.0-1.0-355.0","0","0","85583","","43","","","68","39","","d","1","39","training","adjacent","DE","4","5","R.jpg","O.jpg","0","1","0","",""
"","feedback","","html-keyboard-response","251","635599","0.0-1.0-357.0-0.0","0","0","85583","","null","","","null","39","","","","","","","","","","","","","","","",""
"","time_out","","html-keyboard-response","252","637604","0.0-1.0-359.0-0.0","0","0","85583","","null","","","null","39","","","","","","","","","","","","","","","",""
"","ITI","","html-keyboard-response","253","638609","0.0-1.0-360.0","0","0","85583","","null","","","null","39","","","","","","","","","","","","","","","NaN",""
"","S1","","html-keyboard-response","254","638863","0.0-1.0-362.0","0","0","85583","","null","","","null","40","","","","","","","","","","","","","","","",""
"","ISI","","html-keyboard-response","255","639367","0.0-1.0-363.0","0","0","85583","","393","","","68","40","d","","","","","","","","","","","","","","",""
"","S2","","html-keyboard-response","256","639516","0.0-1.0-364.0","0","0","85583","","140","","","68","40","","d","1","40","training","adjacent","GF","7","6","Q.jpg","L.jpg","0","0","1","",""
"","feedback","","html-keyboard-response","257","640527","0.0-1.0-366.0-0.0","0","0","85583","","null","","","null","40","","","","","","","","","","","","","","","",""
"","ITI","","html-keyboard-response","258","641534","0.0-1.0-369.0","0","0","85583","","null","","","null","40","","","","","","","","","","","","","","","NaN",""
"","S1","","html-keyboard-response","259","641793","0.0-1.0-371.0","0","0","85583","","null","","","null","41","","","","","","","","","","","","","","","",""
"","ISI","","html-keyboard-response","260","642297","0.0-1.0-372.0","0","0","85583","","111","","","68","41","d","","","","","","","","","","","","","","",""
"","S2","","html-keyboard-response","261","642342","0.0-1.0-373.0","0","0","85583","","40","","","75","41","","k","1","41","training","adjacent","BA","2","1","P.jpg","N.jpg","1","0","0","",""
"","feedback","","html-keyboard-response","262","643351","0.0-1.0-375.0-0.0","0","0","85583","","null","","","null","41","","","","","","","","","","","","","","","",""
"","time_out","","html-keyboard-response","263","645361","0.0-1.0-377.0-0.0","0","0","85583","","null","","","null","41","","","","","","","","","","","","","","","",""
"","ITI","","html-keyboard-response","264","646365","0.0-1.0-378.0","0","0","85583","","75","","","68","41","","","","","","","","","","","","","","","d",""
"","S1","","html-keyboard-response","265","646620","0.0-1.0-380.0","0","0","85583","","null","","","null","42","","","","","","","","","","","","","","","",""
"","ISI","","html-keyboard-response","266","647126","0.0-1.0-381.0","0","0","85583","","245","","","75","42","k","","","","","","","","","","","","","","",""
"","S2","","html-keyboard-response","267","647383","0.0-1.0-382.0","0","0","85583","","null","","","null","42","","NaN","","","","","","","","","","","","","",""
"","response","","html-keyboard-response","268","647918","0.0-1.0-383.0-0.0","0","0","85583","","528","","","75","42","","","1","42","training","adjacent","CD","3","4","M.jpg","R.jpg","1","1","1","",""
"","feedback","","html-keyboard-response","269","648922","0.0-1.0-384.0-0.0","0","0","85583","","null","","","null","42","","","","","","","","","","","","","","","",""
"","ITI","","html-keyboard-response","270","649928","0.0-1.0-387.0","0","0","85583","","null","","","null","42","","","","","","","","","","","","","","","NaN",""
"","S1","","html-keyboard-response","271","650182","0.0-1.0-389.0","0","0","85583","","null","","","null","43","","","","","","","","","","","","","","","",""
"","ISI","","html-keyboard-response","272","650686","0.0-1.0-390.0","0","0","85583","","490","","","68","43","d","","","","","","","","","","","","","","",""
"","S2","","html-keyboard-response","273","650869","0.0-1.0-391.0","0","0","85583","","179","","","68","43","","d","1","43","training","adjacent","EF","5","6","O.jpg","L.jpg","0","1","0","",""
"","feedback","","html-keyboard-response","274","651889","0.0-1.0-393.0-0.0","0","0","85583","","null","","","null","43","","","","","","","","","","","","","","","",""
"","time_out","","html-keyboard-response","275","653915","0.0-1.0-395.0-0.0","0","0","85583","","null","","","null","43","","","","","","","","","","","","","","","",""
"","ITI","","html-keyboard-response","276","654941","0.0-1.0-396.0","0","0","85583","","39","","","68","43","","","","","","","","","","","","","","","d",""
"","S1","","html-keyboard-response","277","655198","0.0-1.0-398.0","0","0","85583","","null","","","null","44","","","","","","","","","","","","","","","",""
"","ISI","","html-keyboard-response","278","655704","0.0-1.0-399.0","0","0","85583","","336","","","68","44","d","","","","","","","","","","","","","","",""
"","S2","","html-keyboard-response","279","655767","0.0-1.0-400.0","0","0","85583","","56","","","68","44","","d","1","44","training","adjacent","DC","4","3","R.jpg","M.jpg","0","0","1","",""
"","feedback","","html-keyboard-response","280","656772","0.0-1.0-402.0-0.0","0","0","85583","","null","","","null","44","","","","","","","","","","","","","","","",""
"","ITI","","html-keyboard-response","281","657779","0.0-1.0-405.0","0","0","85583","","null","","","null","44","","","","","","","","","","","","","","","NaN",""
"","S1","","html-keyboard-response","282","658034","0.0-1.0-407.0","0","0","85583","","null","","","null","45","","","","","","","","","","","","","","","",""
"","ISI","","html-keyboard-response","283","658569","0.0-1.0-408.0","0","0","85583","","381","","","68","45","d","","","","","","","","","","","","","","",""
"","S2","","html-keyboard-response","284","658661","0.0-1.0-409.0","0","0","85583","","86","","","68","45","","d","1","45","training","adjacent","GF","7","6","Q.jpg","L.jpg","0","0","1","",""
"","feedback","","html-keyboard-response","285","659691","0.0-1.0-411.0-0.0","0","0","85583","","null","","","null","45","","","","","","","","","","","","","","","",""
"","ITI","","html-keyboard-response","286","660695","0.0-1.0-414.0","0","0","85583","","null","","","null","45","","","","","","","","","","","","","","","NaN",""
"","S1","","html-keyboard-response","287","660952","0.0-1.0-416.0","0","0","85583","","null","","","null","46","","","","","","","","","","","","","","","",""
"","ISI","","html-keyboard-response","288","661457","0.0-1.0-417.0","0","0","85583","","203","","","68","46","d","","","","","","","","","","","","","","",""
"","S2","","html-keyboard-response","289","661604","0.0-1.0-418.0","0","0","85583","","140","","","68","46","","d","1","46","training","adjacent","DE","4","5","R.jpg","O.jpg","0","1","0","",""
"","feedback","","html-keyboard-response","290","662610","0.0-1.0-420.0-0.0","0","0","85583","","null","","","null","46","","","","","","","","","","","","","","","",""
"","time_out","","html-keyboard-response","291","664618","0.0-1.0-422.0-0.0","0","0","85583","","null","","","null","46","","","","","","","","","","","","","","","",""
"","ITI","","html-keyboard-response","292","665622","0.0-1.0-423.0","0","0","85583","","142","","","75","46","","","","","","","","","","","","","","","k",""
"","S1","","html-keyboard-response","293","665882","0.0-1.0-425.0","0","0","85583","","null","","","null","47","","","","","","","","","","","","","","","",""
"","ISI","","html-keyboard-response","294","666391","0.0-1.0-426.0","0","0","85583","","280","","","68","47","d","","","","","","","","","","","","","","",""
"","S2","","html-keyboard-response","295","666500","0.0-1.0-427.0","0","0","85583","","104","","","75","47","","k","1","47","training","adjacent","BC","2","3","P.jpg","M.jpg","1","1","1","",""
"","feedback","","html-keyboard-response","296","667508","0.0-1.0-429.0-0.0","0","0","85583","","null","","","null","47","","","","","","","","","","","","","","","",""
"","ITI","","html-keyboard-response","297","668514","0.0-1.0-432.0","0","0","85583","","null","","","null","47","","","","","","","","","","","","","","","NaN",""
"","block_over","","html-keyboard-response","298","695071","0.0-1.0-433.0-0.0","0","0","85583","","26544","","","32","47","","","","","","","","","","","","","","","",""
"","S1","","html-keyboard-response","299","695327","0.0-1.0-434.0","0","0","85583","","null","","","null","48","","","","","","","","","","","","","","","",""
"","ISI","","html-keyboard-response","300","695833","0.0-1.0-435.0","0","0","85583","","null","","","null","48","NaN","","","","","","","","","","","","","","",""
"","S2","","html-keyboard-response","301","696088","0.0-1.0-436.0","0","0","85583","","null","","","null","48","","NaN","","","","","","","","","","","","","",""
"","response","","html-keyboard-response","302","697183","0.0-1.0-437.0-0.0","0","0","85583","","1087","","","68","48","","","2","48","training","adjacent","CD","3","4","M.jpg","R.jpg","0","1","0","",""
"","feedback","","html-keyboard-response","303","698188","0.0-1.0-438.0-0.0","0","0","85583","","null","","","null","48","","","","","","","","","","","","","","","",""
"","time_out","","html-keyboard-response","304","700193","0.0-1.0-440.0-0.0","0","0","85583","","null","","","null","48","","","","","","","","","","","","","","","",""
"","ITI","","html-keyboard-response","305","701198","0.0-1.0-441.0","0","0","85583","","327","","","68","48","","","","","","","","","","","","","","","d",""
"","S1","","html-keyboard-response","306","701454","0.0-1.0-443.0","0","0","85583","","null","","","null","49","","","","","","","","","","","","","","","",""
"","ISI","","html-keyboard-response","307","701978","0.0-1.0-444.0","0","0","85583","","389","","","75","49","k","","","","","","","","","","","","","","",""
"","S2","","html-keyboard-response","308","702126","0.0-1.0-445.0","0","0","85583","","143","","","68","49","","d","2","49","training","adjacent","DE","4","5","R.jpg","O.jpg","0","1","0","",""
"","feedback","","html-keyboard-response","309","703223","0.0-1.0-447.0-0.0","0","0","85583","","null","","","null","49","","","","","","","","","","","","","","","",""
"","time_out","","html-keyboard-response","310","705233","0.0-1.0-449.0-0.0","0","0","85583","","null","","","null","49","","","","","","","","","","","","","","","",""
"","ITI","","html-keyboard-response","311","706240","0.0-1.0-450.0","0","0","85583","","null","","","null","49","","","","","","","","","","","","","","","NaN",""
"","S1","","html-keyboard-response","312","706497","0.0-1.0-452.0","0","0","85583","","null","","","null","50","","","","","","","","","","","","","","","",""
"","ISI","","html-keyboard-response","313","707017","0.0-1.0-453.0","0","0","85583","","329","","","68","50","d","","","","","","","","","","","","","","",""
"","S2","","html-keyboard-response","314","707193","0.0-1.0-454.0","0","0","85583","","172","","","68","50","","d","2","50","training","adjacent","BA","2","1","P.jpg","N.jpg","0","0","1","",""
"","feedback","","html-keyboard-response","315","708199","0.0-1.0-456.0-0.0","0","0","85583","","null","","","null","50","","","","","","","","","","","","","","","",""
"","ITI","","html-keyboard-response","316","709207","0.0-1.0-459.0","0","0","85583","","null","","","null","50","","","","","","","","","","","","","","","NaN",""
"","S1","","html-keyboard-response","317","709467","0.0-1.0-461.0","0","0","85583","","null","","","null","51","","","","","","","","","","","","","","","",""
"","ISI","","html-keyboard-response","318","709973","0.0-1.0-462.0","0","0","85583","","257","","","68","51","d","","","","","","","","","","","","","","",""
"","S2","","html-keyboard-response","319","709998","0.0-1.0-463.0","0","0","85583","","22","","","68","51","","d","2","51","training","adjacent","CB","3","2","M.jpg","P.jpg","0","0","1","",""
"","feedback","","html-keyboard-response","320","711003","0.0-1.0-465.0-0.0","0","0","85583","","null","","","null","51","","","","","","","","","","","","","","","",""
"","ITI","","html-keyboard-response","321","712008","0.0-1.0-468.0","0","0","85583","","812","","","68","51","","","","","","","","","","","","","","","d",""
"","S1","","html-keyboard-response","322","712263","0.0-1.0-470.0","0","0","85583","","null","","","null","52","","","","","","","","","","","","","","","",""
"","ISI","","html-keyboard-response","323","712768","0.0-1.0-471.0","0","0","85583","","146","","","68","52","d","","","","","","","","","","","","","","",""
"","S2","","html-keyboard-response","324","712960","0.0-1.0-472.0","0","0","85583","","189","","","75","52","","k","2","52","training","adjacent","EF","5","6","O.jpg","L.jpg","1","1","1","",""
"","feedback","","html-keyboard-response","325","713967","0.0-1.0-474.0-0.0","0","0","85583","","null","","","null","52","","","","","","","","","","","","","","","",""
"","ITI","","html-keyboard-response","326","714980","0.0-1.0-477.0","0","0","85583","","null","","","null","52","","","","","","","","","","","","","","","NaN",""
"","S1","","html-keyboard-response","327","715236","0.0-1.0-479.0","0","0","85583","","null","","","null","53","","","","","","","","","","","","","","","",""
"","ISI","","html-keyboard-response","328","715743","0.0-1.0-480.0","0","0","85583","","null","","","null","53","NaN","","","","","","","","","","","","","","",""
"","S2","","html-keyboard-response","329","715859","0.0-1.0-481.0","0","0","85583","","111","","","68","53","","d","2","53","training","adjacent","BC","2","3","P.jpg","M.jpg","0","1","0","",""
"","feedback","","html-keyboard-response","330","716942","0.0-1.0-483.0-0.0","0","0","85583","","null","","","null","53","","","","","","","","","","","","","","","",""
"","time_out","","html-keyboard-response","331","718949","0.0-1.0-485.0-0.0","0","0","85583","","null","","","null","53","","","","","","","","","","","","","","","",""
"","ITI","","html-keyboard-response","332","719956","0.0-1.0-486.0","0","0","85583","","120","","","68","53","","","","","","","","","","","","","","","d",""
"","S1","","html-keyboard-response","333","720214","0.0-1.0-488.0","0","0","85583","","null","","","null","54","","","","","","","","","","","","","","","",""
"","ISI","","html-keyboard-response","334","720717","0.0-1.0-489.0","0","0","85583","","179","","","68","54","d","","","","","","","","","","","","","","",""
"","S2","","html-keyboard-response","335","720801","0.0-1.0-490.0","0","0","85583","","78","","","75","54","","k","2","54","training","adjacent","BC","2","3","P.jpg","M.jpg","1","1","1","",""
"","feedback","","html-keyboard-response","336","721811","0.0-1.0-492.0-0.0","0","0","85583","","null","","","null","54","","","","","","","","","","","","","","","",""
"","ITI","","html-keyboard-response","337","722819","0.0-1.0-495.0","0","0","85583","","null","","","null","54","","","","","","","","","","","","","","","NaN",""
"","S1","","html-keyboard-response","338","723079","0.0-1.0-497.0","0","0","85583","","null","","","null","55","","","","","","","","","","","","","","","",""
"","ISI","","html-keyboard-response","339","723583","0.0-1.0-498.0","0","0","85583","","299","","","68","55","d","","","","","","","","","","","","","","",""
"","S2","","html-keyboard-response","340","723608","0.0-1.0-499.0","0","0","85583","","20","","","68","55","","d","2","55","training","adjacent","DE","4","5","R.jpg","O.jpg","0","1","0","",""
"","feedback","","html-keyboard-response","341","724613","0.0-1.0-501.0-0.0","0","0","85583","","null","","","null","55","","","","","","","","","","","","","","","",""
"","time_out","","html-keyboard-response","342","726621","0.0-1.0-503.0-0.0","0","0","85583","","null","","","null","55","","","","","","","","","","","","","","","",""
"","ITI","","html-keyboard-response","343","727626","0.0-1.0-504.0","0","0","85583","","534","","","68","55","","","","","","","","","","","","","","","d",""
"","S1","","html-keyboard-response","344","727901","0.0-1.0-506.0","0","0","85583","","null","","","null","56","","","","","","","","","","","","","","","",""
"","ISI","","html-keyboard-response","345","728405","0.0-1.0-507.0","0","0","85583","","334","","","75","56","k","","","","","","","","","","","","","","",""
"","S2","","html-keyboard-response","346","728647","0.0-1.0-508.0","0","0","85583","","234","","","75","56","","k","2","56","training","adjacent","GF","7","6","Q.jpg","L.jpg","1","0","0","",""
"","feedback","","html-keyboard-response","347","729658","0.0-1.0-510.0-0.0","0","0","85583","","null","","","null","56","","","","","","","","","","","","","","","",""
"","time_out","","html-keyboard-response","348","731691","0.0-1.0-512.0-0.0","0","0","85583","","null","","","null","56","","","","","","","","","","","","","","","",""
"","ITI","","html-keyboard-response","349","732696","0.0-1.0-513.0","0","0","85583","","113","","","68","56","","","","","","","","","","","","","","","d",""
"","S1","","html-keyboard-response","350","732950","0.0-1.0-515.0","0","0","85583","","null","","","null","57","","","","","","","","","","","","","","","",""
"","ISI","","html-keyboard-response","351","733456","0.0-1.0-516.0","0","0","85583","","218","","","68","57","d","","","","","","","","","","","","","","",""
"","S2","","html-keyboard-response","352","733711","0.0-1.0-517.0","0","0","85583","","null","","","null","57","","NaN","","","","","","","","","","","","","",""
"","response","","html-keyboard-response","353","734169","0.0-1.0-518.0-0.0","0","0","85583","","452","","","75","57","","","2","57","training","adjacent","GF","7","6","Q.jpg","L.jpg","1","0","0","",""
"","feedback","","html-keyboard-response","354","735177","0.0-1.0-519.0-0.0","0","0","85583","","null","","","null","57","","","","","","","","","","","","","","","",""
"","time_out","","html-keyboard-response","355","737186","0.0-1.0-521.0-0.0","0","0","85583","","null","","","null","57","","","","","","","","","","","","","","","",""
"","ITI","","html-keyboard-response","356","738190","0.0-1.0-522.0","0","0","85583","","31","","","68","57","","","","","","","","","","","","","","","d",""
"","S1","","html-keyboard-response","357","738446","0.0-1.0-524.0","0","0","85583","","null","","","null","58","","","","","","","","","","","","","","","",""
"","ISI","","html-keyboard-response","358","738949","0.0-1.0-525.0","0","0","85583","","37","","","68","58","d","","","","","","","","","","","","","","",""
"","S2","","html-keyboard-response","359","738977","0.0-1.0-526.0","0","0","85583","","21","","","68","58","","d","2","58","training","adjacent","BA","2","1","P.jpg","N.jpg","0","0","1","",""
"","feedback","","html-keyboard-response","360","739985","0.0-1.0-528.0-0.0","0","0","85583","","null","","","null","58","","","","","","","","","","","","","","","",""
"","ITI","","html-keyboard-response","361","740990","0.0-1.0-531.0","0","0","85583","","969","","","68","58","","","","","","","","","","","","","","","d",""
"","S1","","html-keyboard-response","362","741246","0.0-1.0-533.0","0","0","85583","","null","","","null","59","","","","","","","","","","","","","","","",""
"","ISI","","html-keyboard-response","363","741757","0.0-1.0-534.0","0","0","85583","","20","","","68","59","d","","","","","","","","","","","","","","",""
"","S2","","html-keyboard-response","364","741769","0.0-1.0-535.0","0","0","85583","","0","","","68","59","","d","2","59","training","adjacent","CD","3","4","M.jpg","R.jpg","0","1","0","",""
"","feedback","","html-keyboard-response","365","742776","0.0-1.0-537.0-0.0","0","0","85583","","null","","","null","59","","","","","","","","","","","","","","","",""
"","time_out","","html-keyboard-response","366","744783","0.0-1.0-539.0-0.0","0","0","85583","","null","","","null","59","","","","","","","","","","","","","","","",""
"","ITI","","html-keyboard-response","367","745787","0.0-1.0-540.0","0","0","85583","","263","","","68","59","","","","","","","","","","","","","","","d",""
"","S1","","html-keyboard-response","368","746043","0.0-1.0-542.0","0","0","85583","","null","","","null","60","","","","","","","","","","","","","","","",""
"","ISI","","html-keyboard-response","369","746557","0.0-1.0-543.0","0","0","85583","","265","","","68","60","d","","","","","","","","","","","","","","",""
"","S2","","html-keyboard-response","370","746737","0.0-1.0-544.0","0","0","85583","","166","","","68","60","","d","2","60","training","adjacent","CD","3","4","M.jpg","R.jpg","0","1","0","",""
"","feedback","","html-keyboard-response","371","747748","0.0-1.0-546.0-0.0","0","0","85583","","null","","","null","60","","","","","","","","","","","","","","","",""
"","time_out","","html-keyboard-response","372","749778","0.0-1.0-548.0-0.0","0","0","85583","","null","","","null","60","","","","","","","","","","","","","","","",""
"","ITI","","html-keyboard-response","373","750789","0.0-1.0-549.0","0","0","85583","","521","","","68","60","","","","","","","","","","","","","","","d",""
"","S1","","html-keyboard-response","374","751047","0.0-1.0-551.0","0","0","85583","","null","","","null","61","","","","","","","","","","","","","","","",""
"","ISI","","html-keyboard-response","375","751553","0.0-1.0-552.0","0","0","85583","","407","","","68","61","d","","","","","","","","","","","","","","",""
"","S2","","html-keyboard-response","376","751832","0.0-1.0-553.0","0","0","85583","","null","","","null","61","","NaN","","","","","","","","","","","","","",""
"","response","","html-keyboard-response","377","751838","0.0-1.0-554.0-0.0","0","0","85583","","2","","","68","61","","","2","61","training","adjacent","GF","7","6","Q.jpg","L.jpg","0","0","1","",""
"","feedback","","html-keyboard-response","378","752845","0.0-1.0-555.0-0.0","0","0","85583","","null","","","null","61","","","","","","","","","","","","","","","",""
"","ITI","","html-keyboard-response","379","753998","0.0-1.0-558.0","0","0","85583","","null","","","null","61","","","","","","","","","","","","","","","NaN",""
"","S1","","html-keyboard-response","380","754254","0.0-1.0-560.0","0","0","85583","","null","","","null","62","","","","","","","","","","","","","","","",""
"","ISI","","html-keyboard-response","381","754763","0.0-1.0-561.0","0","0","85583","","null","","","null","62","NaN","","","","","","","","","","","","","","",""
"","S2","","html-keyboard-response","382","755021","0.0-1.0-562.0","0","0","85583","","null","","","null","62","","NaN","","","","","","","","","","","","","",""
"","response","","html-keyboard-response","383","755359","0.0-1.0-563.0-0.0","0","0","85583","","332","","","68","62","","","2","62","training","adjacent","FE","6","5","L.jpg","O.jpg","0","0","1","",""
"","feedback","","html-keyboard-response","384","756370","0.0-1.0-564.0-0.0","0","0","85583","","null","","","null","62","","","","","","","","","","","","","","","",""
"","ITI","","html-keyboard-response","385","757376","0.0-1.0-567.0","0","0","85583","","null","","","null","62","","","","","","","","","","","","","","","NaN",""
"","S1","","html-keyboard-response","386","757629","0.0-1.0-569.0","0","0","85583","","null","","","null","63","","","","","","","","","","","","","","","",""
"","ISI","","html-keyboard-response","387","758134","0.0-1.0-570.0","0","0","85583","","null","","","null","63","NaN","","","","","","","","","","","","","","",""
"","S2","","html-keyboard-response","388","758389","0.0-1.0-571.0","0","0","85583","","null","","","null","63","","NaN","","","","","","","","","","","","","",""
"","response","","html-keyboard-response","389","758503","0.0-1.0-572.0-0.0","0","0","85583","","109","","","68","63","","","2","63","training","adjacent","ED","5","4","O.jpg","R.jpg","0","0","1","",""
"","feedback","","html-keyboard-response","390","759510","0.0-1.0-573.0-0.0","0","0","85583","","null","","","null","63","","","","","","","","","","","","","","","",""
"","ITI","","html-keyboard-response","391","760515","0.0-1.0-576.0","0","0","85583","","null","","","null","63","","","","","","","","","","","","","","","NaN",""
"","S1","","html-keyboard-response","392","760773","0.0-1.0-578.0","0","0","85583","","null","","","null","64","","","","","","","","","","","","","","","",""
"","ISI","","html-keyboard-response","393","761277","0.0-1.0-579.0","0","0","85583","","null","","","null","64","NaN","","","","","","","","","","","","","","",""
"","S2","","html-keyboard-response","394","761537","0.0-1.0-580.0","0","0","85583","","null","","","null","64","","NaN","","","","","","","","","","","","","",""
"","response","","html-keyboard-response","395","762227","0.0-1.0-581.0-0.0","0","0","85583","","683","","","68","64","","","2","64","training","adjacent","AB","1","2","N.jpg","P.jpg","0","1","0","",""
"","feedback","","html-keyboard-response","396","763234","0.0-1.0-582.0-0.0","0","0","85583","","null","","","null","64","","","","","","","","","","","","","","","",""
"","time_out","","html-keyboard-response","397","765244","0.0-1.0-584.0-0.0","0","0","85583","","null","","","null","64","","","","","","","","","","","","","","","",""
"","ITI","","html-keyboard-response","398","766253","0.0-1.0-585.0","0","0","85583","","null","","","null","64","","","","","","","","","","","","","","","NaN",""
"","S1","","html-keyboard-response","399","766509","0.0-1.0-587.0","0","0","85583","","null","","","null","65","","","","","","","","","","","","","","","",""
"","ISI","","html-keyboard-response","400","767011","0.0-1.0-588.0","0","0","85583","","null","","","null","65","NaN","","","","","","","","","","","","","","",""
"","S2","","html-keyboard-response","401","767267","0.0-1.0-589.0","0","0","85583","","null","","","null","65","","NaN","","","","","","","","","","","","","",""
"","response","","html-keyboard-response","402","767849","0.0-1.0-590.0-0.0","0","0","85583","","578","","","68","65","","","2","65","training","adjacent","CB","3","2","M.jpg","P.jpg","0","0","1","",""
"","feedback","","html-keyboard-response","403","768854","0.0-1.0-591.0-0.0","0","0","85583","","null","","","null","65","","","","","","","","","","","","","","","",""
"","ITI","","html-keyboard-response","404","769859","0.0-1.0-594.0","0","0","85583","","null","","","null","65","","","","","","","","","","","","","","","NaN",""
"","S1","","html-keyboard-response","405","770112","0.0-1.0-596.0","0","0","85583","","null","","","null","66","","","","","","","","","","","","","","","",""
"","ISI","","html-keyboard-response","406","770616","0.0-1.0-597.0","0","0","85583","","null","","","null","66","NaN","","","","","","","","","","","","","","",""
"","S2","","html-keyboard-response","407","770800","0.0-1.0-598.0","0","0","85583","","178","","","75","66","","k","2","66","training","adjacent","ED","5","4","O.jpg","R.jpg","1","0","0","",""
"","feedback","","html-keyboard-response","408","771811","0.0-1.0-600.0-0.0","0","0","85583","","null","","","null","66","","","","","","","","","","","","","","","",""
"","time_out","","html-keyboard-response","409","773824","0.0-1.0-602.0-0.0","0","0","85583","","null","","","null","66","","","","","","","","","","","","","","","",""
"","ITI","","html-keyboard-response","410","774829","0.0-1.0-603.0","0","0","85583","","null","","","null","66","","","","","","","","","","","","","","","NaN",""
"","S1","","html-keyboard-response","411","775084","0.0-1.0-605.0","0","0","85583","","null","","","null","67","","","","","","","","","","","","","","","",""
"","ISI","","html-keyboard-response","412","775589","0.0-1.0-606.0","0","0","85583","","null","","","null","67","NaN","","","","","","","","","","","","","","",""
"","S2","","html-keyboard-response","413","775887","0.0-1.0-607.0","0","0","85583","","null","","","null","67","","NaN","","","","","","","","","","","","","",""
"","response","","html-keyboard-response","414","775970","0.0-1.0-608.0-0.0","0","0","85583","","73","","","68","67","","","2","67","training","adjacent","DE","4","5","R.jpg","O.jpg","0","1","0","",""
"","feedback","","html-keyboard-response","415","776980","0.0-1.0-609.0-0.0","0","0","85583","","null","","","null","67","","","","","","","","","","","","","","","",""
"","time_out","","html-keyboard-response","416","778986","0.0-1.0-611.0-0.0","0","0","85583","","null","","","null","67","","","","","","","","","","","","","","","",""
"","ITI","","html-keyboard-response","417","779997","0.0-1.0-612.0","0","0","85583","","null","","","null","67","","","","","","","","","","","","","","","NaN",""
"","S1","","html-keyboard-response","418","780251","0.0-1.0-614.0","0","0","85583","","null","","","null","68","","","","","","","","","","","","","","","",""
"","ISI","","html-keyboard-response","419","780756","0.0-1.0-615.0","0","0","85583","","null","","","null","68","NaN","","","","","","","","","","","","","","",""
"","S2","","html-keyboard-response","420","780770","0.0-1.0-616.0","0","0","85583","","10","","","68","68","","d","2","68","training","adjacent","EF","5","6","O.jpg","L.jpg","0","1","0","",""
"","feedback","","html-keyboard-response","421","781782","0.0-1.0-618.0-0.0","0","0","85583","","null","","","null","68","","","","","","","","","","","","","","","",""
"","time_out","","html-keyboard-response","422","783803","0.0-1.0-620.0-0.0","0","0","85583","","null","","","null","68","","","","","","","","","","","","","","","",""
"","ITI","","html-keyboard-response","423","784811","0.0-1.0-621.0","0","0","85583","","null","","","null","68","","","","","","","","","","","","","","","NaN",""
"","S1","","html-keyboard-response","424","785068","0.0-1.0-623.0","0","0","85583","","null","","","null","69","","","","","","","","","","","","","","","",""
"","ISI","","html-keyboard-response","425","785573","0.0-1.0-624.0","0","0","85583","","434","","","68","69","d","","","","","","","","","","","","","","",""
"","S2","","html-keyboard-response","426","785839","0.0-1.0-625.0","0","0","85583","","null","","","null","69","","NaN","","","","","","","","","","","","","",""
"","response","","html-keyboard-response","427","785958","0.0-1.0-626.0-0.0","0","0","85583","","109","","","68","69","","","2","69","training","adjacent","EF","5","6","O.jpg","L.jpg","0","1","0","",""
"","feedback","","html-keyboard-response","428","786964","0.0-1.0-627.0-0.0","0","0","85583","","null","","","null","69","","","","","","","","","","","","","","","",""
"","time_out","","html-keyboard-response","429","788970","0.0-1.0-629.0-0.0","0","0","85583","","null","","","null","69","","","","","","","","","","","","","","","",""
"","ITI","","html-keyboard-response","430","789973","0.0-1.0-630.0","0","0","85583","","null","","","null","69","","","","","","","","","","","","","","","NaN",""
"","S1","","html-keyboard-response","431","790227","0.0-1.0-632.0","0","0","85583","","null","","","null","70","","","","","","","","","","","","","","","",""
"","ISI","","html-keyboard-response","432","790732","0.0-1.0-633.0","0","0","85583","","null","","","null","70","NaN","","","","","","","","","","","","","","",""
"","S2","","html-keyboard-response","433","790980","0.0-1.0-634.0","0","0","85583","","243","","","68","70","","d","2","70","training","adjacent","BA","2","1","P.jpg","N.jpg","0","0","1","",""
"","feedback","","html-keyboard-response","434","791985","0.0-1.0-636.0-0.0","0","0","85583","","null","","","null","70","","","","","","","","","","","","","","","",""
"","ITI","","html-keyboard-response","435","792990","0.0-1.0-639.0","0","0","85583","","null","","","null","70","","","","","","","","","","","","","","","NaN",""
"","S1","","html-keyboard-response","436","793243","0.0-1.0-641.0","0","0","85583","","null","","","null","71","","","","","","","","","","","","","","","",""
"","ISI","","html-keyboard-response","437","793750","0.0-1.0-642.0","0","0","85583","","null","","","null","71","NaN","","","","","","","","","","","","","","",""
"","S2","","html-keyboard-response","438","794006","0.0-1.0-643.0","0","0","85583","","null","","","null","71","","NaN","","","","","","","","","","","","","",""
"","response","","html-keyboard-response","439","794406","0.0-1.0-644.0-0.0","0","0","85583","","396","","","75","71","","","2","71","training","adjacent","AB","1","2","N.jpg","P.jpg","1","1","1","",""
"","feedback","","html-keyboard-response","440","795412","0.0-1.0-645.0-0.0","0","0","85583","","null","","","null","71","","","","","","","","","","","","","","","",""
"","ITI","","html-keyboard-response","441","796420","0.0-1.0-648.0","0","0","85583","","null","","","null","71","","","","","","","","","","","","","","","NaN",""
"","S1","","html-keyboard-response","442","796675","0.0-1.0-650.0","0","0","85583","","null","","","null","72","","","","","","","","","","","","","","","",""
"","ISI","","html-keyboard-response","443","797181","0.0-1.0-651.0","0","0","85583","","null","","","null","72","NaN","","","","","","","","","","","","","","",""
"","S2","","html-keyboard-response","444","797256","0.0-1.0-652.0","0","0","85583","","68","","","68","72","","d","2","72","training","adjacent","ED","5","4","O.jpg","R.jpg","0","0","1","",""
"","feedback","","html-keyboard-response","445","798266","0.0-1.0-654.0-0.0","0","0","85583","","null","","","null","72","","","","","","","","","","","","","","","",""
"","ITI","","html-keyboard-response","446","799279","0.0-1.0-657.0","0","0","85583","","null","","","null","72","","","","","","","","","","","","","","","NaN",""
"","S1","","html-keyboard-response","447","799537","0.0-1.0-659.0","0","0","85583","","null","","","null","73","","","","","","","","","","","","","","","",""
"","ISI","","html-keyboard-response","448","800041","0.0-1.0-660.0","0","0","85583","","469","","","68","73","d","","","","","","","","","","","","","","",""
"","S2","","html-keyboard-response","449","800297","0.0-1.0-661.0","0","0","85583","","null","","","null","73","","NaN","","","","","","","","","","","","","",""
"","response","","html-keyboard-response","450","800438","0.0-1.0-662.0-0.0","0","0","85583","","136","","","68","73","","","2","73","training","adjacent","AB","1","2","N.jpg","P.jpg","0","1","0","",""
"","feedback","","html-keyboard-response","451","801442","0.0-1.0-663.0-0.0","0","0","85583","","null","","","null","73","","","","","","","","","","","","","","","",""
"","time_out","","html-keyboard-response","452","803447","0.0-1.0-665.0-0.0","0","0","85583","","null","","","null","73","","","","","","","","","","","","","","","",""
"","ITI","","html-keyboard-response","453","804451","0.0-1.0-666.0","0","0","85583","","null","","","null","73","","","","","","","","","","","","","","","NaN",""
"","S1","","html-keyboard-response","454","804707","0.0-1.0-668.0","0","0","85583","","null","","","null","74","","","","","","","","","","","","","","","",""
"","ISI","","html-keyboard-response","455","805212","0.0-1.0-669.0","0","0","85583","","276","","","68","74","d","","","","","","","","","","","","","","",""
"","S2","","html-keyboard-response","456","805380","0.0-1.0-670.0","0","0","85583","","162","","","68","74","","d","2","74","training","adjacent","CB","3","2","M.jpg","P.jpg","0","0","1","",""
"","feedback","","html-keyboard-response","457","806387","0.0-1.0-672.0-0.0","0","0","85583","","null","","","null","74","","","","","","","","","","","","","","","",""
"","ITI","","html-keyboard-response","458","807394","0.0-1.0-675.0","0","0","85583","","null","","","null","74","","","","","","","","","","","","","","","NaN",""
"","S1","","html-keyboard-response","459","807660","0.0-1.0-677.0","0","0","85583","","null","","","null","75","","","","","","","","","","","","","","","",""
"","ISI","","html-keyboard-response","460","808169","0.0-1.0-678.0","0","0","85583","","null","","","null","75","NaN","","","","","","","","","","","","","","",""
"","S2","","html-keyboard-response","461","808422","0.0-1.0-679.0","0","0","85583","","null","","","null","75","","NaN","","","","","","","","","","","","","",""
"","response","","html-keyboard-response","462","808736","0.0-1.0-680.0-0.0","0","0","85583","","308","","","75","75","","","2","75","training","adjacent","FG","6","7","L.jpg","Q.jpg","1","1","1","",""
"","feedback","","html-keyboard-response","463","809768","0.0-1.0-681.0-0.0","0","0","85583","","null","","","null","75","","","","","","","","","","","","","","","",""
"","ITI","","html-keyboard-response","464","810773","0.0-1.0-684.0","0","0","85583","","null","","","null","75","","","","","","","","","","","","","","","NaN",""
"","S1","","html-keyboard-response","465","811029","0.0-1.0-686.0","0","0","85583","","null","","","null","76","","","","","","","","","","","","","","","",""
"","ISI","","html-keyboard-response","466","811545","0.0-1.0-687.0","0","0","85583","","null","","","null","76","NaN","","","","","","","","","","","","","","",""
"","S2","","html-keyboard-response","467","811715","0.0-1.0-688.0","0","0","85583","","164","","","75","76","","k","2","76","training","adjacent","CB","3","2","M.jpg","P.jpg","1","0","0","",""
"","feedback","","html-keyboard-response","468","812723","0.0-1.0-690.0-0.0","0","0","85583","","null","","","null","76","","","","","","","","","","","","","","","",""
"","time_out","","html-keyboard-response","469","814730","0.0-1.0-692.0-0.0","0","0","85583","","null","","","null","76","","","","","","","","","","","","","","","",""
"","ITI","","html-keyboard-response","470","815757","0.0-1.0-693.0","0","0","85583","","151","","","68","76","","","","","","","","","","","","","","","d",""
"","S1","","html-keyboard-response","471","816017","0.0-1.0-695.0","0","0","85583","","null","","","null","77","","","","","","","","","","","","","","","",""
"","ISI","","html-keyboard-response","472","816521","0.0-1.0-696.0","0","0","85583","","381","","","68","77","d","","","","","","","","","","","","","","",""
"","S2","","html-keyboard-response","473","816757","0.0-1.0-697.0","0","0","85583","","232","","","68","77","","d","2","77","training","adjacent","FE","6","5","L.jpg","O.jpg","0","0","1","",""
"","feedback","","html-keyboard-response","474","817768","0.0-1.0-699.0-0.0","0","0","85583","","null","","","null","77","","","","","","","","","","","","","","","",""
"","ITI","","html-keyboard-response","475","818772","0.0-1.0-702.0","0","0","85583","","null","","","null","77","","","","","","","","","","","","","","","NaN",""
"","S1","","html-keyboard-response","476","819031","0.0-1.0-704.0","0","0","85583","","null","","","null","78","","","","","","","","","","","","","","","",""
"","ISI","","html-keyboard-response","477","819546","0.0-1.0-705.0","0","0","85583","","384","","","68","78","d","","","","","","","","","","","","","","",""
"","S2","","html-keyboard-response","478","819718","0.0-1.0-706.0","0","0","85583","","166","","","68","78","","d","2","78","training","adjacent","EF","5","6","O.jpg","L.jpg","0","1","0","",""
"","feedback","","html-keyboard-response","479","820729","0.0-1.0-708.0-0.0","0","0","85583","","null","","","null","78","","","","","","","","","","","","","","","",""
"","time_out","","html-keyboard-response","480","822740","0.0-1.0-710.0-0.0","0","0","85583","","null","","","null","78","","","","","","","","","","","","","","","",""
"","ITI","","html-keyboard-response","481","823751","0.0-1.0-711.0","0","0","85583","","null","","","null","78","","","","","","","","","","","","","","","NaN",""
"","S1","","html-keyboard-response","482","824017","0.0-1.0-713.0","0","0","85583","","null","","","null","79","","","","","","","","","","","","","","","",""
"","ISI","","html-keyboard-response","483","824522","0.0-1.0-714.0","0","0","85583","","null","","","null","79","NaN","","","","","","","","","","","","","","",""
"","S2","","html-keyboard-response","484","824781","0.0-1.0-715.0","0","0","85583","","null","","","null","79","","NaN","","","","","","","","","","","","","",""
"","response","","html-keyboard-response","485","824785","0.0-1.0-716.0-0.0","0","0","85583","","0","","","68","79","","","2","79","training","adjacent","FG","6","7","L.jpg","Q.jpg","0","1","0","",""
"","feedback","","html-keyboard-response","486","825798","0.0-1.0-717.0-0.0","0","0","85583","","null","","","null","79","","","","","","","","","","","","","","","",""
"","time_out","","html-keyboard-response","487","827805","0.0-1.0-719.0-0.0","0","0","85583","","null","","","null","79","","","","","","","","","","","","","","","",""
"","ITI","","html-keyboard-response","488","828810","0.0-1.0-720.0","0","0","85583","","591","","","68","79","","","","","","","","","","","","","","","d",""
"","S1","","html-keyboard-response","489","829066","0.0-1.0-722.0","0","0","85583","","null","","","null","80","","","","","","","","","","","","","","","",""
"","ISI","","html-keyboard-response","490","829572","0.0-1.0-723.0","0","0","85583","","299","","","68","80","d","","","","","","","","","","","","","","",""
"","S2","","html-keyboard-response","491","829703","0.0-1.0-724.0","0","0","85583","","125","","","68","80","","d","2","80","training","adjacent","DE","4","5","R.jpg","O.jpg","0","1","0","",""
"","feedback","","html-keyboard-response","492","830709","0.0-1.0-726.0-0.0","0","0","85583","","null","","","null","80","","","","","","","","","","","","","","","",""
"","time_out","","html-keyboard-response","493","832713","0.0-1.0-728.0-0.0","0","0","85583","","null","","","null","80","","","","","","","","","","","","","","","",""
"","ITI","","html-keyboard-response","494","833718","0.0-1.0-729.0","0","0","85583","","null","","","null","80","","","","","","","","","","","","","","","NaN",""
"","S1","","html-keyboard-response","495","833980","0.0-1.0-731.0","0","0","85583","","null","","","null","81","","","","","","","","","","","","","","","",""
"","ISI","","html-keyboard-response","496","834488","0.0-1.0-732.0","0","0","85583","","null","","","null","81","NaN","","","","","","","","","","","","","","",""
"","S2","","html-keyboard-response","497","834578","0.0-1.0-733.0","0","0","85583","","85","","","68","81","","d","2","81","training","adjacent","DC","4","3","R.jpg","M.jpg","0","0","1","",""
"","feedback","","html-keyboard-response","498","835584","0.0-1.0-735.0-0.0","0","0","85583","","null","","","null","81","","","","","","","","","","","","","","","",""
"","ITI","","html-keyboard-response","499","836593","0.0-1.0-738.0","0","0","85583","","63","","","68","81","","","","","","","","","","","","","","","d",""
"","S1","","html-keyboard-response","500","836850","0.0-1.0-740.0","0","0","85583","","null","","","null","82","","","","","","","","","","","","","","","",""
"","ISI","","html-keyboard-response","501","837356","0.0-1.0-741.0","0","0","85583","","287","","","68","82","d","","","","","","","","","","","","","","",""
"","S2","","html-keyboard-response","502","837409","0.0-1.0-742.0","0","0","85583","","47","","","68","82","","d","2","82","training","adjacent","CD","3","4","M.jpg","R.jpg","0","1","0","",""
"","feedback","","html-keyboard-response","503","838420","0.0-1.0-744.0-0.0","0","0","85583","","null","","","null","82","","","","","","","","","","","","","","","",""
"","time_out","","html-keyboard-response","504","840426","0.0-1.0-746.0-0.0","0","0","85583","","null","","","null","82","","","","","","","","","","","","","","","",""
"","ITI","","html-keyboard-response","505","841432","0.0-1.0-747.0","0","0","85583","","393","","","68","82","","","","","","","","","","","","","","","d",""
"","S1","","html-keyboard-response","506","841693","0.0-1.0-749.0","0","0","85583","","null","","","null","83","","","","","","","","","","","","","","","",""
"","ISI","","html-keyboard-response","507","842198","0.0-1.0-750.0","0","0","85583","","392","","","68","83","d","","","","","","","","","","","","","","",""
"","S2","","html-keyboard-response","508","842456","0.0-1.0-751.0","0","0","85583","","null","","","null","83","","NaN","","","","","","","","","","","","","",""
"","response","","html-keyboard-response","509","843119","0.0-1.0-752.0-0.0","0","0","85583","","655","","","68","83","","","2","83","training","adjacent","DC","4","3","R.jpg","M.jpg","0","0","1","",""
"","feedback","","html-keyboard-response","510","844141","0.0-1.0-753.0-0.0","0","0","85583","","null","","","null","83","","","","","","","","","","","","","","","",""
"","ITI","","html-keyboard-response","511","845146","0.0-1.0-756.0","0","0","85583","","null","","","null","83","","","","","","","","","","","","","","","NaN",""
"","S1","","html-keyboard-response","512","845402","0.0-1.0-758.0","0","0","85583","","null","","","null","84","","","","","","","","","","","","","","","",""
"","ISI","","html-keyboard-response","513","845913","0.0-1.0-759.0","0","0","85583","","null","","","null","84","NaN","","","","","","","","","","","","","","",""
"","S2","","html-keyboard-response","514","846169","0.0-1.0-760.0","0","0","85583","","null","","","null","84","","NaN","","","","","","","","","","","","","",""
"","response","","html-keyboard-response","515","847731","0.0-1.0-761.0-0.0","0","0","85583","","1554","","","68","84","","","2","84","training","adjacent","BC","2","3","P.jpg","M.jpg","0","1","0","",""
"","feedback","","html-keyboard-response","516","848740","0.0-1.0-762.0-0.0","0","0","85583","","null","","","null","84","","","","","","","","","","","","","","","",""
"","time_out","","html-keyboard-response","517","850744","0.0-1.0-764.0-0.0","0","0","85583","","null","","","null","84","","","","","","","","","","","","","","","",""
"","ITI","","html-keyboard-response","518","851747","0.0-1.0-765.0","0","0","85583","","247","","","68","84","","","","","","","","","","","","","","","d",""
"","S1","","html-keyboard-response","519","852002","0.0-1.0-767.0","0","0","85583","","null","","","null","85","","","","","","","","","","","","","","","",""
"","ISI","","html-keyboard-response","520","852540","0.0-1.0-768.0","0","0","85583","","null","","","null","85","NaN","","","","","","","","","","","","","","",""
"","S2","","html-keyboard-response","521","852797","0.0-1.0-769.0","0","0","85583","","null","","","null","85","","NaN","","","","","","","","","","","","","",""
"","response","","html-keyboard-response","522","852928","0.0-1.0-770.0-0.0","0","0","85583","","126","","","68","85","","","2","85","training","adjacent","BA","2","1","P.jpg","N.jpg","0","0","1","",""
"","feedback","","html-keyboard-response","523","853934","0.0-1.0-771.0-0.0","0","0","85583","","null","","","null","85","","","","","","","","","","","","","","","",""
"","ITI","","html-keyboard-response","524","854941","0.0-1.0-774.0","0","0","85583","","null","","","null","85","","","","","","","","","","","","","","","NaN",""
"","S1","","html-keyboard-response","525","855201","0.0-1.0-776.0","0","0","85583","","null","","","null","86","","","","","","","","","","","","","","","",""
"","ISI","","html-keyboard-response","526","855709","0.0-1.0-777.0","0","0","85583","","null","","","null","86","NaN","","","","","","","","","","","","","","",""
"","S2","","html-keyboard-response","527","856049","0.0-1.0-778.0","0","0","85583","","null","","","null","86","","NaN","","","","","","","","","","","","","",""
"","response","","html-keyboard-response","528","856449","0.0-1.0-779.0-0.0","0","0","85583","","393","","","68","86","","","2","86","training","adjacent","BC","2","3","P.jpg","M.jpg","0","1","0","",""
"","feedback","","html-keyboard-response","529","857459","0.0-1.0-780.0-0.0","0","0","85583","","null","","","null","86","","","","","","","","","","","","","","","",""
"","time_out","","html-keyboard-response","530","859465","0.0-1.0-782.0-0.0","0","0","85583","","null","","","null","86","","","","","","","","","","","","","","","",""
"","ITI","","html-keyboard-response","531","860471","0.0-1.0-783.0","0","0","85583","","null","","","null","86","","","","","","","","","","","","","","","NaN",""
"","S1","","html-keyboard-response","532","860727","0.0-1.0-785.0","0","0","85583","","null","","","null","87","","","","","","","","","","","","","","","",""
"","ISI","","html-keyboard-response","533","861230","0.0-1.0-786.0","0","0","85583","","331","","","75","87","k","","","","","","","","","","","","","","",""
"","S2","","html-keyboard-response","534","861343","0.0-1.0-787.0","0","0","85583","","108","","","75","87","","k","2","87","training","adjacent","FG","6","7","L.jpg","Q.jpg","1","1","1","",""
"","feedback","","html-keyboard-response","535","862351","0.0-1.0-789.0-0.0","0","0","85583","","null","","","null","87","","","","","","","","","","","","","","","",""
"","ITI","","html-keyboard-response","536","863360","0.0-1.0-792.0","0","0","85583","","null","","","null","87","","","","","","","","","","","","","","","NaN",""
"","S1","","html-keyboard-response","537","863618","0.0-1.0-794.0","0","0","85583","","null","","","null","88","","","","","","","","","","","","","","","",""
"","ISI","","html-keyboard-response","538","864124","0.0-1.0-795.0","0","0","85583","","null","","","null","88","NaN","","","","","","","","","","","","","","",""
"","S2","","html-keyboard-response","539","864378","0.0-1.0-796.0","0","0","85583","","null","","","null","88","","NaN","","","","","","","","","","","","","",""
"","response","","html-keyboard-response","540","864764","0.0-1.0-797.0-0.0","0","0","85583","","382","","","68","88","","","2","88","training","adjacent","FG","6","7","L.jpg","Q.jpg","0","1","0","",""
"","feedback","","html-keyboard-response","541","865776","0.0-1.0-798.0-0.0","0","0","85583","","null","","","null","88","","","","","","","","","","","","","","","",""
"","time_out","","html-keyboard-response","542","867787","0.0-1.0-800.0-0.0","0","0","85583","","null","","","null","88","","","","","","","","","","","","","","","",""
"","ITI","","html-keyboard-response","543","868791","0.0-1.0-801.0","0","0","85583","","137","","","68","88","","","","","","","","","","","","","","","d",""
"","S1","","html-keyboard-response","544","869046","0.0-1.0-803.0","0","0","85583","","null","","","null","89","","","","","","","","","","","","","","","",""
"","ISI","","html-keyboard-response","545","869552","0.0-1.0-804.0","0","0","85583","","175","","","68","89","d","","","","","","","","","","","","","","",""
"","S2","","html-keyboard-response","546","869718","0.0-1.0-805.0","0","0","85583","","160","","","75","89","","k","2","89","training","adjacent","AB","1","2","N.jpg","P.jpg","1","1","1","",""
"","feedback","","html-keyboard-response","547","870728","0.0-1.0-807.0-0.0","0","0","85583","","null","","","null","89","","","","","","","","","","","","","","","",""
"","ITI","","html-keyboard-response","548","871745","0.0-1.0-810.0","0","0","85583","","null","","","null","89","","","","","","","","","","","","","","","NaN",""
"","S1","","html-keyboard-response","549","872005","0.0-1.0-812.0","0","0","85583","","null","","","null","90","","","","","","","","","","","","","","","",""
"","ISI","","html-keyboard-response","550","872511","0.0-1.0-813.0","0","0","85583","","null","","","null","90","NaN","","","","","","","","","","","","","","",""
"","S2","","html-keyboard-response","551","872765","0.0-1.0-814.0","0","0","85583","","null","","","null","90","","NaN","","","","","","","","","","","","","",""
"","response","","html-keyboard-response","552","874550","0.0-1.0-815.0-0.0","0","0","85583","","null","","","null","90","","","2","90","training","adjacent","ED","5","4","O.jpg","R.jpg","NaN","0","0","",""
"","too_slow_prompt","","html-keyboard-response","553","875560","0.0-1.0-817.0-0.0","1","0","85583","","null","","","null","","","","","","","","","","","","","","","","",""
"","time_out","","html-keyboard-response","554","877569","0.0-1.0-818.0-0.0","0","0","85583","","null","","","null","90","","","","","","","","","","","","","","","",""
"","ITI","","html-keyboard-response","555","878580","0.0-1.0-819.0","0","0","85583","","617","","","68","90","","","","","","","","","","","","","","","d",""
"","S1","","html-keyboard-response","556","878836","0.0-1.0-821.0","0","0","85583","","null","","","null","91","","","","","","","","","","","","","","","",""
"","ISI","","html-keyboard-response","557","879341","0.0-1.0-822.0","0","0","85583","","326","","","68","91","d","","","","","","","","","","","","","","",""
"","S2","","html-keyboard-response","558","879596","0.0-1.0-823.0","0","0","85583","","null","","","null","91","","NaN","","","","","","","","","","","","","",""
"","response","","html-keyboard-response","559","880026","0.0-1.0-824.0-0.0","0","0","85583","","424","","","68","91","","","2","91","training","adjacent","GF","7","6","Q.jpg","L.jpg","0","0","1","",""
"","feedback","","html-keyboard-response","560","881033","0.0-1.0-825.0-0.0","0","0","85583","","null","","","null","91","","","","","","","","","","","","","","","",""
"","ITI","","html-keyboard-response","561","882070","0.0-1.0-828.0","0","0","85583","","null","","","null","91","","","","","","","","","","","","","","","NaN",""
"","S1","","html-keyboard-response","562","882333","0.0-1.0-830.0","0","0","85583","","null","","","null","92","","","","","","","","","","","","","","","",""
"","ISI","","html-keyboard-response","563","882839","0.0-1.0-831.0","0","0","85583","","null","","","null","92","NaN","","","","","","","","","","","","","","",""
"","S2","","html-keyboard-response","564","883096","0.0-1.0-832.0","0","0","85583","","null","","","null","92","","NaN","","","","","","","","","","","","","",""
"","response","","html-keyboard-response","565","883792","0.0-1.0-833.0-0.0","0","0","85583","","685","","","68","92","","","2","92","training","adjacent","FE","6","5","L.jpg","O.jpg","0","0","1","",""
"","feedback","","html-keyboard-response","566","884799","0.0-1.0-834.0-0.0","0","0","85583","","null","","","null","92","","","","","","","","","","","","","","","",""
"","ITI","","html-keyboard-response","567","885845","0.0-1.0-837.0","0","0","85583","","null","","","null","92","","","","","","","","","","","","","","","NaN",""
"","S1","","html-keyboard-response","568","886110","0.0-1.0-839.0","0","0","85583","","null","","","null","93","","","","","","","","","","","","","","","",""
"","ISI","","html-keyboard-response","569","886615","0.0-1.0-840.0","0","0","85583","","null","","","null","93","NaN","","","","","","","","","","","","","","",""
"","S2","","html-keyboard-response","570","886872","0.0-1.0-841.0","0","0","85583","","null","","","null","93","","NaN","","","","","","","","","","","","","",""
"","response","","html-keyboard-response","571","888218","0.0-1.0-842.0-0.0","0","0","85583","","1338","","","68","93","","","2","93","training","adjacent","DC","4","3","R.jpg","M.jpg","0","0","1","",""
"","feedback","","html-keyboard-response","572","889226","0.0-1.0-843.0-0.0","0","0","85583","","null","","","null","93","","","","","","","","","","","","","","","",""
"","ITI","","html-keyboard-response","573","890235","0.0-1.0-846.0","0","0","85583","","null","","","null","93","","","","","","","","","","","","","","","NaN",""
"","S1","","html-keyboard-response","574","890491","0.0-1.0-848.0","0","0","85583","","null","","","null","94","","","","","","","","","","","","","","","",""
"","ISI","","html-keyboard-response","575","890996","0.0-1.0-849.0","0","0","85583","","null","","","null","94","NaN","","","","","","","","","","","","","","",""
"","S2","","html-keyboard-response","576","891250","0.0-1.0-850.0","0","0","85583","","null","","","null","94","","NaN","","","","","","","","","","","","","",""
"","response","","html-keyboard-response","577","893007","0.0-1.0-851.0-0.0","0","0","85583","","null","","","null","94","","","2","94","training","adjacent","FE","6","5","L.jpg","O.jpg","NaN","0","0","",""
"","too_slow_prompt","","html-keyboard-response","578","894016","0.0-1.0-853.0-0.0","1","0","85583","","null","","","null","","","","","","","","","","","","","","","","",""
"","time_out","","html-keyboard-response","579","896029","0.0-1.0-854.0-0.0","0","0","85583","","null","","","null","94","","","","","","","","","","","","","","","",""
"","ITI","","html-keyboard-response","580","897036","0.0-1.0-855.0","0","0","85583","","null","","","null","94","","","","","","","","","","","","","","","NaN",""
"","S1","","html-keyboard-response","581","897295","0.0-1.0-857.0","0","0","85583","","null","","","null","95","","","","","","","","","","","","","","","",""
"","ISI","","html-keyboard-response","582","897800","0.0-1.0-858.0","0","0","85583","","385","","","68","95","d","","","","","","","","","","","","","","",""
"","S2","","html-keyboard-response","583","898058","0.0-1.0-859.0","0","0","85583","","null","","","null","95","","NaN","","","","","","","","","","","","","",""
