"success","ttype","start_time","trial_type","trial_index","time_elapsed","internal_node_id","warning","missed_checkup","PID","view_history","rt","responses","repeat_instructions","key_press","index","keypress_isi","keypress_S2","block","trial_num","phase","group_type","pair_type","S1_stim","S2_stim","S1_img","S2_img","S1_chosen","S1_higher","accuracy","keypress_iti","total_bonus_tally"
"true","full_screen","d04142023hr1305","fullscreen","0","125989","0.0-0.0","0","0","76036","","","","","","","","","","","","","","","","","","","","","",""
"","instructions","","instructions","1","163589","0.0-1.0-0.0-0.0","0","0","76036","[{""page_index"":0,""viewing_time"":8474},{""page_index"":1,""viewing_time"":12873},{""page_index"":2,""viewing_time"":4032},{""page_index"":1,""viewing_time"":5425},{""page_index"":2,""viewing_time"":3695},{""page_index"":3,""viewing_time"":3095}]","37596","","","","","","","","","","","","","","","","","","","",""
"","comprehension_check","","survey-multi-choice","2","196794","0.0-1.0-0.0-1.0","0","0","76036","","33196","{""Q0"":""True"",""Q1"":""D"",""Q2"":""Only when the screen 'MAKE A CHOICE' is shown"",""Q3"":""Green mark"",""Q4"":""either D or K""}","1","","","","","","","","","","","","","","","","","",""
"","missed_instruction_checkup","","html-keyboard-response","3","199166","0.0-1.0-0.0-2.0-0.0","0","1","76036","","2367","","","32","","","","","","","","","","","","","","","","",""
"","instructions","","instructions","4","216839","0.0-1.0-0.1-0.1","0","0","76036","[{""page_index"":0,""viewing_time"":1714},{""page_index"":1,""viewing_time"":14589},{""page_index"":2,""viewing_time"":688},{""page_index"":3,""viewing_time"":677}]","17669","","","","","","","","","","","","","","","","","","","",""
"","comprehension_check","","survey-multi-choice","5","227962","0.0-1.0-0.1-1.1","0","0","76036","","11110","{""Q0"":""True"",""Q1"":""D"",""Q2"":""Once the second image appears and while the screen 'MAKE A CHOICE' is shown"",""Q3"":""Green mark"",""Q4"":""either D or K""}","0","","","","","","","","","","","","","","","","","",""
"","start_exp","","html-keyboard-response","6","341459","0.0-1.0-1.0","0","0","76036","","113491","","","32","","","","","","","","","","","","","","","","",""
"","S1","","html-keyboard-response","7","341714","0.0-1.0-2.0","0","0","76036","","null","","","null","0","","","","","","","","","","","","","","","",""
"","ISI","","html-keyboard-response","8","342717","0.0-1.0-3.0","0","0","76036","","null","","","null","0","NaN","","","","","","","","","","","","","","",""
"","S2","","html-keyboard-response","9","342972","0.0-1.0-4.0","0","0","76036","","null","","","null","0","","NaN","","","","","","","","","","","","","",""
"","response","","html-keyboard-response","10","344710","0.0-1.0-5.0-0.0","0","0","76036","","1734","","","68","0","","","1","0","training","adjacent","DC","4","3","L.jpg","N.jpg","1","0","0","",""
"","feedback","","html-keyboard-response","11","345715","0.0-1.0-6.0-0.0","0","0","76036","","null","","","null","0","","","","","","","","","","","","","","","",""
"","time_out","","html-keyboard-response","12","347718","0.0-1.0-8.0-0.0","0","0","76036","","null","","","null","0","","","","","","","","","","","","","","","",""
"","ITI","","html-keyboard-response","13","348728","0.0-1.0-9.0","0","0","76036","","155","","","75","0","","","","","","","","","","","","","","","k",""
"","S1","","html-keyboard-response","14","348983","0.0-1.0-11.0","0","0","76036","","null","","","null","1","","","","","","","","","","","","","","","",""
"","ISI","","html-keyboard-response","15","349987","0.0-1.0-12.0","0","0","76036","","null","","","null","1","NaN","","","","","","","","","","","","","","",""
"","S2","","html-keyboard-response","16","350241","0.0-1.0-13.0","0","0","76036","","null","","","null","1","","NaN","","","","","","","","","","","","","",""
"","response","","html-keyboard-response","17","351724","0.0-1.0-14.0-0.0","0","0","76036","","1479","","","68","1","","","1","1","training","adjacent","DC","4","3","L.jpg","N.jpg","1","0","0","",""
"","feedback","","html-keyboard-response","18","352728","0.0-1.0-15.0-0.0","0","0","76036","","null","","","null","1","","","","","","","","","","","","","","","",""
"","time_out","","html-keyboard-response","19","354731","0.0-1.0-17.0-0.0","0","0","76036","","null","","","null","1","","","","","","","","","","","","","","","",""
"","ITI","","html-keyboard-response","20","355734","0.0-1.0-18.0","0","0","76036","","null","","","null","1","","","","","","","","","","","","","","","NaN",""
"","S1","","html-keyboard-response","21","355999","0.0-1.0-20.0","0","0","76036","","null","","","null","2","","","","","","","","","","","","","","","",""
"","ISI","","html-keyboard-response","22","357004","0.0-1.0-21.0","0","0","76036","","null","","","null","2","NaN","","","","","","","","","","","","","","",""
"","S2","","html-keyboard-response","23","357259","0.0-1.0-22.0","0","0","76036","","null","","","null","2","","NaN","","","","","","","","","","","","","",""
"","response","","html-keyboard-response","24","357728","0.0-1.0-23.0-0.0","0","0","76036","","467","","","75","2","","","1","2","training","adjacent","BA","2","1","M.jpg","O.jpg","0","0","1","",""
"","feedback","","html-keyboard-response","25","358731","0.0-1.0-24.0-0.0","0","0","76036","","null","","","null","2","","","","","","","","","","","","","","","",""
"","ITI","","html-keyboard-response","26","359733","0.0-1.0-27.0","0","0","76036","","null","","","null","2","","","","","","","","","","","","","","","NaN",""
"","S1","","html-keyboard-response","27","359987","0.0-1.0-29.0","0","0","76036","","null","","","null","3","","","","","","","","","","","","","","","",""
"","ISI","","html-keyboard-response","28","360991","0.0-1.0-30.0","0","0","76036","","null","","","null","3","NaN","","","","","","","","","","","","","","",""
"","S2","","html-keyboard-response","29","361244","0.0-1.0-31.0","0","0","76036","","null","","","null","3","","NaN","","","","","","","","","","","","","",""
"","response","","html-keyboard-response","30","361520","0.0-1.0-32.0-0.0","0","0","76036","","273","","","75","3","","","1","3","training","adjacent","BA","2","1","M.jpg","O.jpg","0","0","1","",""
"","feedback","","html-keyboard-response","31","362524","0.0-1.0-33.0-0.0","0","0","76036","","null","","","null","3","","","","","","","","","","","","","","","",""
"","ITI","","html-keyboard-response","32","363529","0.0-1.0-36.0","0","0","76036","","null","","","null","3","","","","","","","","","","","","","","","NaN",""
"","S1","","html-keyboard-response","33","363784","0.0-1.0-38.0","0","0","76036","","null","","","null","4","","","","","","","","","","","","","","","",""
"","ISI","","html-keyboard-response","34","364786","0.0-1.0-39.0","0","0","76036","","null","","","null","4","NaN","","","","","","","","","","","","","","",""
"","S2","","html-keyboard-response","35","365039","0.0-1.0-40.0","0","0","76036","","null","","","null","4","","NaN","","","","","","","","","","","","","",""
"","response","","html-keyboard-response","36","365322","0.0-1.0-41.0-0.0","0","0","76036","","279","","","75","4","","","1","4","training","adjacent","DC","4","3","L.jpg","N.jpg","0","0","1","",""
"","feedback","","html-keyboard-response","37","366329","0.0-1.0-42.0-0.0","0","0","76036","","null","","","null","4","","","","","","","","","","","","","","","",""
"","ITI","","html-keyboard-response","38","367331","0.0-1.0-45.0","0","0","76036","","null","","","null","4","","","","","","","","","","","","","","","NaN",""
"","S1","","html-keyboard-response","39","367585","0.0-1.0-47.0","0","0","76036","","null","","","null","5","","","","","","","","","","","","","","","",""
"","ISI","","html-keyboard-response","40","368587","0.0-1.0-48.0","0","0","76036","","null","","","null","5","NaN","","","","","","","","","","","","","","",""
"","S2","","html-keyboard-response","41","368841","0.0-1.0-49.0","0","0","76036","","null","","","null","5","","NaN","","","","","","","","","","","","","",""
"","response","","html-keyboard-response","42","369586","0.0-1.0-50.0-0.0","0","0","76036","","743","","","68","5","","","1","5","training","adjacent","CB","3","2","N.jpg","M.jpg","1","0","0","",""
"","feedback","","html-keyboard-response","43","370589","0.0-1.0-51.0-0.0","0","0","76036","","null","","","null","5","","","","","","","","","","","","","","","",""
"","time_out","","html-keyboard-response","44","372592","0.0-1.0-53.0-0.0","0","0","76036","","null","","","null","5","","","","","","","","","","","","","","","",""
"","ITI","","html-keyboard-response","45","373594","0.0-1.0-54.0","0","0","76036","","null","","","null","5","","","","","","","","","","","","","","","NaN",""
"","S1","","html-keyboard-response","46","373848","0.0-1.0-56.0","0","0","76036","","null","","","null","6","","","","","","","","","","","","","","","",""
"","ISI","","html-keyboard-response","47","374853","0.0-1.0-57.0","0","0","76036","","748","","","75","6","k","","","","","","","","","","","","","","",""
"","S2","","html-keyboard-response","48","375108","0.0-1.0-58.0","0","0","76036","","null","","","null","6","","NaN","","","","","","","","","","","","","",""
"","response","","html-keyboard-response","49","376078","0.0-1.0-59.0-0.0","0","0","76036","","969","","","75","6","","","1","6","training","adjacent","ED","5","4","R.jpg","L.jpg","0","0","1","",""
"","feedback","","html-keyboard-response","50","377091","0.0-1.0-60.0-0.0","0","0","76036","","null","","","null","6","","","","","","","","","","","","","","","",""
"","ITI","","html-keyboard-response","51","378095","0.0-1.0-63.0","0","0","76036","","null","","","null","6","","","","","","","","","","","","","","","NaN",""
"","S1","","html-keyboard-response","52","378349","0.0-1.0-65.0","0","0","76036","","null","","","null","7","","","","","","","","","","","","","","","",""
"","ISI","","html-keyboard-response","53","379351","0.0-1.0-66.0","0","0","76036","","null","","","null","7","NaN","","","","","","","","","","","","","","",""
"","S2","","html-keyboard-response","54","379606","0.0-1.0-67.0","0","0","76036","","null","","","null","7","","NaN","","","","","","","","","","","","","",""
"","response","","html-keyboard-response","55","380484","0.0-1.0-68.0-0.0","0","0","76036","","874","","","75","7","","","1","7","training","adjacent","BA","2","1","M.jpg","O.jpg","0","0","1","",""
"","feedback","","html-keyboard-response","56","381488","0.0-1.0-69.0-0.0","0","0","76036","","null","","","null","7","","","","","","","","","","","","","","","",""
"","ITI","","html-keyboard-response","57","382494","0.0-1.0-72.0","0","0","76036","","null","","","null","7","","","","","","","","","","","","","","","NaN",""
"","S1","","html-keyboard-response","58","382748","0.0-1.0-74.0","0","0","76036","","null","","","null","8","","","","","","","","","","","","","","","",""
"","ISI","","html-keyboard-response","59","383752","0.0-1.0-75.0","0","0","76036","","null","","","null","8","NaN","","","","","","","","","","","","","","",""
"","S2","","html-keyboard-response","60","384007","0.0-1.0-76.0","0","0","76036","","null","","","null","8","","NaN","","","","","","","","","","","","","",""
"","response","","html-keyboard-response","61","384587","0.0-1.0-77.0-0.0","0","0","76036","","577","","","68","8","","","1","8","training","adjacent","AB","1","2","O.jpg","M.jpg","1","1","1","",""
"","feedback","","html-keyboard-response","62","385590","0.0-1.0-78.0-0.0","0","0","76036","","null","","","null","8","","","","","","","","","","","","","","","",""
"","ITI","","html-keyboard-response","63","386593","0.0-1.0-81.0","0","0","76036","","null","","","null","8","","","","","","","","","","","","","","","NaN",""
"","S1","","html-keyboard-response","64","386848","0.0-1.0-83.0","0","0","76036","","null","","","null","9","","","","","","","","","","","","","","","",""
"","ISI","","html-keyboard-response","65","387852","0.0-1.0-84.0","0","0","76036","","null","","","null","9","NaN","","","","","","","","","","","","","","",""
"","S2","","html-keyboard-response","66","388108","0.0-1.0-85.0","0","0","76036","","null","","","null","9","","NaN","","","","","","","","","","","","","",""
"","response","","html-keyboard-response","67","389862","0.0-1.0-86.0-0.0","0","0","76036","","null","","","null","9","","","1","9","training","adjacent","CB","3","2","N.jpg","M.jpg","NaN","0","0","",""
"","too_slow_prompt","","html-keyboard-response","68","390866","0.0-1.0-88.0-0.0","1","0","76036","","null","","","null","","","","","","","","","","","","","","","","",""
"","time_out","","html-keyboard-response","69","392868","0.0-1.0-89.0-0.0","0","0","76036","","null","","","null","9","","","","","","","","","","","","","","","",""
"","ITI","","html-keyboard-response","70","393871","0.0-1.0-90.0","0","0","76036","","82","","","75","9","","","","","","","","","","","","","","","k",""
"","S1","","html-keyboard-response","71","394123","0.0-1.0-92.0","0","0","76036","","null","","","null","10","","","","","","","","","","","","","","","",""
"","ISI","","html-keyboard-response","72","395127","0.0-1.0-93.0","0","0","76036","","242","","","75","10","k","","","","","","","","","","","","","","",""
"","S2","","html-keyboard-response","73","395381","0.0-1.0-94.0","0","0","76036","","null","","","null","10","","NaN","","","","","","","","","","","","","",""
"","response","","html-keyboard-response","74","395618","0.0-1.0-95.0-0.0","0","0","76036","","234","","","68","10","","","1","10","training","adjacent","AB","1","2","O.jpg","M.jpg","1","1","1","",""
"","feedback","","html-keyboard-response","75","396622","0.0-1.0-96.0-0.0","0","0","76036","","null","","","null","10","","","","","","","","","","","","","","","",""
"","ITI","","html-keyboard-response","76","397624","0.0-1.0-99.0","0","0","76036","","null","","","null","10","","","","","","","","","","","","","","","NaN",""
"","S1","","html-keyboard-response","77","397878","0.0-1.0-101.0","0","0","76036","","null","","","null","11","","","","","","","","","","","","","","","",""
"","ISI","","html-keyboard-response","78","398881","0.0-1.0-102.0","0","0","76036","","null","","","null","11","NaN","","","","","","","","","","","","","","",""
"","S2","","html-keyboard-response","79","399134","0.0-1.0-103.0","0","0","76036","","null","","","null","11","","NaN","","","","","","","","","","","","","",""
"","response","","html-keyboard-response","80","399394","0.0-1.0-104.0-0.0","0","0","76036","","256","","","68","11","","","1","11","training","adjacent","AB","1","2","O.jpg","M.jpg","1","1","1","",""
"","feedback","","html-keyboard-response","81","400400","0.0-1.0-105.0-0.0","0","0","76036","","null","","","null","11","","","","","","","","","","","","","","","",""
"","ITI","","html-keyboard-response","82","401404","0.0-1.0-108.0","0","0","76036","","null","","","null","11","","","","","","","","","","","","","","","NaN",""
"","S1","","html-keyboard-response","83","401657","0.0-1.0-110.0","0","0","76036","","null","","","null","12","","","","","","","","","","","","","","","",""
"","ISI","","html-keyboard-response","84","402665","0.0-1.0-111.0","0","0","76036","","null","","","null","12","NaN","","","","","","","","","","","","","","",""
"","S2","","html-keyboard-response","85","402919","0.0-1.0-112.0","0","0","76036","","null","","","null","12","","NaN","","","","","","","","","","","","","",""
"","response","","html-keyboard-response","86","403189","0.0-1.0-113.0-0.0","0","0","76036","","267","","","75","12","","","1","12","training","adjacent","BA","2","1","M.jpg","O.jpg","0","0","1","",""
"","feedback","","html-keyboard-response","87","404193","0.0-1.0-114.0-0.0","0","0","76036","","null","","","null","12","","","","","","","","","","","","","","","",""
"","ITI","","html-keyboard-response","88","405196","0.0-1.0-117.0","0","0","76036","","null","","","null","12","","","","","","","","","","","","","","","NaN",""
"","S1","","html-keyboard-response","89","405449","0.0-1.0-119.0","0","0","76036","","null","","","null","13","","","","","","","","","","","","","","","",""
"","ISI","","html-keyboard-response","90","406454","0.0-1.0-120.0","0","0","76036","","null","","","null","13","NaN","","","","","","","","","","","","","","",""
"","S2","","html-keyboard-response","91","406708","0.0-1.0-121.0","0","0","76036","","null","","","null","13","","NaN","","","","","","","","","","","","","",""
"","response","","html-keyboard-response","92","407041","0.0-1.0-122.0-0.0","0","0","76036","","329","","","68","13","","","1","13","training","adjacent","CB","3","2","N.jpg","M.jpg","1","0","0","",""
"","feedback","","html-keyboard-response","93","408045","0.0-1.0-123.0-0.0","0","0","76036","","null","","","null","13","","","","","","","","","","","","","","","",""
"","time_out","","html-keyboard-response","94","410048","0.0-1.0-125.0-0.0","0","0","76036","","null","","","null","13","","","","","","","","","","","","","","","",""
"","ITI","","html-keyboard-response","95","411052","0.0-1.0-126.0","0","0","76036","","null","","","null","13","","","","","","","","","","","","","","","NaN",""
"","S1","","html-keyboard-response","96","411305","0.0-1.0-128.0","0","0","76036","","null","","","null","14","","","","","","","","","","","","","","","",""
"","ISI","","html-keyboard-response","97","412307","0.0-1.0-129.0","0","0","76036","","null","","","null","14","NaN","","","","","","","","","","","","","","",""
"","S2","","html-keyboard-response","98","412567","0.0-1.0-130.0","0","0","76036","","null","","","null","14","","NaN","","","","","","","","","","","","","",""
"","response","","html-keyboard-response","99","413729","0.0-1.0-131.0-0.0","0","0","76036","","1158","","","75","14","","","1","14","training","adjacent","EF","5","6","R.jpg","Q.jpg","0","1","0","",""
"","feedback","","html-keyboard-response","100","414733","0.0-1.0-132.0-0.0","0","0","76036","","null","","","null","14","","","","","","","","","","","","","","","",""
"","time_out","","html-keyboard-response","101","416735","0.0-1.0-134.0-0.0","0","0","76036","","null","","","null","14","","","","","","","","","","","","","","","",""
"","ITI","","html-keyboard-response","102","417739","0.0-1.0-135.0","0","0","76036","","null","","","null","14","","","","","","","","","","","","","","","NaN",""
"","S1","","html-keyboard-response","103","417992","0.0-1.0-137.0","0","0","76036","","null","","","null","15","","","","","","","","","","","","","","","",""
"","ISI","","html-keyboard-response","104","418996","0.0-1.0-138.0","0","0","76036","","null","","","null","15","NaN","","","","","","","","","","","","","","",""
"","S2","","html-keyboard-response","105","419250","0.0-1.0-139.0","0","0","76036","","null","","","null","15","","NaN","","","","","","","","","","","","","",""
"","response","","html-keyboard-response","106","419598","0.0-1.0-140.0-0.0","0","0","76036","","346","","","68","15","","","1","15","training","adjacent","ED","5","4","R.jpg","L.jpg","1","0","0","",""
"","feedback","","html-keyboard-response","107","420601","0.0-1.0-141.0-0.0","0","0","76036","","null","","","null","15","","","","","","","","","","","","","","","",""
"","time_out","","html-keyboard-response","108","422603","0.0-1.0-143.0-0.0","0","0","76036","","null","","","null","15","","","","","","","","","","","","","","","",""
"","ITI","","html-keyboard-response","109","423606","0.0-1.0-144.0","0","0","76036","","null","","","null","15","","","","","","","","","","","","","","","NaN",""
"","S1","","html-keyboard-response","110","423862","0.0-1.0-146.0","0","0","76036","","null","","","null","16","","","","","","","","","","","","","","","",""
"","ISI","","html-keyboard-response","111","424866","0.0-1.0-147.0","0","0","76036","","null","","","null","16","NaN","","","","","","","","","","","","","","",""
"","S2","","html-keyboard-response","112","425119","0.0-1.0-148.0","0","0","76036","","null","","","null","16","","NaN","","","","","","","","","","","","","",""
"","response","","html-keyboard-response","113","426330","0.0-1.0-149.0-0.0","0","0","76036","","1208","","","68","16","","","1","16","training","adjacent","BC","2","3","M.jpg","N.jpg","1","1","1","",""
"","feedback","","html-keyboard-response","114","427335","0.0-1.0-150.0-0.0","0","0","76036","","null","","","null","16","","","","","","","","","","","","","","","",""
"","ITI","","html-keyboard-response","115","428339","0.0-1.0-153.0","0","0","76036","","null","","","null","16","","","","","","","","","","","","","","","NaN",""
"","S1","","html-keyboard-response","116","428593","0.0-1.0-155.0","0","0","76036","","null","","","null","17","","","","","","","","","","","","","","","",""
"","ISI","","html-keyboard-response","117","429599","0.0-1.0-156.0","0","0","76036","","null","","","null","17","NaN","","","","","","","","","","","","","","",""
"","S2","","html-keyboard-response","118","429853","0.0-1.0-157.0","0","0","76036","","null","","","null","17","","NaN","","","","","","","","","","","","","",""
"","response","","html-keyboard-response","119","430586","0.0-1.0-158.0-0.0","0","0","76036","","727","","","75","17","","","1","17","training","adjacent","ED","5","4","R.jpg","L.jpg","0","0","1","",""
"","feedback","","html-keyboard-response","120","431589","0.0-1.0-159.0-0.0","0","0","76036","","null","","","null","17","","","","","","","","","","","","","","","",""
"","ITI","","html-keyboard-response","121","432592","0.0-1.0-162.0","0","0","76036","","null","","","null","17","","","","","","","","","","","","","","","NaN",""
"","S1","","html-keyboard-response","122","432847","0.0-1.0-164.0","0","0","76036","","null","","","null","18","","","","","","","","","","","","","","","",""
"","ISI","","html-keyboard-response","123","433850","0.0-1.0-165.0","0","0","76036","","null","","","null","18","NaN","","","","","","","","","","","","","","",""
"","S2","","html-keyboard-response","124","434117","0.0-1.0-166.0","0","0","76036","","null","","","null","18","","NaN","","","","","","","","","","","","","",""
"","response","","html-keyboard-response","125","434630","0.0-1.0-167.0-0.0","0","0","76036","","510","","","75","18","","","1","18","training","adjacent","BC","2","3","M.jpg","N.jpg","0","1","0","",""
"","feedback","","html-keyboard-response","126","435633","0.0-1.0-168.0-0.0","0","0","76036","","null","","","null","18","","","","","","","","","","","","","","","",""
"","time_out","","html-keyboard-response","127","437637","0.0-1.0-170.0-0.0","0","0","76036","","null","","","null","18","","","","","","","","","","","","","","","",""
"","ITI","","html-keyboard-response","128","438640","0.0-1.0-171.0","0","0","76036","","null","","","null","18","","","","","","","","","","","","","","","NaN",""
"","S1","","html-keyboard-response","129","438894","0.0-1.0-173.0","0","0","76036","","null","","","null","19","","","","","","","","","","","","","","","",""
"","ISI","","html-keyboard-response","130","439899","0.0-1.0-174.0","0","0","76036","","null","","","null","19","NaN","","","","","","","","","","","","","","",""
"","S2","","html-keyboard-response","131","440170","0.0-1.0-175.0","0","0","76036","","null","","","null","19","","NaN","","","","","","","","","","","","","",""
"","response","","html-keyboard-response","132","440783","0.0-1.0-176.0-0.0","0","0","76036","","611","","","68","19","","","1","19","training","adjacent","EF","5","6","R.jpg","Q.jpg","1","1","1","",""
"","feedback","","html-keyboard-response","133","441787","0.0-1.0-177.0-0.0","0","0","76036","","null","","","null","19","","","","","","","","","","","","","","","",""
"","ITI","","html-keyboard-response","134","442790","0.0-1.0-180.0","0","0","76036","","null","","","null","19","","","","","","","","","","","","","","","NaN",""
"","S1","","html-keyboard-response","135","443043","0.0-1.0-182.0","0","0","76036","","null","","","null","20","","","","","","","","","","","","","","","",""
"","ISI","","html-keyboard-response","136","444047","0.0-1.0-183.0","0","0","76036","","null","","","null","20","NaN","","","","","","","","","","","","","","",""
"","S2","","html-keyboard-response","137","444302","0.0-1.0-184.0","0","0","76036","","null","","","null","20","","NaN","","","","","","","","","","","","","",""
"","response","","html-keyboard-response","138","444872","0.0-1.0-185.0-0.0","0","0","76036","","567","","","75","20","","","1","20","training","adjacent","CD","3","4","N.jpg","L.jpg","0","1","0","",""
"","feedback","","html-keyboard-response","139","445876","0.0-1.0-186.0-0.0","0","0","76036","","null","","","null","20","","","","","","","","","","","","","","","",""
"","time_out","","html-keyboard-response","140","447880","0.0-1.0-188.0-0.0","0","0","76036","","null","","","null","20","","","","","","","","","","","","","","","",""
"","ITI","","html-keyboard-response","141","448883","0.0-1.0-189.0","0","0","76036","","null","","","null","20","","","","","","","","","","","","","","","NaN",""
"","S1","","html-keyboard-response","142","449136","0.0-1.0-191.0","0","0","76036","","null","","","null","21","","","","","","","","","","","","","","","",""
"","ISI","","html-keyboard-response","143","450140","0.0-1.0-192.0","0","0","76036","","null","","","null","21","NaN","","","","","","","","","","","","","","",""
"","S2","","html-keyboard-response","144","450396","0.0-1.0-193.0","0","0","76036","","null","","","null","21","","NaN","","","","","","","","","","","","","",""
"","response","","html-keyboard-response","145","450645","0.0-1.0-194.0-0.0","0","0","76036","","246","","","68","21","","","1","21","training","adjacent","BC","2","3","M.jpg","N.jpg","1","1","1","",""
"","feedback","","html-keyboard-response","146","451647","0.0-1.0-195.0-0.0","0","0","76036","","null","","","null","21","","","","","","","","","","","","","","","",""
"","ITI","","html-keyboard-response","147","452650","0.0-1.0-198.0","0","0","76036","","null","","","null","21","","","","","","","","","","","","","","","NaN",""
"","S1","","html-keyboard-response","148","452904","0.0-1.0-200.0","0","0","76036","","null","","","null","22","","","","","","","","","","","","","","","",""
"","ISI","","html-keyboard-response","149","453908","0.0-1.0-201.0","0","0","76036","","null","","","null","22","NaN","","","","","","","","","","","","","","",""
"","S2","","html-keyboard-response","150","454164","0.0-1.0-202.0","0","0","76036","","null","","","null","22","","NaN","","","","","","","","","","","","","",""
"","response","","html-keyboard-response","151","454796","0.0-1.0-203.0-0.0","0","0","76036","","630","","","68","22","","","1","22","training","adjacent","CD","3","4","N.jpg","L.jpg","1","1","1","",""
"","feedback","","html-keyboard-response","152","455801","0.0-1.0-204.0-0.0","0","0","76036","","null","","","null","22","","","","","","","","","","","","","","","",""
"","ITI","","html-keyboard-response","153","456804","0.0-1.0-207.0","0","0","76036","","null","","","null","22","","","","","","","","","","","","","","","NaN",""
"","S1","","html-keyboard-response","154","457058","0.0-1.0-209.0","0","0","76036","","null","","","null","23","","","","","","","","","","","","","","","",""
"","ISI","","html-keyboard-response","155","458062","0.0-1.0-210.0","0","0","76036","","null","","","null","23","NaN","","","","","","","","","","","","","","",""
"","S2","","html-keyboard-response","156","458316","0.0-1.0-211.0","0","0","76036","","null","","","null","23","","NaN","","","","","","","","","","","","","",""
"","response","","html-keyboard-response","157","458909","0.0-1.0-212.0-0.0","0","0","76036","","591","","","68","23","","","1","23","training","adjacent","DE","4","5","L.jpg","R.jpg","1","1","1","",""
"","feedback","","html-keyboard-response","158","459912","0.0-1.0-213.0-0.0","0","0","76036","","null","","","null","23","","","","","","","","","","","","","","","",""
"","ITI","","html-keyboard-response","159","460917","0.0-1.0-216.0","0","0","76036","","null","","","null","23","","","","","","","","","","","","","","","NaN",""
"","S1","","html-keyboard-response","160","461170","0.0-1.0-218.0","0","0","76036","","null","","","null","24","","","","","","","","","","","","","","","",""
"","ISI","","html-keyboard-response","161","462174","0.0-1.0-219.0","0","0","76036","","null","","","null","24","NaN","","","","","","","","","","","","","","",""
"","S2","","html-keyboard-response","162","462430","0.0-1.0-220.0","0","0","76036","","null","","","null","24","","NaN","","","","","","","","","","","","","",""
"","response","","html-keyboard-response","163","462856","0.0-1.0-221.0-0.0","0","0","76036","","422","","","68","24","","","1","24","training","adjacent","ED","5","4","R.jpg","L.jpg","1","0","0","",""
"","feedback","","html-keyboard-response","164","463863","0.0-1.0-222.0-0.0","0","0","76036","","null","","","null","24","","","","","","","","","","","","","","","",""
"","time_out","","html-keyboard-response","165","465867","0.0-1.0-224.0-0.0","0","0","76036","","null","","","null","24","","","","","","","","","","","","","","","",""
"","ITI","","html-keyboard-response","166","466870","0.0-1.0-225.0","0","0","76036","","null","","","null","24","","","","","","","","","","","","","","","NaN",""
"","S1","","html-keyboard-response","167","467123","0.0-1.0-227.0","0","0","76036","","null","","","null","25","","","","","","","","","","","","","","","",""
"","ISI","","html-keyboard-response","168","468127","0.0-1.0-228.0","0","0","76036","","null","","","null","25","NaN","","","","","","","","","","","","","","",""
"","S2","","html-keyboard-response","169","468382","0.0-1.0-229.0","0","0","76036","","null","","","null","25","","NaN","","","","","","","","","","","","","",""
"","response","","html-keyboard-response","170","468803","0.0-1.0-230.0-0.0","0","0","76036","","417","","","75","25","","","1","25","training","adjacent","CD","3","4","N.jpg","L.jpg","0","1","0","",""
"","feedback","","html-keyboard-response","171","469809","0.0-1.0-231.0-0.0","0","0","76036","","null","","","null","25","","","","","","","","","","","","","","","",""
"","time_out","","html-keyboard-response","172","471813","0.0-1.0-233.0-0.0","0","0","76036","","null","","","null","25","","","","","","","","","","","","","","","",""
"","ITI","","html-keyboard-response","173","472817","0.0-1.0-234.0","0","0","76036","","null","","","null","25","","","","","","","","","","","","","","","NaN",""
"","S1","","html-keyboard-response","174","473072","0.0-1.0-236.0","0","0","76036","","null","","","null","26","","","","","","","","","","","","","","","",""
"","ISI","","html-keyboard-response","175","474076","0.0-1.0-237.0","0","0","76036","","null","","","null","26","NaN","","","","","","","","","","","","","","",""
"","S2","","html-keyboard-response","176","474331","0.0-1.0-238.0","0","0","76036","","null","","","null","26","","NaN","","","","","","","","","","","","","",""
"","response","","html-keyboard-response","177","475099","0.0-1.0-239.0-0.0","0","0","76036","","766","","","68","26","","","1","26","training","adjacent","EF","5","6","R.jpg","Q.jpg","1","1","1","",""
"","feedback","","html-keyboard-response","178","476104","0.0-1.0-240.0-0.0","0","0","76036","","null","","","null","26","","","","","","","","","","","","","","","",""
"","ITI","","html-keyboard-response","179","477110","0.0-1.0-243.0","0","0","76036","","null","","","null","26","","","","","","","","","","","","","","","NaN",""
"","S1","","html-keyboard-response","180","477365","0.0-1.0-245.0","0","0","76036","","null","","","null","27","","","","","","","","","","","","","","","",""
"","ISI","","html-keyboard-response","181","478370","0.0-1.0-246.0","0","0","76036","","null","","","null","27","NaN","","","","","","","","","","","","","","",""
"","S2","","html-keyboard-response","182","478624","0.0-1.0-247.0","0","0","76036","","null","","","null","27","","NaN","","","","","","","","","","","","","",""
"","response","","html-keyboard-response","183","479582","0.0-1.0-248.0-0.0","0","0","76036","","956","","","75","27","","","1","27","training","adjacent","DE","4","5","L.jpg","R.jpg","0","1","0","",""
"","feedback","","html-keyboard-response","184","480585","0.0-1.0-249.0-0.0","0","0","76036","","null","","","null","27","","","","","","","","","","","","","","","",""
"","time_out","","html-keyboard-response","185","482588","0.0-1.0-251.0-0.0","0","0","76036","","null","","","null","27","","","","","","","","","","","","","","","",""
"","ITI","","html-keyboard-response","186","483592","0.0-1.0-252.0","0","0","76036","","null","","","null","27","","","","","","","","","","","","","","","NaN",""
"","S1","","html-keyboard-response","187","483846","0.0-1.0-254.0","0","0","76036","","null","","","null","28","","","","","","","","","","","","","","","",""
"","ISI","","html-keyboard-response","188","484849","0.0-1.0-255.0","0","0","76036","","null","","","null","28","NaN","","","","","","","","","","","","","","",""
"","S2","","html-keyboard-response","189","485105","0.0-1.0-256.0","0","0","76036","","null","","","null","28","","NaN","","","","","","","","","","","","","",""
"","response","","html-keyboard-response","190","486574","0.0-1.0-257.0-0.0","0","0","76036","","1465","","","68","28","","","1","28","training","adjacent","FE","6","5","Q.jpg","R.jpg","1","0","0","",""
"","feedback","","html-keyboard-response","191","487580","0.0-1.0-258.0-0.0","0","0","76036","","null","","","null","28","","","","","","","","","","","","","","","",""
"","time_out","","html-keyboard-response","192","489583","0.0-1.0-260.0-0.0","0","0","76036","","null","","","null","28","","","","","","","","","","","","","","","",""
"","ITI","","html-keyboard-response","193","490599","0.0-1.0-261.0","0","0","76036","","null","","","null","28","","","","","","","","","","","","","","","NaN",""
"","S1","","html-keyboard-response","194","490852","0.0-1.0-263.0","0","0","76036","","null","","","null","29","","","","","","","","","","","","","","","",""
"","ISI","","html-keyboard-response","195","491856","0.0-1.0-264.0","0","0","76036","","null","","","null","29","NaN","","","","","","","","","","","","","","",""
"","S2","","html-keyboard-response","196","492110","0.0-1.0-265.0","0","0","76036","","null","","","null","29","","NaN","","","","","","","","","","","","","",""
"","response","","html-keyboard-response","197","492413","0.0-1.0-266.0-0.0","0","0","76036","","301","","","75","29","","","1","29","training","adjacent","FG","6","7","Q.jpg","P.jpg","0","1","0","",""
"","feedback","","html-keyboard-response","198","493419","0.0-1.0-267.0-0.0","0","0","76036","","null","","","null","29","","","","","","","","","","","","","","","",""
"","time_out","","html-keyboard-response","199","495423","0.0-1.0-269.0-0.0","0","0","76036","","null","","","null","29","","","","","","","","","","","","","","","",""
"","ITI","","html-keyboard-response","200","496428","0.0-1.0-270.0","0","0","76036","","null","","","null","29","","","","","","","","","","","","","","","NaN",""
"","S1","","html-keyboard-response","201","496682","0.0-1.0-272.0","0","0","76036","","null","","","null","30","","","","","","","","","","","","","","","",""
"","ISI","","html-keyboard-response","202","497687","0.0-1.0-273.0","0","0","76036","","null","","","null","30","NaN","","","","","","","","","","","","","","",""
"","S2","","html-keyboard-response","203","497941","0.0-1.0-274.0","0","0","76036","","null","","","null","30","","NaN","","","","","","","","","","","","","",""
"","response","","html-keyboard-response","204","498439","0.0-1.0-275.0-0.0","0","0","76036","","495","","","68","30","","","1","30","training","adjacent","FG","6","7","Q.jpg","P.jpg","1","1","1","",""
"","feedback","","html-keyboard-response","205","499450","0.0-1.0-276.0-0.0","0","0","76036","","null","","","null","30","","","","","","","","","","","","","","","",""
"","ITI","","html-keyboard-response","206","500455","0.0-1.0-279.0","0","0","76036","","null","","","null","30","","","","","","","","","","","","","","","NaN",""
"","S1","","html-keyboard-response","207","500710","0.0-1.0-281.0","0","0","76036","","null","","","null","31","","","","","","","","","","","","","","","",""
"","ISI","","html-keyboard-response","208","501717","0.0-1.0-282.0","0","0","76036","","null","","","null","31","NaN","","","","","","","","","","","","","","",""
"","S2","","html-keyboard-response","209","501971","0.0-1.0-283.0","0","0","76036","","null","","","null","31","","NaN","","","","","","","","","","","","","",""
"","response","","html-keyboard-response","210","503052","0.0-1.0-284.0-0.0","0","0","76036","","1079","","","68","31","","","1","31","training","adjacent","GF","7","6","P.jpg","Q.jpg","1","0","0","",""
"","feedback","","html-keyboard-response","211","504056","0.0-1.0-285.0-0.0","0","0","76036","","null","","","null","31","","","","","","","","","","","","","","","",""
"","time_out","","html-keyboard-response","212","506061","0.0-1.0-287.0-0.0","0","0","76036","","null","","","null","31","","","","","","","","","","","","","","","",""
"","ITI","","html-keyboard-response","213","507063","0.0-1.0-288.0","0","0","76036","","null","","","null","31","","","","","","","","","","","","","","","NaN",""
"","S1","","html-keyboard-response","214","507318","0.0-1.0-290.0","0","0","76036","","null","","","null","32","","","","","","","","","","","","","","","",""
"","ISI","","html-keyboard-response","215","508322","0.0-1.0-291.0","0","0","76036","","null","","","null","32","NaN","","","","","","","","","","","","","","",""
"","S2","","html-keyboard-response","216","508579","0.0-1.0-292.0","0","0","76036","","null","","","null","32","","NaN","","","","","","","","","","","","","",""
"","response","","html-keyboard-response","217","509314","0.0-1.0-293.0-0.0","0","0","76036","","733","","","68","32","","","1","32","training","adjacent","BC","2","3","M.jpg","N.jpg","1","1","1","",""
"","feedback","","html-keyboard-response","218","510318","0.0-1.0-294.0-0.0","0","0","76036","","null","","","null","32","","","","","","","","","","","","","","","",""
"","ITI","","html-keyboard-response","219","511321","0.0-1.0-297.0","0","0","76036","","null","","","null","32","","","","","","","","","","","","","","","NaN",""
"","S1","","html-keyboard-response","220","511578","0.0-1.0-299.0","0","0","76036","","null","","","null","33","","","","","","","","","","","","","","","",""
"","ISI","","html-keyboard-response","221","512581","0.0-1.0-300.0","0","0","76036","","null","","","null","33","NaN","","","","","","","","","","","","","","",""
"","S2","","html-keyboard-response","222","512833","0.0-1.0-301.0","0","0","76036","","null","","","null","33","","NaN","","","","","","","","","","","","","",""
"","response","","html-keyboard-response","223","514289","0.0-1.0-302.0-0.0","0","0","76036","","1452","","","75","33","","","1","33","training","adjacent","FE","6","5","Q.jpg","R.jpg","0","0","1","",""
"","feedback","","html-keyboard-response","224","515293","0.0-1.0-303.0-0.0","0","0","76036","","null","","","null","33","","","","","","","","","","","","","","","",""
"","ITI","","html-keyboard-response","225","516307","0.0-1.0-306.0","0","0","76036","","null","","","null","33","","","","","","","","","","","","","","","NaN",""
"","S1","","html-keyboard-response","226","516575","0.0-1.0-308.0","0","0","76036","","null","","","null","34","","","","","","","","","","","","","","","",""
"","ISI","","html-keyboard-response","227","517579","0.0-1.0-309.0","0","0","76036","","null","","","null","34","NaN","","","","","","","","","","","","","","",""
"","S2","","html-keyboard-response","228","517833","0.0-1.0-310.0","0","0","76036","","null","","","null","34","","NaN","","","","","","","","","","","","","",""
"","response","","html-keyboard-response","229","518385","0.0-1.0-311.0-0.0","0","0","76036","","550","","","68","34","","","1","34","training","adjacent","FG","6","7","Q.jpg","P.jpg","1","1","1","",""
"","feedback","","html-keyboard-response","230","519389","0.0-1.0-312.0-0.0","0","0","76036","","null","","","null","34","","","","","","","","","","","","","","","",""
"","ITI","","html-keyboard-response","231","520394","0.0-1.0-315.0","0","0","76036","","null","","","null","34","","","","","","","","","","","","","","","NaN",""
"","S1","","html-keyboard-response","232","520649","0.0-1.0-317.0","0","0","76036","","null","","","null","35","","","","","","","","","","","","","","","",""
"","ISI","","html-keyboard-response","233","521653","0.0-1.0-318.0","0","0","76036","","null","","","null","35","NaN","","","","","","","","","","","","","","",""
"","S2","","html-keyboard-response","234","521906","0.0-1.0-319.0","0","0","76036","","null","","","null","35","","NaN","","","","","","","","","","","","","",""
"","response","","html-keyboard-response","235","523060","0.0-1.0-320.0-0.0","0","0","76036","","1152","","","68","35","","","1","35","training","adjacent","GF","7","6","P.jpg","Q.jpg","1","0","0","",""
"","feedback","","html-keyboard-response","236","524063","0.0-1.0-321.0-0.0","0","0","76036","","null","","","null","35","","","","","","","","","","","","","","","",""
"","time_out","","html-keyboard-response","237","526066","0.0-1.0-323.0-0.0","0","0","76036","","null","","","null","35","","","","","","","","","","","","","","","",""
"","ITI","","html-keyboard-response","238","527070","0.0-1.0-324.0","0","0","76036","","null","","","null","35","","","","","","","","","","","","","","","NaN",""
"","S1","","html-keyboard-response","239","527325","0.0-1.0-326.0","0","0","76036","","null","","","null","36","","","","","","","","","","","","","","","",""
"","ISI","","html-keyboard-response","240","528329","0.0-1.0-327.0","0","0","76036","","null","","","null","36","NaN","","","","","","","","","","","","","","",""
"","S2","","html-keyboard-response","241","528585","0.0-1.0-328.0","0","0","76036","","null","","","null","36","","NaN","","","","","","","","","","","","","",""
"","response","","html-keyboard-response","242","529559","0.0-1.0-329.0-0.0","0","0","76036","","970","","","75","36","","","1","36","training","adjacent","GF","7","6","P.jpg","Q.jpg","0","0","1","",""
"","feedback","","html-keyboard-response","243","530564","0.0-1.0-330.0-0.0","0","0","76036","","null","","","null","36","","","","","","","","","","","","","","","",""
"","ITI","","html-keyboard-response","244","531571","0.0-1.0-333.0","0","0","76036","","null","","","null","36","","","","","","","","","","","","","","","NaN",""
"","S1","","html-keyboard-response","245","531826","0.0-1.0-335.0","0","0","76036","","null","","","null","37","","","","","","","","","","","","","","","",""
"","ISI","","html-keyboard-response","246","532830","0.0-1.0-336.0","0","0","76036","","null","","","null","37","NaN","","","","","","","","","","","","","","",""
"","S2","","html-keyboard-response","247","533084","0.0-1.0-337.0","0","0","76036","","null","","","null","37","","NaN","","","","","","","","","","","","","",""
"","response","","html-keyboard-response","248","533766","0.0-1.0-338.0-0.0","0","0","76036","","680","","","68","37","","","1","37","training","adjacent","FG","6","7","Q.jpg","P.jpg","1","1","1","",""
"","feedback","","html-keyboard-response","249","534771","0.0-1.0-339.0-0.0","0","0","76036","","null","","","null","37","","","","","","","","","","","","","","","",""
"","ITI","","html-keyboard-response","250","535775","0.0-1.0-342.0","0","0","76036","","null","","","null","37","","","","","","","","","","","","","","","NaN",""
"","S1","","html-keyboard-response","251","536030","0.0-1.0-344.0","0","0","76036","","null","","","null","38","","","","","","","","","","","","","","","",""
"","ISI","","html-keyboard-response","252","537034","0.0-1.0-345.0","0","0","76036","","null","","","null","38","NaN","","","","","","","","","","","","","","",""
"","S2","","html-keyboard-response","253","537291","0.0-1.0-346.0","0","0","76036","","null","","","null","38","","NaN","","","","","","","","","","","","","",""
"","response","","html-keyboard-response","254","538576","0.0-1.0-347.0-0.0","0","0","76036","","1282","","","75","38","","","1","38","training","adjacent","FE","6","5","Q.jpg","R.jpg","0","0","1","",""
"","feedback","","html-keyboard-response","255","539580","0.0-1.0-348.0-0.0","0","0","76036","","null","","","null","38","","","","","","","","","","","","","","","",""
"","ITI","","html-keyboard-response","256","540583","0.0-1.0-351.0","0","0","76036","","null","","","null","38","","","","","","","","","","","","","","","NaN",""
"","S1","","html-keyboard-response","257","540835","0.0-1.0-353.0","0","0","76036","","null","","","null","39","","","","","","","","","","","","","","","",""
"","ISI","","html-keyboard-response","258","541838","0.0-1.0-354.0","0","0","76036","","null","","","null","39","NaN","","","","","","","","","","","","","","",""
"","S2","","html-keyboard-response","259","542090","0.0-1.0-355.0","0","0","76036","","null","","","null","39","","NaN","","","","","","","","","","","","","",""
"","response","","html-keyboard-response","260","542738","0.0-1.0-356.0-0.0","0","0","76036","","646","","","75","39","","","1","39","training","adjacent","CB","3","2","N.jpg","M.jpg","0","0","1","",""
"","feedback","","html-keyboard-response","261","543741","0.0-1.0-357.0-0.0","0","0","76036","","null","","","null","39","","","","","","","","","","","","","","","",""
"","ITI","","html-keyboard-response","262","544743","0.0-1.0-360.0","0","0","76036","","null","","","null","39","","","","","","","","","","","","","","","NaN",""
"","S1","","html-keyboard-response","263","544995","0.0-1.0-362.0","0","0","76036","","null","","","null","40","","","","","","","","","","","","","","","",""
"","ISI","","html-keyboard-response","264","546000","0.0-1.0-363.0","0","0","76036","","null","","","null","40","NaN","","","","","","","","","","","","","","",""
"","S2","","html-keyboard-response","265","546255","0.0-1.0-364.0","0","0","76036","","null","","","null","40","","NaN","","","","","","","","","","","","","",""
"","response","","html-keyboard-response","266","546717","0.0-1.0-365.0-0.0","0","0","76036","","460","","","68","40","","","1","40","training","adjacent","DE","4","5","L.jpg","R.jpg","1","1","1","",""
"","feedback","","html-keyboard-response","267","547723","0.0-1.0-366.0-0.0","0","0","76036","","null","","","null","40","","","","","","","","","","","","","","","",""
"","ITI","","html-keyboard-response","268","548730","0.0-1.0-369.0","0","0","76036","","null","","","null","40","","","","","","","","","","","","","","","NaN",""
"","S1","","html-keyboard-response","269","548985","0.0-1.0-371.0","0","0","76036","","null","","","null","41","","","","","","","","","","","","","","","",""
"","ISI","","html-keyboard-response","270","549990","0.0-1.0-372.0","0","0","76036","","null","","","null","41","NaN","","","","","","","","","","","","","","",""
"","S2","","html-keyboard-response","271","550257","0.0-1.0-373.0","0","0","76036","","null","","","null","41","","NaN","","","","","","","","","","","","","",""
"","response","","html-keyboard-response","272","551115","0.0-1.0-374.0-0.0","0","0","76036","","855","","","68","41","","","1","41","training","adjacent","EF","5","6","R.jpg","Q.jpg","1","1","1","",""
"","feedback","","html-keyboard-response","273","552120","0.0-1.0-375.0-0.0","0","0","76036","","null","","","null","41","","","","","","","","","","","","","","","",""
"","ITI","","html-keyboard-response","274","553126","0.0-1.0-378.0","0","0","76036","","null","","","null","41","","","","","","","","","","","","","","","NaN",""
"","S1","","html-keyboard-response","275","553380","0.0-1.0-380.0","0","0","76036","","null","","","null","42","","","","","","","","","","","","","","","",""
"","ISI","","html-keyboard-response","276","554384","0.0-1.0-381.0","0","0","76036","","null","","","null","42","NaN","","","","","","","","","","","","","","",""
"","S2","","html-keyboard-response","277","554637","0.0-1.0-382.0","0","0","76036","","null","","","null","42","","NaN","","","","","","","","","","","","","",""
"","response","","html-keyboard-response","278","555318","0.0-1.0-383.0-0.0","0","0","76036","","678","","","75","42","","","1","42","training","adjacent","GF","7","6","P.jpg","Q.jpg","0","0","1","",""
"","feedback","","html-keyboard-response","279","556325","0.0-1.0-384.0-0.0","0","0","76036","","null","","","null","42","","","","","","","","","","","","","","","",""
"","ITI","","html-keyboard-response","280","557330","0.0-1.0-387.0","0","0","76036","","null","","","null","42","","","","","","","","","","","","","","","NaN",""
"","S1","","html-keyboard-response","281","557584","0.0-1.0-389.0","0","0","76036","","null","","","null","43","","","","","","","","","","","","","","","",""
"","ISI","","html-keyboard-response","282","558587","0.0-1.0-390.0","0","0","76036","","null","","","null","43","NaN","","","","","","","","","","","","","","",""
"","S2","","html-keyboard-response","283","558843","0.0-1.0-391.0","0","0","76036","","null","","","null","43","","NaN","","","","","","","","","","","","","",""
"","response","","html-keyboard-response","284","559891","0.0-1.0-392.0-0.0","0","0","76036","","1045","","","68","43","","","1","43","training","adjacent","DE","4","5","L.jpg","R.jpg","1","1","1","",""
"","feedback","","html-keyboard-response","285","560899","0.0-1.0-393.0-0.0","0","0","76036","","null","","","null","43","","","","","","","","","","","","","","","",""
"","ITI","","html-keyboard-response","286","561901","0.0-1.0-396.0","0","0","76036","","null","","","null","43","","","","","","","","","","","","","","","NaN",""
"","S1","","html-keyboard-response","287","562159","0.0-1.0-398.0","0","0","76036","","null","","","null","44","","","","","","","","","","","","","","","",""
"","ISI","","html-keyboard-response","288","563163","0.0-1.0-399.0","0","0","76036","","null","","","null","44","NaN","","","","","","","","","","","","","","",""
"","S2","","html-keyboard-response","289","563419","0.0-1.0-400.0","0","0","76036","","null","","","null","44","","NaN","","","","","","","","","","","","","",""
"","response","","html-keyboard-response","290","563897","0.0-1.0-401.0-0.0","0","0","76036","","476","","","75","44","","","1","44","training","adjacent","AB","1","2","O.jpg","M.jpg","0","1","0","",""
"","feedback","","html-keyboard-response","291","564901","0.0-1.0-402.0-0.0","0","0","76036","","null","","","null","44","","","","","","","","","","","","","","","",""
"","time_out","","html-keyboard-response","292","566905","0.0-1.0-404.0-0.0","0","0","76036","","null","","","null","44","","","","","","","","","","","","","","","",""
"","ITI","","html-keyboard-response","293","567909","0.0-1.0-405.0","0","0","76036","","null","","","null","44","","","","","","","","","","","","","","","NaN",""
"","S1","","html-keyboard-response","294","568163","0.0-1.0-407.0","0","0","76036","","null","","","null","45","","","","","","","","","","","","","","","",""
"","ISI","","html-keyboard-response","295","569168","0.0-1.0-408.0","0","0","76036","","null","","","null","45","NaN","","","","","","","","","","","","","","",""
"","S2","","html-keyboard-response","296","569424","0.0-1.0-409.0","0","0","76036","","null","","","null","45","","NaN","","","","","","","","","","","","","",""
"","response","","html-keyboard-response","297","570266","0.0-1.0-410.0-0.0","0","0","76036","","840","","","75","45","","","1","45","training","adjacent","FE","6","5","Q.jpg","R.jpg","0","0","1","",""
"","feedback","","html-keyboard-response","298","571271","0.0-1.0-411.0-0.0","0","0","76036","","null","","","null","45","","","","","","","","","","","","","","","",""
"","ITI","","html-keyboard-response","299","572274","0.0-1.0-414.0","0","0","76036","","null","","","null","45","","","","","","","","","","","","","","","NaN",""
"","S1","","html-keyboard-response","300","572529","0.0-1.0-416.0","0","0","76036","","null","","","null","46","","","","","","","","","","","","","","","",""
"","ISI","","html-keyboard-response","301","573534","0.0-1.0-417.0","0","0","76036","","null","","","null","46","NaN","","","","","","","","","","","","","","",""
"","S2","","html-keyboard-response","302","573789","0.0-1.0-418.0","0","0","76036","","null","","","null","46","","NaN","","","","","","","","","","","","","",""
"","response","","html-keyboard-response","303","574242","0.0-1.0-419.0-0.0","0","0","76036","","452","","","75","46","","","1","46","training","adjacent","CD","3","4","N.jpg","L.jpg","0","1","0","",""
"","feedback","","html-keyboard-response","304","575246","0.0-1.0-420.0-0.0","0","0","76036","","null","","","null","46","","","","","","","","","","","","","","","",""
"","time_out","","html-keyboard-response","305","577252","0.0-1.0-422.0-0.0","0","0","76036","","null","","","null","46","","","","","","","","","","","","","","","",""
"","ITI","","html-keyboard-response","306","578254","0.0-1.0-423.0","0","0","76036","","null","","","null","46","","","","","","","","","","","","","","","NaN",""
"","S1","","html-keyboard-response","307","578511","0.0-1.0-425.0","0","0","76036","","null","","","null","47","","","","","","","","","","","","","","","",""
"","ISI","","html-keyboard-response","308","579516","0.0-1.0-426.0","0","0","76036","","null","","","null","47","NaN","","","","","","","","","","","","","","",""
"","S2","","html-keyboard-response","309","579772","0.0-1.0-427.0","0","0","76036","","null","","","null","47","","NaN","","","","","","","","","","","","","",""
"","response","","html-keyboard-response","310","580582","0.0-1.0-428.0-0.0","0","0","76036","","807","","","68","47","","","1","47","training","adjacent","DC","4","3","L.jpg","N.jpg","1","0","0","",""
"","feedback","","html-keyboard-response","311","581586","0.0-1.0-429.0-0.0","0","0","76036","","null","","","null","47","","","","","","","","","","","","","","","",""
"","time_out","","html-keyboard-response","312","583588","0.0-1.0-431.0-0.0","0","0","76036","","null","","","null","47","","","","","","","","","","","","","","","",""
"","ITI","","html-keyboard-response","313","584591","0.0-1.0-432.0","0","0","76036","","null","","","null","47","","","","","","","","","","","","","","","NaN",""
"","block_over","","html-keyboard-response","314","586784","0.0-1.0-433.0-0.0","0","0","76036","","2190","","","32","47","","","","","","","","","","","","","","","",""
"","S1","","html-keyboard-response","315","587037","0.0-1.0-434.0","0","0","76036","","null","","","null","48","","","","","","","","","","","","","","","",""
"","ISI","","html-keyboard-response","316","588039","0.0-1.0-435.0","0","0","76036","","null","","","null","48","NaN","","","","","","","","","","","","","","",""
"","S2","","html-keyboard-response","317","588291","0.0-1.0-436.0","0","0","76036","","null","","","null","48","","NaN","","","","","","","","","","","","","",""
"","response","","html-keyboard-response","318","589711","0.0-1.0-437.0-0.0","0","0","76036","","1418","","","68","48","","","2","48","training","adjacent","DC","4","3","L.jpg","N.jpg","1","0","0","",""
"","feedback","","html-keyboard-response","319","590715","0.0-1.0-438.0-0.0","0","0","76036","","null","","","null","48","","","","","","","","","","","","","","","",""
"","time_out","","html-keyboard-response","320","592717","0.0-1.0-440.0-0.0","0","0","76036","","null","","","null","48","","","","","","","","","","","","","","","",""
"","ITI","","html-keyboard-response","321","593722","0.0-1.0-441.0","0","0","76036","","null","","","null","48","","","","","","","","","","","","","","","NaN",""
"","S1","","html-keyboard-response","322","593977","0.0-1.0-443.0","0","0","76036","","null","","","null","49","","","","","","","","","","","","","","","",""
"","ISI","","html-keyboard-response","323","594983","0.0-1.0-444.0","0","0","76036","","null","","","null","49","NaN","","","","","","","","","","","","","","",""
"","S2","","html-keyboard-response","324","595238","0.0-1.0-445.0","0","0","76036","","null","","","null","49","","NaN","","","","","","","","","","","","","",""
"","response","","html-keyboard-response","325","596405","0.0-1.0-446.0-0.0","0","0","76036","","1162","","","75","49","","","2","49","training","adjacent","BA","2","1","M.jpg","O.jpg","0","0","1","",""
"","feedback","","html-keyboard-response","326","597410","0.0-1.0-447.0-0.0","0","0","76036","","null","","","null","49","","","","","","","","","","","","","","","",""
"","ITI","","html-keyboard-response","327","598415","0.0-1.0-450.0","0","0","76036","","null","","","null","49","","","","","","","","","","","","","","","NaN",""
"","S1","","html-keyboard-response","328","598670","0.0-1.0-452.0","0","0","76036","","null","","","null","50","","","","","","","","","","","","","","","",""
"","ISI","","html-keyboard-response","329","599674","0.0-1.0-453.0","0","0","76036","","null","","","null","50","NaN","","","","","","","","","","","","","","",""
"","S2","","html-keyboard-response","330","599928","0.0-1.0-454.0","0","0","76036","","null","","","null","50","","NaN","","","","","","","","","","","","","",""
"","response","","html-keyboard-response","331","601102","0.0-1.0-455.0-0.0","0","0","76036","","1170","","","68","50","","","2","50","training","adjacent","CD","3","4","N.jpg","L.jpg","1","1","1","",""
"","feedback","","html-keyboard-response","332","602107","0.0-1.0-456.0-0.0","0","0","76036","","null","","","null","50","","","","","","","","","","","","","","","",""
"","ITI","","html-keyboard-response","333","603113","0.0-1.0-459.0","0","0","76036","","null","","","null","50","","","","","","","","","","","","","","","NaN",""
"","S1","","html-keyboard-response","334","603367","0.0-1.0-461.0","0","0","76036","","null","","","null","51","","","","","","","","","","","","","","","",""
"","ISI","","html-keyboard-response","335","604370","0.0-1.0-462.0","0","0","76036","","null","","","null","51","NaN","","","","","","","","","","","","","","",""
"","S2","","html-keyboard-response","336","604623","0.0-1.0-463.0","0","0","76036","","null","","","null","51","","NaN","","","","","","","","","","","","","",""
"","response","","html-keyboard-response","337","605079","0.0-1.0-464.0-0.0","0","0","76036","","453","","","68","51","","","2","51","training","adjacent","CD","3","4","N.jpg","L.jpg","1","1","1","",""
"","feedback","","html-keyboard-response","338","606083","0.0-1.0-465.0-0.0","0","0","76036","","null","","","null","51","","","","","","","","","","","","","","","",""
"","ITI","","html-keyboard-response","339","607088","0.0-1.0-468.0","0","0","76036","","null","","","null","51","","","","","","","","","","","","","","","NaN",""
"","S1","","html-keyboard-response","340","607342","0.0-1.0-470.0","0","0","76036","","null","","","null","52","","","","","","","","","","","","","","","",""
"","ISI","","html-keyboard-response","341","608347","0.0-1.0-471.0","0","0","76036","","null","","","null","52","NaN","","","","","","","","","","","","","","",""
"","S2","","html-keyboard-response","342","608601","0.0-1.0-472.0","0","0","76036","","null","","","null","52","","NaN","","","","","","","","","","","","","",""
"","response","","html-keyboard-response","343","609823","0.0-1.0-473.0-0.0","0","0","76036","","1221","","","75","52","","","2","52","training","adjacent","DE","4","5","L.jpg","R.jpg","0","1","0","",""
"","feedback","","html-keyboard-response","344","610827","0.0-1.0-474.0-0.0","0","0","76036","","null","","","null","52","","","","","","","","","","","","","","","",""
"","time_out","","html-keyboard-response","345","612830","0.0-1.0-476.0-0.0","0","0","76036","","null","","","null","52","","","","","","","","","","","","","","","",""
"","ITI","","html-keyboard-response","346","613834","0.0-1.0-477.0","0","0","76036","","null","","","null","52","","","","","","","","","","","","","","","NaN",""
"","S1","","html-keyboard-response","347","614088","0.0-1.0-479.0","0","0","76036","","null","","","null","53","","","","","","","","","","","","","","","",""
"","ISI","","html-keyboard-response","348","615091","0.0-1.0-480.0","0","0","76036","","null","","","null","53","NaN","","","","","","","","","","","","","","",""
"","S2","","html-keyboard-response","349","615346","0.0-1.0-481.0","0","0","76036","","null","","","null","53","","NaN","","","","","","","","","","","","","",""
"","response","","html-keyboard-response","350","616493","0.0-1.0-482.0-0.0","0","0","76036","","1143","","","68","53","","","2","53","training","adjacent","EF","5","6","R.jpg","Q.jpg","1","1","1","",""
"","feedback","","html-keyboard-response","351","617499","0.0-1.0-483.0-0.0","0","0","76036","","null","","","null","53","","","","","","","","","","","","","","","",""
"","ITI","","html-keyboard-response","352","618503","0.0-1.0-486.0","0","0","76036","","null","","","null","53","","","","","","","","","","","","","","","NaN",""
"","S1","","html-keyboard-response","353","618756","0.0-1.0-488.0","0","0","76036","","null","","","null","54","","","","","","","","","","","","","","","",""
"","ISI","","html-keyboard-response","354","619773","0.0-1.0-489.0","0","0","76036","","null","","","null","54","NaN","","","","","","","","","","","","","","",""
"","S2","","html-keyboard-response","355","620029","0.0-1.0-490.0","0","0","76036","","null","","","null","54","","NaN","","","","","","","","","","","","","",""
"","response","","html-keyboard-response","356","620516","0.0-1.0-491.0-0.0","0","0","76036","","482","","","75","54","","","2","54","training","adjacent","ED","5","4","R.jpg","L.jpg","0","0","1","",""
"","feedback","","html-keyboard-response","357","621535","0.0-1.0-492.0-0.0","0","0","76036","","null","","","null","54","","","","","","","","","","","","","","","",""
"","ITI","","html-keyboard-response","358","622539","0.0-1.0-495.0","0","0","76036","","null","","","null","54","","","","","","","","","","","","","","","NaN",""
"","S1","","html-keyboard-response","359","622793","0.0-1.0-497.0","0","0","76036","","null","","","null","55","","","","","","","","","","","","","","","",""
"","ISI","","html-keyboard-response","360","623796","0.0-1.0-498.0","0","0","76036","","null","","","null","55","NaN","","","","","","","","","","","","","","",""
"","S2","","html-keyboard-response","361","624050","0.0-1.0-499.0","0","0","76036","","null","","","null","55","","NaN","","","","","","","","","","","","","",""
"","response","","html-keyboard-response","362","624624","0.0-1.0-500.0-0.0","0","0","76036","","570","","","68","55","","","2","55","training","adjacent","DE","4","5","L.jpg","R.jpg","1","1","1","",""
"","feedback","","html-keyboard-response","363","625627","0.0-1.0-501.0-0.0","0","0","76036","","null","","","null","55","","","","","","","","","","","","","","","",""
"","ITI","","html-keyboard-response","364","626639","0.0-1.0-504.0","0","0","76036","","null","","","null","55","","","","","","","","","","","","","","","NaN",""
"","S1","","html-keyboard-response","365","626894","0.0-1.0-506.0","0","0","76036","","null","","","null","56","","","","","","","","","","","","","","","",""
"","ISI","","html-keyboard-response","366","627899","0.0-1.0-507.0","0","0","76036","","null","","","null","56","NaN","","","","","","","","","","","","","","",""
"","S2","","html-keyboard-response","367","628152","0.0-1.0-508.0","0","0","76036","","null","","","null","56","","NaN","","","","","","","","","","","","","",""
"","response","","html-keyboard-response","368","629348","0.0-1.0-509.0-0.0","0","0","76036","","1192","","","75","56","","","2","56","training","adjacent","BA","2","1","M.jpg","O.jpg","0","0","1","",""
"","feedback","","html-keyboard-response","369","630354","0.0-1.0-510.0-0.0","0","0","76036","","null","","","null","56","","","","","","","","","","","","","","","",""
"","ITI","","html-keyboard-response","370","631359","0.0-1.0-513.0","0","0","76036","","null","","","null","56","","","","","","","","","","","","","","","NaN",""
"","S1","","html-keyboard-response","371","631612","0.0-1.0-515.0","0","0","76036","","null","","","null","57","","","","","","","","","","","","","","","",""
"","ISI","","html-keyboard-response","372","632615","0.0-1.0-516.0","0","0","76036","","null","","","null","57","NaN","","","","","","","","","","","","","","",""
"","S2","","html-keyboard-response","373","632868","0.0-1.0-517.0","0","0","76036","","null","","","null","57","","NaN","","","","","","","","","","","","","",""
"","response","","html-keyboard-response","374","634004","0.0-1.0-518.0-0.0","0","0","76036","","1132","","","68","57","","","2","57","training","adjacent","AB","1","2","O.jpg","M.jpg","1","1","1","",""
"","feedback","","html-keyboard-response","375","635010","0.0-1.0-519.0-0.0","0","0","76036","","null","","","null","57","","","","","","","","","","","","","","","",""
"","ITI","","html-keyboard-response","376","636016","0.0-1.0-522.0","0","0","76036","","null","","","null","57","","","","","","","","","","","","","","","NaN",""
"","S1","","html-keyboard-response","377","636269","0.0-1.0-524.0","0","0","76036","","null","","","null","58","","","","","","","","","","","","","","","",""
"","ISI","","html-keyboard-response","378","637275","0.0-1.0-525.0","0","0","76036","","null","","","null","58","NaN","","","","","","","","","","","","","","",""
"","S2","","html-keyboard-response","379","637530","0.0-1.0-526.0","0","0","76036","","null","","","null","58","","NaN","","","","","","","","","","","","","",""
"","response","","html-keyboard-response","380","638703","0.0-1.0-527.0-0.0","0","0","76036","","1171","","","75","58","","","2","58","training","adjacent","DE","4","5","L.jpg","R.jpg","0","1","0","",""
"","feedback","","html-keyboard-response","381","639707","0.0-1.0-528.0-0.0","0","0","76036","","null","","","null","58","","","","","","","","","","","","","","","",""
"","time_out","","html-keyboard-response","382","641711","0.0-1.0-530.0-0.0","0","0","76036","","null","","","null","58","","","","","","","","","","","","","","","",""
"","ITI","","html-keyboard-response","383","642714","0.0-1.0-531.0","0","0","76036","","null","","","null","58","","","","","","","","","","","","","","","NaN",""
"","S1","","html-keyboard-response","384","642969","0.0-1.0-533.0","0","0","76036","","null","","","null","59","","","","","","","","","","","","","","","",""
"","ISI","","html-keyboard-response","385","643974","0.0-1.0-534.0","0","0","76036","","null","","","null","59","NaN","","","","","","","","","","","","","","",""
"","S2","","html-keyboard-response","386","644227","0.0-1.0-535.0","0","0","76036","","null","","","null","59","","NaN","","","","","","","","","","","","","",""
"","response","","html-keyboard-response","387","645196","0.0-1.0-536.0-0.0","0","0","76036","","966","","","75","59","","","2","59","training","adjacent","DC","4","3","L.jpg","N.jpg","0","0","1","",""
"","feedback","","html-keyboard-response","388","646200","0.0-1.0-537.0-0.0","0","0","76036","","null","","","null","59","","","","","","","","","","","","","","","",""
"","ITI","","html-keyboard-response","389","647203","0.0-1.0-540.0","0","0","76036","","null","","","null","59","","","","","","","","","","","","","","","NaN",""
"","S1","","html-keyboard-response","390","647456","0.0-1.0-542.0","0","0","76036","","null","","","null","60","","","","","","","","","","","","","","","",""
"","ISI","","html-keyboard-response","391","648459","0.0-1.0-543.0","0","0","76036","","null","","","null","60","NaN","","","","","","","","","","","","","","",""
"","S2","","html-keyboard-response","392","648714","0.0-1.0-544.0","0","0","76036","","null","","","null","60","","NaN","","","","","","","","","","","","","",""
"","response","","html-keyboard-response","393","650351","0.0-1.0-545.0-0.0","0","0","76036","","1635","","","68","60","","","2","60","training","adjacent","AB","1","2","O.jpg","M.jpg","1","1","1","",""
"","feedback","","html-keyboard-response","394","651356","0.0-1.0-546.0-0.0","0","0","76036","","null","","","null","60","","","","","","","","","","","","","","","",""
"","ITI","","html-keyboard-response","395","652361","0.0-1.0-549.0","0","0","76036","","null","","","null","60","","","","","","","","","","","","","","","NaN",""
"","S1","","html-keyboard-response","396","652615","0.0-1.0-551.0","0","0","76036","","null","","","null","61","","","","","","","","","","","","","","","",""
"","ISI","","html-keyboard-response","397","653617","0.0-1.0-552.0","0","0","76036","","null","","","null","61","NaN","","","","","","","","","","","","","","",""
"","S2","","html-keyboard-response","398","653870","0.0-1.0-553.0","0","0","76036","","null","","","null","61","","NaN","","","","","","","","","","","","","",""
"","response","","html-keyboard-response","399","654719","0.0-1.0-554.0-0.0","0","0","76036","","847","","","68","61","","","2","61","training","adjacent","CD","3","4","N.jpg","L.jpg","1","1","1","",""
"","feedback","","html-keyboard-response","400","655722","0.0-1.0-555.0-0.0","0","0","76036","","null","","","null","61","","","","","","","","","","","","","","","",""
"","ITI","","html-keyboard-response","401","656727","0.0-1.0-558.0","0","0","76036","","null","","","null","61","","","","","","","","","","","","","","","NaN",""
"","S1","","html-keyboard-response","402","656982","0.0-1.0-560.0","0","0","76036","","null","","","null","62","","","","","","","","","","","","","","","",""
"","ISI","","html-keyboard-response","403","657992","0.0-1.0-561.0","0","0","76036","","null","","","null","62","NaN","","","","","","","","","","","","","","",""
"","S2","","html-keyboard-response","404","658047","0.0-1.0-562.0","0","0","76036","","53","","","68","62","","d","2","62","training","adjacent","FE","6","5","Q.jpg","R.jpg","1","0","0","",""
"","feedback","","html-keyboard-response","405","659050","0.0-1.0-564.0-0.0","0","0","76036","","null","","","null","62","","","","","","","","","","","","","","","",""
"","time_out","","html-keyboard-response","406","661054","0.0-1.0-566.0-0.0","0","0","76036","","null","","","null","62","","","","","","","","","","","","","","","",""
"","ITI","","html-keyboard-response","407","662056","0.0-1.0-567.0","0","0","76036","","null","","","null","62","","","","","","","","","","","","","","","NaN",""
"","S1","","html-keyboard-response","408","662312","0.0-1.0-569.0","0","0","76036","","null","","","null","63","","","","","","","","","","","","","","","",""
"","ISI","","html-keyboard-response","409","663319","0.0-1.0-570.0","0","0","76036","","null","","","null","63","NaN","","","","","","","","","","","","","","",""
"","S2","","html-keyboard-response","410","663577","0.0-1.0-571.0","0","0","76036","","null","","","null","63","","NaN","","","","","","","","","","","","","",""
"","response","","html-keyboard-response","411","664657","0.0-1.0-572.0-0.0","0","0","76036","","1076","","","68","63","","","2","63","training","adjacent","CB","3","2","N.jpg","M.jpg","1","0","0","",""
"","feedback","","html-keyboard-response","412","665660","0.0-1.0-573.0-0.0","0","0","76036","","null","","","null","63","","","","","","","","","","","","","","","",""
"","time_out","","html-keyboard-response","413","667674","0.0-1.0-575.0-0.0","0","0","76036","","null","","","null","63","","","","","","","","","","","","","","","",""
"","ITI","","html-keyboard-response","414","668678","0.0-1.0-576.0","0","0","76036","","null","","","null","63","","","","","","","","","","","","","","","NaN",""
"","S1","","html-keyboard-response","415","668932","0.0-1.0-578.0","0","0","76036","","null","","","null","64","","","","","","","","","","","","","","","",""
"","ISI","","html-keyboard-response","416","669936","0.0-1.0-579.0","0","0","76036","","null","","","null","64","NaN","","","","","","","","","","","","","","",""
"","S2","","html-keyboard-response","417","670189","0.0-1.0-580.0","0","0","76036","","null","","","null","64","","NaN","","","","","","","","","","","","","",""
"","response","","html-keyboard-response","418","671387","0.0-1.0-581.0-0.0","0","0","76036","","1194","","","75","64","","","2","64","training","adjacent","FE","6","5","Q.jpg","R.jpg","0","0","1","",""
"","feedback","","html-keyboard-response","419","672392","0.0-1.0-582.0-0.0","0","0","76036","","null","","","null","64","","","","","","","","","","","","","","","",""
"","ITI","","html-keyboard-response","420","673396","0.0-1.0-585.0","0","0","76036","","null","","","null","64","","","","","","","","","","","","","","","NaN",""
"","S1","","html-keyboard-response","421","673649","0.0-1.0-587.0","0","0","76036","","null","","","null","65","","","","","","","","","","","","","","","",""
"","ISI","","html-keyboard-response","422","674660","0.0-1.0-588.0","0","0","76036","","null","","","null","65","NaN","","","","","","","","","","","","","","",""
"","S2","","html-keyboard-response","423","674916","0.0-1.0-589.0","0","0","76036","","null","","","null","65","","NaN","","","","","","","","","","","","","",""
"","response","","html-keyboard-response","424","676155","0.0-1.0-590.0-0.0","0","0","76036","","1234","","","68","65","","","2","65","training","adjacent","FG","6","7","Q.jpg","P.jpg","1","1","1","",""
"","feedback","","html-keyboard-response","425","677161","0.0-1.0-591.0-0.0","0","0","76036","","null","","","null","65","","","","","","","","","","","","","","","",""
"","ITI","","html-keyboard-response","426","678166","0.0-1.0-594.0","0","0","76036","","null","","","null","65","","","","","","","","","","","","","","","NaN",""
"","S1","","html-keyboard-response","427","678420","0.0-1.0-596.0","0","0","76036","","null","","","null","66","","","","","","","","","","","","","","","",""
"","ISI","","html-keyboard-response","428","679424","0.0-1.0-597.0","0","0","76036","","null","","","null","66","NaN","","","","","","","","","","","","","","",""
"","S2","","html-keyboard-response","429","679680","0.0-1.0-598.0","0","0","76036","","null","","","null","66","","NaN","","","","","","","","","","","","","",""
"","response","","html-keyboard-response","430","680577","0.0-1.0-599.0-0.0","0","0","76036","","887","","","68","66","","","2","66","training","adjacent","EF","5","6","R.jpg","Q.jpg","1","1","1","",""
"","feedback","","html-keyboard-response","431","681583","0.0-1.0-600.0-0.0","0","0","76036","","null","","","null","66","","","","","","","","","","","","","","","",""
"","ITI","","html-keyboard-response","432","682587","0.0-1.0-603.0","0","0","76036","","null","","","null","66","","","","","","","","","","","","","","","NaN",""
"","S1","","html-keyboard-response","433","682842","0.0-1.0-605.0","0","0","76036","","null","","","null","67","","","","","","","","","","","","","","","",""
"","ISI","","html-keyboard-response","434","683845","0.0-1.0-606.0","0","0","76036","","687","","","68","67","d","","","","","","","","","","","","","","",""
"","S2","","html-keyboard-response","435","684102","0.0-1.0-607.0","0","0","76036","","null","","","null","67","","NaN","","","","","","","","","","","","","",""
"","response","","html-keyboard-response","436","684766","0.0-1.0-608.0-0.0","0","0","76036","","662","","","75","67","","","2","67","training","adjacent","CB","3","2","N.jpg","M.jpg","0","0","1","",""
"","feedback","","html-keyboard-response","437","685772","0.0-1.0-609.0-0.0","0","0","76036","","null","","","null","67","","","","","","","","","","","","","","","",""
"","ITI","","html-keyboard-response","438","686777","0.0-1.0-612.0","0","0","76036","","null","","","null","67","","","","","","","","","","","","","","","NaN",""
"","S1","","html-keyboard-response","439","687030","0.0-1.0-614.0","0","0","76036","","null","","","null","68","","","","","","","","","","","","","","","",""
"","ISI","","html-keyboard-response","440","688032","0.0-1.0-615.0","0","0","76036","","null","","","null","68","NaN","","","","","","","","","","","","","","",""
"","S2","","html-keyboard-response","441","688285","0.0-1.0-616.0","0","0","76036","","null","","","null","68","","NaN","","","","","","","","","","","","","",""
"","response","","html-keyboard-response","442","689054","0.0-1.0-617.0-0.0","0","0","76036","","767","","","68","68","","","2","68","training","adjacent","FE","6","5","Q.jpg","R.jpg","1","0","0","",""
"","feedback","","html-keyboard-response","443","690057","0.0-1.0-618.0-0.0","0","0","76036","","null","","","null","68","","","","","","","","","","","","","","","",""
"","time_out","","html-keyboard-response","444","692063","0.0-1.0-620.0-0.0","0","0","76036","","null","","","null","68","","","","","","","","","","","","","","","",""
"","ITI","","html-keyboard-response","445","693068","0.0-1.0-621.0","0","0","76036","","null","","","null","68","","","","","","","","","","","","","","","NaN",""
"","S1","","html-keyboard-response","446","693321","0.0-1.0-623.0","0","0","76036","","null","","","null","69","","","","","","","","","","","","","","","",""
"","ISI","","html-keyboard-response","447","694323","0.0-1.0-624.0","0","0","76036","","null","","","null","69","NaN","","","","","","","","","","","","","","",""
"","S2","","html-keyboard-response","448","694578","0.0-1.0-625.0","0","0","76036","","null","","","null","69","","NaN","","","","","","","","","","","","","",""
"","response","","html-keyboard-response","449","695657","0.0-1.0-626.0-0.0","0","0","76036","","1074","","","68","69","","","2","69","training","adjacent","EF","5","6","R.jpg","Q.jpg","1","1","1","",""
"","feedback","","html-keyboard-response","450","696662","0.0-1.0-627.0-0.0","0","0","76036","","null","","","null","69","","","","","","","","","","","","","","","",""
"","ITI","","html-keyboard-response","451","697666","0.0-1.0-630.0","0","0","76036","","null","","","null","69","","","","","","","","","","","","","","","NaN",""
"","S1","","html-keyboard-response","452","697921","0.0-1.0-632.0","0","0","76036","","null","","","null","70","","","","","","","","","","","","","","","",""
"","ISI","","html-keyboard-response","453","698926","0.0-1.0-633.0","0","0","76036","","null","","","null","70","NaN","","","","","","","","","","","","","","",""
"","S2","","html-keyboard-response","454","699181","0.0-1.0-634.0","0","0","76036","","null","","","null","70","","NaN","","","","","","","","","","","","","",""
"","response","","html-keyboard-response","455","700742","0.0-1.0-635.0-0.0","0","0","76036","","1558","","","75","70","","","2","70","training","adjacent","GF","7","6","P.jpg","Q.jpg","0","0","1","",""
"","feedback","","html-keyboard-response","456","701748","0.0-1.0-636.0-0.0","0","0","76036","","null","","","null","70","","","","","","","","","","","","","","","",""
"","ITI","","html-keyboard-response","457","702752","0.0-1.0-639.0","0","0","76036","","null","","","null","70","","","","","","","","","","","","","","","NaN",""
"","S1","","html-keyboard-response","458","703007","0.0-1.0-641.0","0","0","76036","","null","","","null","71","","","","","","","","","","","","","","","",""
"","ISI","","html-keyboard-response","459","704012","0.0-1.0-642.0","0","0","76036","","null","","","null","71","NaN","","","","","","","","","","","","","","",""
"","S2","","html-keyboard-response","460","704265","0.0-1.0-643.0","0","0","76036","","null","","","null","71","","NaN","","","","","","","","","","","","","",""
"","response","","html-keyboard-response","461","705406","0.0-1.0-644.0-0.0","0","0","76036","","1140","","","68","71","","","2","71","training","adjacent","ED","5","4","R.jpg","L.jpg","1","0","0","",""
"","feedback","","html-keyboard-response","462","706413","0.0-1.0-645.0-0.0","0","0","76036","","null","","","null","71","","","","","","","","","","","","","","","",""
"","time_out","","html-keyboard-response","463","708417","0.0-1.0-647.0-0.0","0","0","76036","","null","","","null","71","","","","","","","","","","","","","","","",""
"","ITI","","html-keyboard-response","464","709421","0.0-1.0-648.0","0","0","76036","","null","","","null","71","","","","","","","","","","","","","","","NaN",""
"","S1","","html-keyboard-response","465","709676","0.0-1.0-650.0","0","0","76036","","null","","","null","72","","","","","","","","","","","","","","","",""
"","ISI","","html-keyboard-response","466","710680","0.0-1.0-651.0","0","0","76036","","null","","","null","72","NaN","","","","","","","","","","","","","","",""
"","S2","","html-keyboard-response","467","710933","0.0-1.0-652.0","0","0","76036","","null","","","null","72","","NaN","","","","","","","","","","","","","",""
"","response","","html-keyboard-response","468","712214","0.0-1.0-653.0-0.0","0","0","76036","","1279","","","75","72","","","2","72","training","adjacent","ED","5","4","R.jpg","L.jpg","0","0","1","",""
"","feedback","","html-keyboard-response","469","713218","0.0-1.0-654.0-0.0","0","0","76036","","null","","","null","72","","","","","","","","","","","","","","","",""
"","ITI","","html-keyboard-response","470","714222","0.0-1.0-657.0","0","0","76036","","null","","","null","72","","","","","","","","","","","","","","","NaN",""
"","S1","","html-keyboard-response","471","714474","0.0-1.0-659.0","0","0","76036","","null","","","null","73","","","","","","","","","","","","","","","",""
"","ISI","","html-keyboard-response","472","715478","0.0-1.0-660.0","0","0","76036","","null","","","null","73","NaN","","","","","","","","","","","","","","",""
"","S2","","html-keyboard-response","473","715732","0.0-1.0-661.0","0","0","76036","","null","","","null","73","","NaN","","","","","","","","","","","","","",""
"","response","","html-keyboard-response","474","717486","0.0-1.0-662.0-0.0","0","0","76036","","null","","","null","73","","","2","73","training","adjacent","CB","3","2","N.jpg","M.jpg","NaN","0","0","",""
"","too_slow_prompt","","html-keyboard-response","475","718490","0.0-1.0-664.0-0.0","1","0","76036","","null","","","null","","","","","","","","","","","","","","","","",""
"","time_out","","html-keyboard-response","476","720494","0.0-1.0-665.0-0.0","0","0","76036","","null","","","null","73","","","","","","","","","","","","","","","",""
"","ITI","","html-keyboard-response","477","721498","0.0-1.0-666.0","0","0","76036","","null","","","null","73","","","","","","","","","","","","","","","NaN",""
"","S1","","html-keyboard-response","478","721752","0.0-1.0-668.0","0","0","76036","","null","","","null","74","","","","","","","","","","","","","","","",""
"","ISI","","html-keyboard-response","479","722755","0.0-1.0-669.0","0","0","76036","","null","","","null","74","NaN","","","","","","","","","","","","","","",""
"","S2","","html-keyboard-response","480","723009","0.0-1.0-670.0","0","0","76036","","null","","","null","74","","NaN","","","","","","","","","","","","","",""
"","response","","html-keyboard-response","481","723994","0.0-1.0-671.0-0.0","0","0","76036","","981","","","68","74","","","2","74","training","adjacent","FG","6","7","Q.jpg","P.jpg","1","1","1","",""
"","feedback","","html-keyboard-response","482","724999","0.0-1.0-672.0-0.0","0","0","76036","","null","","","null","74","","","","","","","","","","","","","","","",""
"","ITI","","html-keyboard-response","483","726002","0.0-1.0-675.0","0","0","76036","","null","","","null","74","","","","","","","","","","","","","","","NaN",""
"","S1","","html-keyboard-response","484","726255","0.0-1.0-677.0","0","0","76036","","null","","","null","75","","","","","","","","","","","","","","","",""
"","ISI","","html-keyboard-response","485","727259","0.0-1.0-678.0","0","0","76036","","null","","","null","75","NaN","","","","","","","","","","","","","","",""
"","S2","","html-keyboard-response","486","727513","0.0-1.0-679.0","0","0","76036","","null","","","null","75","","NaN","","","","","","","","","","","","","",""
"","response","","html-keyboard-response","487","728172","0.0-1.0-680.0-0.0","0","0","76036","","657","","","75","75","","","2","75","training","adjacent","CB","3","2","N.jpg","M.jpg","0","0","1","",""
"","feedback","","html-keyboard-response","488","729175","0.0-1.0-681.0-0.0","0","0","76036","","null","","","null","75","","","","","","","","","","","","","","","",""
"","ITI","","html-keyboard-response","489","730177","0.0-1.0-684.0","0","0","76036","","null","","","null","75","","","","","","","","","","","","","","","NaN",""
"","S1","","html-keyboard-response","490","730431","0.0-1.0-686.0","0","0","76036","","null","","","null","76","","","","","","","","","","","","","","","",""
"","ISI","","html-keyboard-response","491","731435","0.0-1.0-687.0","0","0","76036","","null","","","null","76","NaN","","","","","","","","","","","","","","",""
"","S2","","html-keyboard-response","492","731691","0.0-1.0-688.0","0","0","76036","","null","","","null","76","","NaN","","","","","","","","","","","","","",""
"","response","","html-keyboard-response","493","732389","0.0-1.0-689.0-0.0","0","0","76036","","694","","","75","76","","","2","76","training","adjacent","DC","4","3","L.jpg","N.jpg","0","0","1","",""
"","feedback","","html-keyboard-response","494","733392","0.0-1.0-690.0-0.0","0","0","76036","","null","","","null","76","","","","","","","","","","","","","","","",""
"","ITI","","html-keyboard-response","495","734397","0.0-1.0-693.0","0","0","76036","","null","","","null","76","","","","","","","","","","","","","","","NaN",""
"","S1","","html-keyboard-response","496","734651","0.0-1.0-695.0","0","0","76036","","null","","","null","77","","","","","","","","","","","","","","","",""
"","ISI","","html-keyboard-response","497","735655","0.0-1.0-696.0","0","0","76036","","null","","","null","77","NaN","","","","","","","","","","","","","","",""
"","S2","","html-keyboard-response","498","735911","0.0-1.0-697.0","0","0","76036","","null","","","null","77","","NaN","","","","","","","","","","","","","",""
"","response","","html-keyboard-response","499","736770","0.0-1.0-698.0-0.0","0","0","76036","","855","","","68","77","","","2","77","training","adjacent","FG","6","7","Q.jpg","P.jpg","1","1","1","",""
"","feedback","","html-keyboard-response","500","737775","0.0-1.0-699.0-0.0","0","0","76036","","null","","","null","77","","","","","","","","","","","","","","","",""
"","ITI","","html-keyboard-response","501","738777","0.0-1.0-702.0","0","0","76036","","null","","","null","77","","","","","","","","","","","","","","","NaN",""
"","S1","","html-keyboard-response","502","739031","0.0-1.0-704.0","0","0","76036","","null","","","null","78","","","","","","","","","","","","","","","",""
"","ISI","","html-keyboard-response","503","740034","0.0-1.0-705.0","0","0","76036","","null","","","null","78","NaN","","","","","","","","","","","","","","",""
"","S2","","html-keyboard-response","504","740288","0.0-1.0-706.0","0","0","76036","","null","","","null","78","","NaN","","","","","","","","","","","","","",""
"","response","","html-keyboard-response","505","741708","0.0-1.0-707.0-0.0","0","0","76036","","1418","","","75","78","","","2","78","training","adjacent","DE","4","5","L.jpg","R.jpg","0","1","0","",""
"","feedback","","html-keyboard-response","506","742716","0.0-1.0-708.0-0.0","0","0","76036","","null","","","null","78","","","","","","","","","","","","","","","",""
"","time_out","","html-keyboard-response","507","744720","0.0-1.0-710.0-0.0","0","0","76036","","null","","","null","78","","","","","","","","","","","","","","","",""
"","ITI","","html-keyboard-response","508","745723","0.0-1.0-711.0","0","0","76036","","null","","","null","78","","","","","","","","","","","","","","","NaN",""
"","S1","","html-keyboard-response","509","745977","0.0-1.0-713.0","0","0","76036","","null","","","null","79","","","","","","","","","","","","","","","",""
"","ISI","","html-keyboard-response","510","746982","0.0-1.0-714.0","0","0","76036","","null","","","null","79","NaN","","","","","","","","","","","","","","",""
"","S2","","html-keyboard-response","511","747239","0.0-1.0-715.0","0","0","76036","","null","","","null","79","","NaN","","","","","","","","","","","","","",""
"","response","","html-keyboard-response","512","747796","0.0-1.0-716.0-0.0","0","0","76036","","555","","","75","79","","","2","79","training","adjacent","GF","7","6","P.jpg","Q.jpg","0","0","1","",""
"","feedback","","html-keyboard-response","513","748802","0.0-1.0-717.0-0.0","0","0","76036","","null","","","null","79","","","","","","","","","","","","","","","",""
"","ITI","","html-keyboard-response","514","749806","0.0-1.0-720.0","0","0","76036","","null","","","null","79","","","","","","","","","","","","","","","NaN",""
"","S1","","html-keyboard-response","515","750059","0.0-1.0-722.0","0","0","76036","","null","","","null","80","","","","","","","","","","","","","","","",""
"","ISI","","html-keyboard-response","516","751063","0.0-1.0-723.0","0","0","76036","","null","","","null","80","NaN","","","","","","","","","","","","","","",""
"","S2","","html-keyboard-response","517","751319","0.0-1.0-724.0","0","0","76036","","null","","","null","80","","NaN","","","","","","","","","","","","","",""
"","response","","html-keyboard-response","518","752267","0.0-1.0-725.0-0.0","0","0","76036","","945","","","68","80","","","2","80","training","adjacent","FG","6","7","Q.jpg","P.jpg","1","1","1","",""
"","feedback","","html-keyboard-response","519","753272","0.0-1.0-726.0-0.0","0","0","76036","","null","","","null","80","","","","","","","","","","","","","","","",""
"","ITI","","html-keyboard-response","520","754277","0.0-1.0-729.0","0","0","76036","","null","","","null","80","","","","","","","","","","","","","","","NaN",""
"","S1","","html-keyboard-response","521","754531","0.0-1.0-731.0","0","0","76036","","null","","","null","81","","","","","","","","","","","","","","","",""
"","ISI","","html-keyboard-response","522","755536","0.0-1.0-732.0","0","0","76036","","null","","","null","81","NaN","","","","","","","","","","","","","","",""
"","S2","","html-keyboard-response","523","755794","0.0-1.0-733.0","0","0","76036","","null","","","null","81","","NaN","","","","","","","","","","","","","",""
"","response","","html-keyboard-response","524","756314","0.0-1.0-734.0-0.0","0","0","76036","","516","","","75","81","","","2","81","training","adjacent","AB","1","2","O.jpg","M.jpg","0","1","0","",""
"","feedback","","html-keyboard-response","525","757319","0.0-1.0-735.0-0.0","0","0","76036","","null","","","null","81","","","","","","","","","","","","","","","",""
"","time_out","","html-keyboard-response","526","759323","0.0-1.0-737.0-0.0","0","0","76036","","null","","","null","81","","","","","","","","","","","","","","","",""
"","ITI","","html-keyboard-response","527","760326","0.0-1.0-738.0","0","0","76036","","null","","","null","81","","","","","","","","","","","","","","","NaN",""
"","S1","","html-keyboard-response","528","760585","0.0-1.0-740.0","0","0","76036","","null","","","null","82","","","","","","","","","","","","","","","",""
"","ISI","","html-keyboard-response","529","761589","0.0-1.0-741.0","0","0","76036","","null","","","null","82","NaN","","","","","","","","","","","","","","",""
"","S2","","html-keyboard-response","530","761843","0.0-1.0-742.0","0","0","76036","","null","","","null","82","","NaN","","","","","","","","","","","","","",""
"","response","","html-keyboard-response","531","762479","0.0-1.0-743.0-0.0","0","0","76036","","632","","","68","82","","","2","82","training","adjacent","EF","5","6","R.jpg","Q.jpg","1","1","1","",""
"","feedback","","html-keyboard-response","532","763486","0.0-1.0-744.0-0.0","0","0","76036","","null","","","null","82","","","","","","","","","","","","","","","",""
"","ITI","","html-keyboard-response","533","764490","0.0-1.0-747.0","0","0","76036","","null","","","null","82","","","","","","","","","","","","","","","NaN",""
"","S1","","html-keyboard-response","534","764745","0.0-1.0-749.0","0","0","76036","","null","","","null","83","","","","","","","","","","","","","","","",""
"","ISI","","html-keyboard-response","535","765747","0.0-1.0-750.0","0","0","76036","","null","","","null","83","NaN","","","","","","","","","","","","","","",""
"","S2","","html-keyboard-response","536","766003","0.0-1.0-751.0","0","0","76036","","null","","","null","83","","NaN","","","","","","","","","","","","","",""
"","response","","html-keyboard-response","537","767257","0.0-1.0-752.0-0.0","0","0","76036","","1250","","","68","83","","","2","83","training","adjacent","BC","2","3","M.jpg","N.jpg","1","1","1","",""
"","feedback","","html-keyboard-response","538","768261","0.0-1.0-753.0-0.0","0","0","76036","","null","","","null","83","","","","","","","","","","","","","","","",""
"","ITI","","html-keyboard-response","539","769266","0.0-1.0-756.0","0","0","76036","","null","","","null","83","","","","","","","","","","","","","","","NaN",""
"","S1","","html-keyboard-response","540","769521","0.0-1.0-758.0","0","0","76036","","null","","","null","84","","","","","","","","","","","","","","","",""
"","ISI","","html-keyboard-response","541","770528","0.0-1.0-759.0","0","0","76036","","null","","","null","84","NaN","","","","","","","","","","","","","","",""
"","S2","","html-keyboard-response","542","770785","0.0-1.0-760.0","0","0","76036","","null","","","null","84","","NaN","","","","","","","","","","","","","",""
"","response","","html-keyboard-response","543","771180","0.0-1.0-761.0-0.0","0","0","76036","","392","","","75","84","","","2","84","training","adjacent","ED","5","4","R.jpg","L.jpg","0","0","1","",""
"","feedback","","html-keyboard-response","544","772184","0.0-1.0-762.0-0.0","0","0","76036","","null","","","null","84","","","","","","","","","","","","","","","",""
"","ITI","","html-keyboard-response","545","773187","0.0-1.0-765.0","0","0","76036","","null","","","null","84","","","","","","","","","","","","","","","NaN",""
"","S1","","html-keyboard-response","546","773442","0.0-1.0-767.0","0","0","76036","","null","","","null","85","","","","","","","","","","","","","","","",""
"","ISI","","html-keyboard-response","547","774448","0.0-1.0-768.0","0","0","76036","","null","","","null","85","NaN","","","","","","","","","","","","","","",""
"","S2","","html-keyboard-response","548","774718","0.0-1.0-769.0","0","0","76036","","null","","","null","85","","NaN","","","","","","","","","","","","","",""
"","response","","html-keyboard-response","549","775583","0.0-1.0-770.0-0.0","0","0","76036","","859","","","75","85","","","2","85","training","adjacent","DC","4","3","L.jpg","N.jpg","0","0","1","",""
"","feedback","","html-keyboard-response","550","776587","0.0-1.0-771.0-0.0","0","0","76036","","null","","","null","85","","","","","","","","","","","","","","","",""
"","ITI","","html-keyboard-response","551","777591","0.0-1.0-774.0","0","0","76036","","null","","","null","85","","","","","","","","","","","","","","","NaN",""
"","S1","","html-keyboard-response","552","777843","0.0-1.0-776.0","0","0","76036","","null","","","null","86","","","","","","","","","","","","","","","",""
"","ISI","","html-keyboard-response","553","778848","0.0-1.0-777.0","0","0","76036","","null","","","null","86","NaN","","","","","","","","","","","","","","",""
"","S2","","html-keyboard-response","554","779104","0.0-1.0-778.0","0","0","76036","","null","","","null","86","","NaN","","","","","","","","","","","","","",""
"","response","","html-keyboard-response","555","779519","0.0-1.0-779.0-0.0","0","0","76036","","411","","","75","86","","","2","86","training","adjacent","BA","2","1","M.jpg","O.jpg","0","0","1","",""
"","feedback","","html-keyboard-response","556","780525","0.0-1.0-780.0-0.0","0","0","76036","","null","","","null","86","","","","","","","","","","","","","","","",""
"","ITI","","html-keyboard-response","557","781532","0.0-1.0-783.0","0","0","76036","","null","","","null","86","","","","","","","","","","","","","","","NaN",""
"","S1","","html-keyboard-response","558","781785","0.0-1.0-785.0","0","0","76036","","null","","","null","87","","","","","","","","","","","","","","","",""
"","ISI","","html-keyboard-response","559","782788","0.0-1.0-786.0","0","0","76036","","null","","","null","87","NaN","","","","","","","","","","","","","","",""
"","S2","","html-keyboard-response","560","783042","0.0-1.0-787.0","0","0","76036","","null","","","null","87","","NaN","","","","","","","","","","","","","",""
"","response","","html-keyboard-response","561","783724","0.0-1.0-788.0-0.0","0","0","76036","","679","","","75","87","","","2","87","training","adjacent","FE","6","5","Q.jpg","R.jpg","0","0","1","",""
"","feedback","","html-keyboard-response","562","784728","0.0-1.0-789.0-0.0","0","0","76036","","null","","","null","87","","","","","","","","","","","","","","","",""
"","ITI","","html-keyboard-response","563","785732","0.0-1.0-792.0","0","0","76036","","null","","","null","87","","","","","","","","","","","","","","","NaN",""
"","S1","","html-keyboard-response","564","785987","0.0-1.0-794.0","0","0","76036","","null","","","null","88","","","","","","","","","","","","","","","",""
"","ISI","","html-keyboard-response","565","786992","0.0-1.0-795.0","0","0","76036","","null","","","null","88","NaN","","","","","","","","","","","","","","",""
"","S2","","html-keyboard-response","566","787247","0.0-1.0-796.0","0","0","76036","","null","","","null","88","","NaN","","","","","","","","","","","","","",""
"","response","","html-keyboard-response","567","787869","0.0-1.0-797.0-0.0","0","0","76036","","618","","","75","88","","","2","88","training","adjacent","BA","2","1","M.jpg","O.jpg","0","0","1","",""
"","feedback","","html-keyboard-response","568","788873","0.0-1.0-798.0-0.0","0","0","76036","","null","","","null","88","","","","","","","","","","","","","","","",""
"","ITI","","html-keyboard-response","569","789877","0.0-1.0-801.0","0","0","76036","","null","","","null","88","","","","","","","","","","","","","","","NaN",""
"","S1","","html-keyboard-response","570","790130","0.0-1.0-803.0","0","0","76036","","null","","","null","89","","","","","","","","","","","","","","","",""
"","ISI","","html-keyboard-response","571","791134","0.0-1.0-804.0","0","0","76036","","null","","","null","89","NaN","","","","","","","","","","","","","","",""
"","S2","","html-keyboard-response","572","791389","0.0-1.0-805.0","0","0","76036","","null","","","null","89","","NaN","","","","","","","","","","","","","",""
"","response","","html-keyboard-response","573","792530","0.0-1.0-806.0-0.0","0","0","76036","","1136","","","68","89","","","2","89","training","adjacent","BC","2","3","M.jpg","N.jpg","1","1","1","",""
"","feedback","","html-keyboard-response","574","793535","0.0-1.0-807.0-0.0","0","0","76036","","null","","","null","89","","","","","","","","","","","","","","","",""
"","ITI","","html-keyboard-response","575","794539","0.0-1.0-810.0","0","0","76036","","null","","","null","89","","","","","","","","","","","","","","","NaN",""
"","S1","","html-keyboard-response","576","794795","0.0-1.0-812.0","0","0","76036","","null","","","null","90","","","","","","","","","","","","","","","",""
"","ISI","","html-keyboard-response","577","795799","0.0-1.0-813.0","0","0","76036","","null","","","null","90","NaN","","","","","","","","","","","","","","",""
"","S2","","html-keyboard-response","578","796052","0.0-1.0-814.0","0","0","76036","","null","","","null","90","","NaN","","","","","","","","","","","","","",""
"","response","","html-keyboard-response","579","796338","0.0-1.0-815.0-0.0","0","0","76036","","284","","","75","90","","","2","90","training","adjacent","GF","7","6","P.jpg","Q.jpg","0","0","1","",""
"","feedback","","html-keyboard-response","580","797343","0.0-1.0-816.0-0.0","0","0","76036","","null","","","null","90","","","","","","","","","","","","","","","",""
