"success","ttype","start_time","trial_type","trial_index","time_elapsed","internal_node_id","warning","missed_checkup","PID","view_history","rt","responses","repeat_instructions","key_press","index","keypress_isi","keypress_S2","block","trial_num","phase","group_type","pair_type","S1_stim","S2_stim","S1_img","S2_img","S1_chosen","S1_higher","accuracy","keypress_iti","total_bonus_tally"
"true","full_screen","d04062023hr1822","fullscreen","0","14510","0.0-0.0","0","0","64969","","","","","","","","","","","","","","","","","","","","","",""
"","instructions","","instructions","1","104228","0.0-1.0-0.0-0.0","0","0","64969","[{""page_index"":0,""viewing_time"":19504},{""page_index"":1,""viewing_time"":52650},{""page_index"":2,""viewing_time"":14960},{""page_index"":3,""viewing_time"":2601}]","89715","","","","","","","","","","","","","","","","","","","",""
"","comprehension_check","","survey-multi-choice","2","128800","0.0-1.0-0.0-1.0","0","0","64969","","24569","{""Q0"":""True"",""Q1"":""K"",""Q2"":""Only when the screen 'MAKE A CHOICE' is shown"",""Q3"":""Green mark"",""Q4"":""either D or K""}","1","","","","","","","","","","","","","","","","","",""
"","missed_instruction_checkup","","html-keyboard-response","3","132283","0.0-1.0-0.0-2.0-0.0","0","1","64969","","3478","","","32","","","","","","","","","","","","","","","","",""
"","instructions","","instructions","4","167623","0.0-1.0-0.1-0.1","0","0","64969","[{""page_index"":0,""viewing_time"":7323},{""page_index"":1,""viewing_time"":25226},{""page_index"":2,""viewing_time"":1554},{""page_index"":3,""viewing_time"":1235}]","35338","","","","","","","","","","","","","","","","","","","",""
"","comprehension_check","","survey-multi-choice","5","186862","0.0-1.0-0.1-1.1","0","0","64969","","19236","{""Q0"":""True"",""Q1"":""K"",""Q2"":""Once the second image appears and while the screen 'MAKE A CHOICE' is shown"",""Q3"":""Green mark"",""Q4"":""either D or K""}","0","","","","","","","","","","","","","","","","","",""
"","start_exp","","html-keyboard-response","6","351434","0.0-1.0-1.0","0","0","64969","","164569","","","32","","","","","","","","","","","","","","","","",""
"","S1","","html-keyboard-response","7","351588","0.0-1.0-2.0","0","0","64969","","null","","","null","0","","","","","","","","","","","","","","","",""
"","ISI","","html-keyboard-response","8","353593","0.0-1.0-3.0","0","0","64969","","null","","","null","0","NaN","","","","","","","","","","","","","","",""
"","S2","","html-keyboard-response","9","353747","0.0-1.0-4.0","0","0","64969","","null","","","null","0","","NaN","","","","","","","","","","","","","",""
"","response","","html-keyboard-response","10","354867","0.0-1.0-5.0-0.0","0","0","64969","","1117","","","75","0","","","1","0","training","adjacent","EF","5","6","L.jpg","R.jpg","1","1","1","",""
"","feedback","","html-keyboard-response","11","355872","0.0-1.0-6.0-0.0","0","0","64969","","null","","","null","0","","","","","","","","","","","","","","","",""
"","ITI","","html-keyboard-response","12","356877","0.0-1.0-9.0","0","0","64969","","null","","","null","0","","","","","","","","","","","","","","","NaN",""
"","S1","","html-keyboard-response","13","357031","0.0-1.0-11.0","0","0","64969","","null","","","null","1","","","","","","","","","","","","","","","",""
"","ISI","","html-keyboard-response","14","359034","0.0-1.0-12.0","0","0","64969","","null","","","null","1","NaN","","","","","","","","","","","","","","",""
"","S2","","html-keyboard-response","15","359189","0.0-1.0-13.0","0","0","64969","","null","","","null","1","","NaN","","","","","","","","","","","","","",""
"","response","","html-keyboard-response","16","359810","0.0-1.0-14.0-0.0","0","0","64969","","619","","","68","1","","","1","1","training","adjacent","CD","3","4","M.jpg","P.jpg","0","1","0","",""
"","feedback","","html-keyboard-response","17","360814","0.0-1.0-15.0-0.0","0","0","64969","","null","","","null","1","","","","","","","","","","","","","","","",""
"","time_out","","html-keyboard-response","18","362817","0.0-1.0-17.0-0.0","0","0","64969","","null","","","null","1","","","","","","","","","","","","","","","",""
"","ITI","","html-keyboard-response","19","363819","0.0-1.0-18.0","0","0","64969","","null","","","null","1","","","","","","","","","","","","","","","NaN",""
"","S1","","html-keyboard-response","20","363972","0.0-1.0-20.0","0","0","64969","","null","","","null","2","","","","","","","","","","","","","","","",""
"","ISI","","html-keyboard-response","21","365976","0.0-1.0-21.0","0","0","64969","","null","","","null","2","NaN","","","","","","","","","","","","","","",""
"","S2","","html-keyboard-response","22","366131","0.0-1.0-22.0","0","0","64969","","null","","","null","2","","NaN","","","","","","","","","","","","","",""
"","response","","html-keyboard-response","23","367419","0.0-1.0-23.0-0.0","0","0","64969","","1285","","","75","2","","","1","2","training","adjacent","FE","6","5","R.jpg","L.jpg","1","0","0","",""
"","feedback","","html-keyboard-response","24","368423","0.0-1.0-24.0-0.0","0","0","64969","","null","","","null","2","","","","","","","","","","","","","","","",""
"","time_out","","html-keyboard-response","25","370426","0.0-1.0-26.0-0.0","0","0","64969","","null","","","null","2","","","","","","","","","","","","","","","",""
"","ITI","","html-keyboard-response","26","371429","0.0-1.0-27.0","0","0","64969","","null","","","null","2","","","","","","","","","","","","","","","NaN",""
"","S1","","html-keyboard-response","27","371582","0.0-1.0-29.0","0","0","64969","","null","","","null","3","","","","","","","","","","","","","","","",""
"","ISI","","html-keyboard-response","28","373585","0.0-1.0-30.0","0","0","64969","","null","","","null","3","NaN","","","","","","","","","","","","","","",""
"","S2","","html-keyboard-response","29","373740","0.0-1.0-31.0","0","0","64969","","null","","","null","3","","NaN","","","","","","","","","","","","","",""
"","response","","html-keyboard-response","30","374507","0.0-1.0-32.0-0.0","0","0","64969","","764","","","75","3","","","1","3","training","adjacent","ED","5","4","L.jpg","P.jpg","1","0","0","",""
"","feedback","","html-keyboard-response","31","375514","0.0-1.0-33.0-0.0","0","0","64969","","null","","","null","3","","","","","","","","","","","","","","","",""
"","time_out","","html-keyboard-response","32","377516","0.0-1.0-35.0-0.0","0","0","64969","","null","","","null","3","","","","","","","","","","","","","","","",""
"","ITI","","html-keyboard-response","33","378521","0.0-1.0-36.0","0","0","64969","","null","","","null","3","","","","","","","","","","","","","","","NaN",""
"","S1","","html-keyboard-response","34","378674","0.0-1.0-38.0","0","0","64969","","null","","","null","4","","","","","","","","","","","","","","","",""
"","ISI","","html-keyboard-response","35","380678","0.0-1.0-39.0","0","0","64969","","null","","","null","4","NaN","","","","","","","","","","","","","","",""
"","S2","","html-keyboard-response","36","380833","0.0-1.0-40.0","0","0","64969","","null","","","null","4","","NaN","","","","","","","","","","","","","",""
"","response","","html-keyboard-response","37","381675","0.0-1.0-41.0-0.0","0","0","64969","","840","","","75","4","","","1","4","training","adjacent","FG","6","7","R.jpg","O.jpg","1","1","1","",""
"","feedback","","html-keyboard-response","38","382688","0.0-1.0-42.0-0.0","0","0","64969","","null","","","null","4","","","","","","","","","","","","","","","",""
"","ITI","","html-keyboard-response","39","383692","0.0-1.0-45.0","0","0","64969","","null","","","null","4","","","","","","","","","","","","","","","NaN",""
"","S1","","html-keyboard-response","40","383844","0.0-1.0-47.0","0","0","64969","","null","","","null","5","","","","","","","","","","","","","","","",""
"","ISI","","html-keyboard-response","41","385847","0.0-1.0-48.0","0","0","64969","","null","","","null","5","NaN","","","","","","","","","","","","","","",""
"","S2","","html-keyboard-response","42","386002","0.0-1.0-49.0","0","0","64969","","null","","","null","5","","NaN","","","","","","","","","","","","","",""
"","response","","html-keyboard-response","43","386524","0.0-1.0-50.0-0.0","0","0","64969","","518","","","75","5","","","1","5","training","adjacent","FG","6","7","R.jpg","O.jpg","1","1","1","",""
"","feedback","","html-keyboard-response","44","387528","0.0-1.0-51.0-0.0","0","0","64969","","null","","","null","5","","","","","","","","","","","","","","","",""
"","ITI","","html-keyboard-response","45","388532","0.0-1.0-54.0","0","0","64969","","null","","","null","5","","","","","","","","","","","","","","","NaN",""
"","S1","","html-keyboard-response","46","388685","0.0-1.0-56.0","0","0","64969","","null","","","null","6","","","","","","","","","","","","","","","",""
"","ISI","","html-keyboard-response","47","390687","0.0-1.0-57.0","0","0","64969","","null","","","null","6","NaN","","","","","","","","","","","","","","",""
"","S2","","html-keyboard-response","48","390839","0.0-1.0-58.0","0","0","64969","","null","","","null","6","","NaN","","","","","","","","","","","","","",""
"","response","","html-keyboard-response","49","391411","0.0-1.0-59.0-0.0","0","0","64969","","569","","","75","6","","","1","6","training","adjacent","FE","6","5","R.jpg","L.jpg","1","0","0","",""
"","feedback","","html-keyboard-response","50","392415","0.0-1.0-60.0-0.0","0","0","64969","","null","","","null","6","","","","","","","","","","","","","","","",""
"","time_out","","html-keyboard-response","51","394419","0.0-1.0-62.0-0.0","0","0","64969","","null","","","null","6","","","","","","","","","","","","","","","",""
"","ITI","","html-keyboard-response","52","395422","0.0-1.0-63.0","0","0","64969","","null","","","null","6","","","","","","","","","","","","","","","NaN",""
"","S1","","html-keyboard-response","53","395575","0.0-1.0-65.0","0","0","64969","","null","","","null","7","","","","","","","","","","","","","","","",""
"","ISI","","html-keyboard-response","54","397578","0.0-1.0-66.0","0","0","64969","","null","","","null","7","NaN","","","","","","","","","","","","","","",""
"","S2","","html-keyboard-response","55","397731","0.0-1.0-67.0","0","0","64969","","null","","","null","7","","NaN","","","","","","","","","","","","","",""
"","response","","html-keyboard-response","56","398948","0.0-1.0-68.0-0.0","0","0","64969","","1213","","","68","7","","","1","7","training","adjacent","GF","7","6","O.jpg","R.jpg","0","0","1","",""
"","feedback","","html-keyboard-response","57","399953","0.0-1.0-69.0-0.0","0","0","64969","","null","","","null","7","","","","","","","","","","","","","","","",""
"","ITI","","html-keyboard-response","58","400958","0.0-1.0-72.0","0","0","64969","","null","","","null","7","","","","","","","","","","","","","","","NaN",""
"","S1","","html-keyboard-response","59","401112","0.0-1.0-74.0","0","0","64969","","null","","","null","8","","","","","","","","","","","","","","","",""
"","ISI","","html-keyboard-response","60","403117","0.0-1.0-75.0","0","0","64969","","null","","","null","8","NaN","","","","","","","","","","","","","","",""
"","S2","","html-keyboard-response","61","403271","0.0-1.0-76.0","0","0","64969","","null","","","null","8","","NaN","","","","","","","","","","","","","",""
"","response","","html-keyboard-response","62","403819","0.0-1.0-77.0-0.0","0","0","64969","","545","","","75","8","","","1","8","training","adjacent","FG","6","7","R.jpg","O.jpg","1","1","1","",""
"","feedback","","html-keyboard-response","63","404824","0.0-1.0-78.0-0.0","0","0","64969","","null","","","null","8","","","","","","","","","","","","","","","",""
"","ITI","","html-keyboard-response","64","405828","0.0-1.0-81.0","0","0","64969","","null","","","null","8","","","","","","","","","","","","","","","NaN",""
"","S1","","html-keyboard-response","65","405981","0.0-1.0-83.0","0","0","64969","","null","","","null","9","","","","","","","","","","","","","","","",""
"","ISI","","html-keyboard-response","66","407987","0.0-1.0-84.0","0","0","64969","","null","","","null","9","NaN","","","","","","","","","","","","","","",""
"","S2","","html-keyboard-response","67","408141","0.0-1.0-85.0","0","0","64969","","null","","","null","9","","NaN","","","","","","","","","","","","","",""
"","response","","html-keyboard-response","68","409789","0.0-1.0-86.0-0.0","0","0","64969","","1646","","","75","9","","","1","9","training","adjacent","BC","2","3","N.jpg","M.jpg","1","1","1","",""
"","feedback","","html-keyboard-response","69","410793","0.0-1.0-87.0-0.0","0","0","64969","","null","","","null","9","","","","","","","","","","","","","","","",""
"","ITI","","html-keyboard-response","70","411796","0.0-1.0-90.0","0","0","64969","","null","","","null","9","","","","","","","","","","","","","","","NaN",""
"","S1","","html-keyboard-response","71","411950","0.0-1.0-92.0","0","0","64969","","null","","","null","10","","","","","","","","","","","","","","","",""
"","ISI","","html-keyboard-response","72","413954","0.0-1.0-93.0","0","0","64969","","null","","","null","10","NaN","","","","","","","","","","","","","","",""
"","S2","","html-keyboard-response","73","414108","0.0-1.0-94.0","0","0","64969","","null","","","null","10","","NaN","","","","","","","","","","","","","",""
"","response","","html-keyboard-response","74","415429","0.0-1.0-95.0-0.0","0","0","64969","","1319","","","68","10","","","1","10","training","adjacent","BA","2","1","N.jpg","Q.jpg","0","0","1","",""
"","feedback","","html-keyboard-response","75","416431","0.0-1.0-96.0-0.0","0","0","64969","","null","","","null","10","","","","","","","","","","","","","","","",""
"","ITI","","html-keyboard-response","76","417434","0.0-1.0-99.0","0","0","64969","","null","","","null","10","","","","","","","","","","","","","","","NaN",""
"","S1","","html-keyboard-response","77","417588","0.0-1.0-101.0","0","0","64969","","null","","","null","11","","","","","","","","","","","","","","","",""
"","ISI","","html-keyboard-response","78","419592","0.0-1.0-102.0","0","0","64969","","null","","","null","11","NaN","","","","","","","","","","","","","","",""
"","S2","","html-keyboard-response","79","419745","0.0-1.0-103.0","0","0","64969","","null","","","null","11","","NaN","","","","","","","","","","","","","",""
"","response","","html-keyboard-response","80","421550","0.0-1.0-104.0-0.0","0","0","64969","","1804","","","68","11","","","1","11","training","adjacent","CB","3","2","M.jpg","N.jpg","0","0","1","",""
"","feedback","","html-keyboard-response","81","422555","0.0-1.0-105.0-0.0","0","0","64969","","null","","","null","11","","","","","","","","","","","","","","","",""
"","ITI","","html-keyboard-response","82","423558","0.0-1.0-108.0","0","0","64969","","null","","","null","11","","","","","","","","","","","","","","","NaN",""
"","S1","","html-keyboard-response","83","423712","0.0-1.0-110.0","0","0","64969","","null","","","null","12","","","","","","","","","","","","","","","",""
"","ISI","","html-keyboard-response","84","425716","0.0-1.0-111.0","0","0","64969","","null","","","null","12","NaN","","","","","","","","","","","","","","",""
"","S2","","html-keyboard-response","85","425882","0.0-1.0-112.0","0","0","64969","","null","","","null","12","","NaN","","","","","","","","","","","","","",""
"","response","","html-keyboard-response","86","427086","0.0-1.0-113.0-0.0","0","0","64969","","1202","","","68","12","","","1","12","training","adjacent","DC","4","3","P.jpg","M.jpg","0","0","1","",""
"","feedback","","html-keyboard-response","87","428090","0.0-1.0-114.0-0.0","0","0","64969","","null","","","null","12","","","","","","","","","","","","","","","",""
"","ITI","","html-keyboard-response","88","429095","0.0-1.0-117.0","0","0","64969","","null","","","null","12","","","","","","","","","","","","","","","NaN",""
"","S1","","html-keyboard-response","89","429249","0.0-1.0-119.0","0","0","64969","","null","","","null","13","","","","","","","","","","","","","","","",""
"","ISI","","html-keyboard-response","90","431252","0.0-1.0-120.0","0","0","64969","","null","","","null","13","NaN","","","","","","","","","","","","","","",""
"","S2","","html-keyboard-response","91","431407","0.0-1.0-121.0","0","0","64969","","null","","","null","13","","NaN","","","","","","","","","","","","","",""
"","response","","html-keyboard-response","92","431895","0.0-1.0-122.0-0.0","0","0","64969","","484","","","75","13","","","1","13","training","adjacent","AB","1","2","Q.jpg","N.jpg","1","1","1","",""
"","feedback","","html-keyboard-response","93","432898","0.0-1.0-123.0-0.0","0","0","64969","","null","","","null","13","","","","","","","","","","","","","","","",""
"","ITI","","html-keyboard-response","94","433902","0.0-1.0-126.0","0","0","64969","","null","","","null","13","","","","","","","","","","","","","","","NaN",""
"","S1","","html-keyboard-response","95","434054","0.0-1.0-128.0","0","0","64969","","null","","","null","14","","","","","","","","","","","","","","","",""
"","ISI","","html-keyboard-response","96","436056","0.0-1.0-129.0","0","0","64969","","null","","","null","14","NaN","","","","","","","","","","","","","","",""
"","S2","","html-keyboard-response","97","436210","0.0-1.0-130.0","0","0","64969","","null","","","null","14","","NaN","","","","","","","","","","","","","",""
"","response","","html-keyboard-response","98","437414","0.0-1.0-131.0-0.0","0","0","64969","","1201","","","68","14","","","1","14","training","adjacent","CB","3","2","M.jpg","N.jpg","0","0","1","",""
"","feedback","","html-keyboard-response","99","438418","0.0-1.0-132.0-0.0","0","0","64969","","null","","","null","14","","","","","","","","","","","","","","","",""
"","ITI","","html-keyboard-response","100","439423","0.0-1.0-135.0","0","0","64969","","null","","","null","14","","","","","","","","","","","","","","","NaN",""
"","S1","","html-keyboard-response","101","439577","0.0-1.0-137.0","0","0","64969","","null","","","null","15","","","","","","","","","","","","","","","",""
"","ISI","","html-keyboard-response","102","441580","0.0-1.0-138.0","0","0","64969","","null","","","null","15","NaN","","","","","","","","","","","","","","",""
"","S2","","html-keyboard-response","103","441733","0.0-1.0-139.0","0","0","64969","","null","","","null","15","","NaN","","","","","","","","","","","","","",""
"","response","","html-keyboard-response","104","442582","0.0-1.0-140.0-0.0","0","0","64969","","846","","","68","15","","","1","15","training","adjacent","BC","2","3","N.jpg","M.jpg","0","1","0","",""
"","feedback","","html-keyboard-response","105","443587","0.0-1.0-141.0-0.0","0","0","64969","","null","","","null","15","","","","","","","","","","","","","","","",""
"","time_out","","html-keyboard-response","106","445591","0.0-1.0-143.0-0.0","0","0","64969","","null","","","null","15","","","","","","","","","","","","","","","",""
"","ITI","","html-keyboard-response","107","446594","0.0-1.0-144.0","0","0","64969","","null","","","null","15","","","","","","","","","","","","","","","NaN",""
"","S1","","html-keyboard-response","108","446747","0.0-1.0-146.0","0","0","64969","","null","","","null","16","","","","","","","","","","","","","","","",""
"","ISI","","html-keyboard-response","109","448749","0.0-1.0-147.0","0","0","64969","","null","","","null","16","NaN","","","","","","","","","","","","","","",""
"","S2","","html-keyboard-response","110","448903","0.0-1.0-148.0","0","0","64969","","null","","","null","16","","NaN","","","","","","","","","","","","","",""
"","response","","html-keyboard-response","111","450438","0.0-1.0-149.0-0.0","0","0","64969","","1533","","","75","16","","","1","16","training","adjacent","BC","2","3","N.jpg","M.jpg","1","1","1","",""
"","feedback","","html-keyboard-response","112","451442","0.0-1.0-150.0-0.0","0","0","64969","","null","","","null","16","","","","","","","","","","","","","","","",""
"","ITI","","html-keyboard-response","113","452446","0.0-1.0-153.0","0","0","64969","","null","","","null","16","","","","","","","","","","","","","","","NaN",""
"","S1","","html-keyboard-response","114","452601","0.0-1.0-155.0","0","0","64969","","null","","","null","17","","","","","","","","","","","","","","","",""
"","ISI","","html-keyboard-response","115","454604","0.0-1.0-156.0","0","0","64969","","null","","","null","17","NaN","","","","","","","","","","","","","","",""
"","S2","","html-keyboard-response","116","454756","0.0-1.0-157.0","0","0","64969","","null","","","null","17","","NaN","","","","","","","","","","","","","",""
"","response","","html-keyboard-response","117","456611","0.0-1.0-158.0-0.0","0","0","64969","","null","","","null","17","","","1","17","training","adjacent","BA","2","1","N.jpg","Q.jpg","NaN","0","0","",""
"","too_slow_prompt","","html-keyboard-response","118","457613","0.0-1.0-160.0-0.0","1","0","64969","","null","","","null","","","","","","","","","","","","","","","","",""
"","time_out","","html-keyboard-response","119","459617","0.0-1.0-161.0-0.0","0","0","64969","","null","","","null","17","","","","","","","","","","","","","","","",""
"","ITI","","html-keyboard-response","120","460622","0.0-1.0-162.0","0","0","64969","","null","","","null","17","","","","","","","","","","","","","","","NaN",""
"","S1","","html-keyboard-response","121","460775","0.0-1.0-164.0","0","0","64969","","null","","","null","18","","","","","","","","","","","","","","","",""
"","ISI","","html-keyboard-response","122","462777","0.0-1.0-165.0","0","0","64969","","null","","","null","18","NaN","","","","","","","","","","","","","","",""
"","S2","","html-keyboard-response","123","462931","0.0-1.0-166.0","0","0","64969","","null","","","null","18","","NaN","","","","","","","","","","","","","",""
"","response","","html-keyboard-response","124","463647","0.0-1.0-167.0-0.0","0","0","64969","","713","","","75","18","","","1","18","training","adjacent","AB","1","2","Q.jpg","N.jpg","1","1","1","",""
"","feedback","","html-keyboard-response","125","464650","0.0-1.0-168.0-0.0","0","0","64969","","null","","","null","18","","","","","","","","","","","","","","","",""
"","ITI","","html-keyboard-response","126","465657","0.0-1.0-171.0","0","0","64969","","null","","","null","18","","","","","","","","","","","","","","","NaN",""
"","S1","","html-keyboard-response","127","465811","0.0-1.0-173.0","0","0","64969","","null","","","null","19","","","","","","","","","","","","","","","",""
"","ISI","","html-keyboard-response","128","467813","0.0-1.0-174.0","0","0","64969","","null","","","null","19","NaN","","","","","","","","","","","","","","",""
"","S2","","html-keyboard-response","129","467968","0.0-1.0-175.0","0","0","64969","","null","","","null","19","","NaN","","","","","","","","","","","","","",""
"","response","","html-keyboard-response","130","469233","0.0-1.0-176.0-0.0","0","0","64969","","1261","","","75","19","","","1","19","training","adjacent","CB","3","2","M.jpg","N.jpg","1","0","0","",""
"","feedback","","html-keyboard-response","131","470238","0.0-1.0-177.0-0.0","0","0","64969","","null","","","null","19","","","","","","","","","","","","","","","",""
"","time_out","","html-keyboard-response","132","472242","0.0-1.0-179.0-0.0","0","0","64969","","null","","","null","19","","","","","","","","","","","","","","","",""
"","ITI","","html-keyboard-response","133","473246","0.0-1.0-180.0","0","0","64969","","null","","","null","19","","","","","","","","","","","","","","","NaN",""
"","S1","","html-keyboard-response","134","473401","0.0-1.0-182.0","0","0","64969","","null","","","null","20","","","","","","","","","","","","","","","",""
"","ISI","","html-keyboard-response","135","475404","0.0-1.0-183.0","0","0","64969","","null","","","null","20","NaN","","","","","","","","","","","","","","",""
"","S2","","html-keyboard-response","136","475558","0.0-1.0-184.0","0","0","64969","","null","","","null","20","","NaN","","","","","","","","","","","","","",""
"","response","","html-keyboard-response","137","476088","0.0-1.0-185.0-0.0","0","0","64969","","527","","","75","20","","","1","20","training","adjacent","CD","3","4","M.jpg","P.jpg","1","1","1","",""
"","feedback","","html-keyboard-response","138","477094","0.0-1.0-186.0-0.0","0","0","64969","","null","","","null","20","","","","","","","","","","","","","","","",""
"","ITI","","html-keyboard-response","139","478097","0.0-1.0-189.0","0","0","64969","","null","","","null","20","","","","","","","","","","","","","","","NaN",""
"","S1","","html-keyboard-response","140","478251","0.0-1.0-191.0","0","0","64969","","null","","","null","21","","","","","","","","","","","","","","","",""
"","ISI","","html-keyboard-response","141","480254","0.0-1.0-192.0","0","0","64969","","null","","","null","21","NaN","","","","","","","","","","","","","","",""
"","S2","","html-keyboard-response","142","480408","0.0-1.0-193.0","0","0","64969","","null","","","null","21","","NaN","","","","","","","","","","","","","",""
"","response","","html-keyboard-response","143","480849","0.0-1.0-194.0-0.0","0","0","64969","","439","","","75","21","","","1","21","training","adjacent","EF","5","6","L.jpg","R.jpg","1","1","1","",""
"","feedback","","html-keyboard-response","144","481854","0.0-1.0-195.0-0.0","0","0","64969","","null","","","null","21","","","","","","","","","","","","","","","",""
"","ITI","","html-keyboard-response","145","482858","0.0-1.0-198.0","0","0","64969","","null","","","null","21","","","","","","","","","","","","","","","NaN",""
"","S1","","html-keyboard-response","146","483012","0.0-1.0-200.0","0","0","64969","","null","","","null","22","","","","","","","","","","","","","","","",""
"","ISI","","html-keyboard-response","147","485015","0.0-1.0-201.0","0","0","64969","","null","","","null","22","NaN","","","","","","","","","","","","","","",""
"","S2","","html-keyboard-response","148","485170","0.0-1.0-202.0","0","0","64969","","null","","","null","22","","NaN","","","","","","","","","","","","","",""
"","response","","html-keyboard-response","149","485904","0.0-1.0-203.0-0.0","0","0","64969","","731","","","75","22","","","1","22","training","adjacent","EF","5","6","L.jpg","R.jpg","1","1","1","",""
"","feedback","","html-keyboard-response","150","486908","0.0-1.0-204.0-0.0","0","0","64969","","null","","","null","22","","","","","","","","","","","","","","","",""
"","ITI","","html-keyboard-response","151","487911","0.0-1.0-207.0","0","0","64969","","null","","","null","22","","","","","","","","","","","","","","","NaN",""
"","S1","","html-keyboard-response","152","488063","0.0-1.0-209.0","0","0","64969","","null","","","null","23","","","","","","","","","","","","","","","",""
"","ISI","","html-keyboard-response","153","490066","0.0-1.0-210.0","0","0","64969","","null","","","null","23","NaN","","","","","","","","","","","","","","",""
"","S2","","html-keyboard-response","154","490220","0.0-1.0-211.0","0","0","64969","","null","","","null","23","","NaN","","","","","","","","","","","","","",""
"","response","","html-keyboard-response","155","490767","0.0-1.0-212.0-0.0","0","0","64969","","546","","","68","23","","","1","23","training","adjacent","FE","6","5","R.jpg","L.jpg","0","0","1","",""
"","feedback","","html-keyboard-response","156","491770","0.0-1.0-213.0-0.0","0","0","64969","","null","","","null","23","","","","","","","","","","","","","","","",""
"","ITI","","html-keyboard-response","157","492776","0.0-1.0-216.0","0","0","64969","","null","","","null","23","","","","","","","","","","","","","","","NaN",""
"","S1","","html-keyboard-response","158","492929","0.0-1.0-218.0","0","0","64969","","null","","","null","24","","","","","","","","","","","","","","","",""
"","ISI","","html-keyboard-response","159","494932","0.0-1.0-219.0","0","0","64969","","null","","","null","24","NaN","","","","","","","","","","","","","","",""
"","S2","","html-keyboard-response","160","495087","0.0-1.0-220.0","0","0","64969","","null","","","null","24","","NaN","","","","","","","","","","","","","",""
"","response","","html-keyboard-response","161","495969","0.0-1.0-221.0-0.0","0","0","64969","","878","","","68","24","","","1","24","training","adjacent","DE","4","5","P.jpg","L.jpg","0","1","0","",""
"","feedback","","html-keyboard-response","162","496972","0.0-1.0-222.0-0.0","0","0","64969","","null","","","null","24","","","","","","","","","","","","","","","",""
"","time_out","","html-keyboard-response","163","498976","0.0-1.0-224.0-0.0","0","0","64969","","null","","","null","24","","","","","","","","","","","","","","","",""
"","ITI","","html-keyboard-response","164","499979","0.0-1.0-225.0","0","0","64969","","null","","","null","24","","","","","","","","","","","","","","","NaN",""
"","S1","","html-keyboard-response","165","500133","0.0-1.0-227.0","0","0","64969","","null","","","null","25","","","","","","","","","","","","","","","",""
"","ISI","","html-keyboard-response","166","502136","0.0-1.0-228.0","0","0","64969","","null","","","null","25","NaN","","","","","","","","","","","","","","",""
"","S2","","html-keyboard-response","167","502289","0.0-1.0-229.0","0","0","64969","","null","","","null","25","","NaN","","","","","","","","","","","","","",""
"","response","","html-keyboard-response","168","503584","0.0-1.0-230.0-0.0","0","0","64969","","1292","","","75","25","","","1","25","training","adjacent","DC","4","3","P.jpg","M.jpg","1","0","0","",""
"","feedback","","html-keyboard-response","169","504588","0.0-1.0-231.0-0.0","0","0","64969","","null","","","null","25","","","","","","","","","","","","","","","",""
"","time_out","","html-keyboard-response","170","506592","0.0-1.0-233.0-0.0","0","0","64969","","null","","","null","25","","","","","","","","","","","","","","","",""
"","ITI","","html-keyboard-response","171","507596","0.0-1.0-234.0","0","0","64969","","null","","","null","25","","","","","","","","","","","","","","","NaN",""
"","S1","","html-keyboard-response","172","507748","0.0-1.0-236.0","0","0","64969","","null","","","null","26","","","","","","","","","","","","","","","",""
"","ISI","","html-keyboard-response","173","509750","0.0-1.0-237.0","0","0","64969","","null","","","null","26","NaN","","","","","","","","","","","","","","",""
"","S2","","html-keyboard-response","174","509904","0.0-1.0-238.0","0","0","64969","","null","","","null","26","","NaN","","","","","","","","","","","","","",""
"","response","","html-keyboard-response","175","510361","0.0-1.0-239.0-0.0","0","0","64969","","454","","","68","26","","","1","26","training","adjacent","DE","4","5","P.jpg","L.jpg","0","1","0","",""
"","feedback","","html-keyboard-response","176","511366","0.0-1.0-240.0-0.0","0","0","64969","","null","","","null","26","","","","","","","","","","","","","","","",""
"","time_out","","html-keyboard-response","177","513370","0.0-1.0-242.0-0.0","0","0","64969","","null","","","null","26","","","","","","","","","","","","","","","",""
"","ITI","","html-keyboard-response","178","514375","0.0-1.0-243.0","0","0","64969","","null","","","null","26","","","","","","","","","","","","","","","NaN",""
"","S1","","html-keyboard-response","179","514529","0.0-1.0-245.0","0","0","64969","","null","","","null","27","","","","","","","","","","","","","","","",""
"","ISI","","html-keyboard-response","180","516533","0.0-1.0-246.0","0","0","64969","","null","","","null","27","NaN","","","","","","","","","","","","","","",""
"","S2","","html-keyboard-response","181","516687","0.0-1.0-247.0","0","0","64969","","null","","","null","27","","NaN","","","","","","","","","","","","","",""
"","response","","html-keyboard-response","182","517896","0.0-1.0-248.0-0.0","0","0","64969","","1206","","","75","27","","","1","27","training","adjacent","FE","6","5","R.jpg","L.jpg","1","0","0","",""
"","feedback","","html-keyboard-response","183","518901","0.0-1.0-249.0-0.0","0","0","64969","","null","","","null","27","","","","","","","","","","","","","","","",""
"","time_out","","html-keyboard-response","184","520905","0.0-1.0-251.0-0.0","0","0","64969","","null","","","null","27","","","","","","","","","","","","","","","",""
"","ITI","","html-keyboard-response","185","521909","0.0-1.0-252.0","0","0","64969","","null","","","null","27","","","","","","","","","","","","","","","NaN",""
"","S1","","html-keyboard-response","186","522062","0.0-1.0-254.0","0","0","64969","","null","","","null","28","","","","","","","","","","","","","","","",""
"","ISI","","html-keyboard-response","187","524066","0.0-1.0-255.0","0","0","64969","","null","","","null","28","NaN","","","","","","","","","","","","","","",""
"","S2","","html-keyboard-response","188","524223","0.0-1.0-256.0","0","0","64969","","null","","","null","28","","NaN","","","","","","","","","","","","","",""
"","response","","html-keyboard-response","189","524857","0.0-1.0-257.0-0.0","0","0","64969","","630","","","75","28","","","1","28","training","adjacent","CD","3","4","M.jpg","P.jpg","1","1","1","",""
"","feedback","","html-keyboard-response","190","525860","0.0-1.0-258.0-0.0","0","0","64969","","null","","","null","28","","","","","","","","","","","","","","","",""
"","ITI","","html-keyboard-response","191","526864","0.0-1.0-261.0","0","0","64969","","null","","","null","28","","","","","","","","","","","","","","","NaN",""
"","S1","","html-keyboard-response","192","527017","0.0-1.0-263.0","0","0","64969","","null","","","null","29","","","","","","","","","","","","","","","",""
"","ISI","","html-keyboard-response","193","529021","0.0-1.0-264.0","0","0","64969","","null","","","null","29","NaN","","","","","","","","","","","","","","",""
"","S2","","html-keyboard-response","194","529175","0.0-1.0-265.0","0","0","64969","","null","","","null","29","","NaN","","","","","","","","","","","","","",""
"","response","","html-keyboard-response","195","531032","0.0-1.0-266.0-0.0","0","0","64969","","null","","","null","29","","","1","29","training","adjacent","ED","5","4","L.jpg","P.jpg","NaN","0","0","",""
"","too_slow_prompt","","html-keyboard-response","196","532035","0.0-1.0-268.0-0.0","1","0","64969","","null","","","null","","","","","","","","","","","","","","","","",""
"","time_out","","html-keyboard-response","197","534038","0.0-1.0-269.0-0.0","0","0","64969","","null","","","null","29","","","","","","","","","","","","","","","",""
"","ITI","","html-keyboard-response","198","535041","0.0-1.0-270.0","0","0","64969","","null","","","null","29","","","","","","","","","","","","","","","NaN",""
"","S1","","html-keyboard-response","199","535195","0.0-1.0-272.0","0","0","64969","","null","","","null","30","","","","","","","","","","","","","","","",""
"","ISI","","html-keyboard-response","200","537198","0.0-1.0-273.0","0","0","64969","","null","","","null","30","NaN","","","","","","","","","","","","","","",""
"","S2","","html-keyboard-response","201","537353","0.0-1.0-274.0","0","0","64969","","null","","","null","30","","NaN","","","","","","","","","","","","","",""
"","response","","html-keyboard-response","202","538753","0.0-1.0-275.0-0.0","0","0","64969","","1399","","","68","30","","","1","30","training","adjacent","GF","7","6","O.jpg","R.jpg","0","0","1","",""
"","feedback","","html-keyboard-response","203","539756","0.0-1.0-276.0-0.0","0","0","64969","","null","","","null","30","","","","","","","","","","","","","","","",""
"","ITI","","html-keyboard-response","204","540759","0.0-1.0-279.0","0","0","64969","","null","","","null","30","","","","","","","","","","","","","","","NaN",""
"","S1","","html-keyboard-response","205","540914","0.0-1.0-281.0","0","0","64969","","null","","","null","31","","","","","","","","","","","","","","","",""
"","ISI","","html-keyboard-response","206","542918","0.0-1.0-282.0","0","0","64969","","null","","","null","31","NaN","","","","","","","","","","","","","","",""
"","S2","","html-keyboard-response","207","543077","0.0-1.0-283.0","0","0","64969","","null","","","null","31","","NaN","","","","","","","","","","","","","",""
"","response","","html-keyboard-response","208","543827","0.0-1.0-284.0-0.0","0","0","64969","","746","","","75","31","","","1","31","training","adjacent","CB","3","2","M.jpg","N.jpg","1","0","0","",""
"","feedback","","html-keyboard-response","209","544830","0.0-1.0-285.0-0.0","0","0","64969","","null","","","null","31","","","","","","","","","","","","","","","",""
"","time_out","","html-keyboard-response","210","546834","0.0-1.0-287.0-0.0","0","0","64969","","null","","","null","31","","","","","","","","","","","","","","","",""
"","ITI","","html-keyboard-response","211","547837","0.0-1.0-288.0","0","0","64969","","null","","","null","31","","","","","","","","","","","","","","","NaN",""
"","S1","","html-keyboard-response","212","547991","0.0-1.0-290.0","0","0","64969","","null","","","null","32","","","","","","","","","","","","","","","",""
"","ISI","","html-keyboard-response","213","549995","0.0-1.0-291.0","0","0","64969","","null","","","null","32","NaN","","","","","","","","","","","","","","",""
"","S2","","html-keyboard-response","214","550147","0.0-1.0-292.0","0","0","64969","","null","","","null","32","","NaN","","","","","","","","","","","","","",""
"","response","","html-keyboard-response","215","550939","0.0-1.0-293.0-0.0","0","0","64969","","790","","","75","32","","","1","32","training","adjacent","BA","2","1","N.jpg","Q.jpg","1","0","0","",""
"","feedback","","html-keyboard-response","216","551943","0.0-1.0-294.0-0.0","0","0","64969","","null","","","null","32","","","","","","","","","","","","","","","",""
"","time_out","","html-keyboard-response","217","553947","0.0-1.0-296.0-0.0","0","0","64969","","null","","","null","32","","","","","","","","","","","","","","","",""
"","ITI","","html-keyboard-response","218","554951","0.0-1.0-297.0","0","0","64969","","null","","","null","32","","","","","","","","","","","","","","","NaN",""
"","S1","","html-keyboard-response","219","555105","0.0-1.0-299.0","0","0","64969","","null","","","null","33","","","","","","","","","","","","","","","",""
"","ISI","","html-keyboard-response","220","557108","0.0-1.0-300.0","0","0","64969","","null","","","null","33","NaN","","","","","","","","","","","","","","",""
"","S2","","html-keyboard-response","221","557262","0.0-1.0-301.0","0","0","64969","","null","","","null","33","","NaN","","","","","","","","","","","","","",""
"","response","","html-keyboard-response","222","557835","0.0-1.0-302.0-0.0","0","0","64969","","570","","","75","33","","","1","33","training","adjacent","ED","5","4","L.jpg","P.jpg","1","0","0","",""
"","feedback","","html-keyboard-response","223","558839","0.0-1.0-303.0-0.0","0","0","64969","","null","","","null","33","","","","","","","","","","","","","","","",""
"","time_out","","html-keyboard-response","224","560843","0.0-1.0-305.0-0.0","0","0","64969","","null","","","null","33","","","","","","","","","","","","","","","",""
"","ITI","","html-keyboard-response","225","561847","0.0-1.0-306.0","0","0","64969","","null","","","null","33","","","","","","","","","","","","","","","NaN",""
"","S1","","html-keyboard-response","226","562002","0.0-1.0-308.0","0","0","64969","","null","","","null","34","","","","","","","","","","","","","","","",""
"","ISI","","html-keyboard-response","227","564006","0.0-1.0-309.0","0","0","64969","","null","","","null","34","NaN","","","","","","","","","","","","","","",""
"","S2","","html-keyboard-response","228","564160","0.0-1.0-310.0","0","0","64969","","null","","","null","34","","NaN","","","","","","","","","","","","","",""
"","response","","html-keyboard-response","229","564667","0.0-1.0-311.0-0.0","0","0","64969","","504","","","75","34","","","1","34","training","adjacent","EF","5","6","L.jpg","R.jpg","1","1","1","",""
"","feedback","","html-keyboard-response","230","565671","0.0-1.0-312.0-0.0","0","0","64969","","null","","","null","34","","","","","","","","","","","","","","","",""
"","ITI","","html-keyboard-response","231","566675","0.0-1.0-315.0","0","0","64969","","null","","","null","34","","","","","","","","","","","","","","","NaN",""
"","S1","","html-keyboard-response","232","566829","0.0-1.0-317.0","0","0","64969","","null","","","null","35","","","","","","","","","","","","","","","",""
"","ISI","","html-keyboard-response","233","568833","0.0-1.0-318.0","0","0","64969","","null","","","null","35","NaN","","","","","","","","","","","","","","",""
"","S2","","html-keyboard-response","234","568986","0.0-1.0-319.0","0","0","64969","","null","","","null","35","","NaN","","","","","","","","","","","","","",""
"","response","","html-keyboard-response","235","569236","0.0-1.0-320.0-0.0","0","0","64969","","246","","","68","35","","","1","35","training","adjacent","DE","4","5","P.jpg","L.jpg","0","1","0","",""
"","feedback","","html-keyboard-response","236","570240","0.0-1.0-321.0-0.0","0","0","64969","","null","","","null","35","","","","","","","","","","","","","","","",""
"","time_out","","html-keyboard-response","237","572244","0.0-1.0-323.0-0.0","0","0","64969","","null","","","null","35","","","","","","","","","","","","","","","",""
"","ITI","","html-keyboard-response","238","573248","0.0-1.0-324.0","0","0","64969","","null","","","null","35","","","","","","","","","","","","","","","NaN",""
"","S1","","html-keyboard-response","239","573404","0.0-1.0-326.0","0","0","64969","","null","","","null","36","","","","","","","","","","","","","","","",""
"","ISI","","html-keyboard-response","240","575407","0.0-1.0-327.0","0","0","64969","","null","","","null","36","NaN","","","","","","","","","","","","","","",""
"","S2","","html-keyboard-response","241","575561","0.0-1.0-328.0","0","0","64969","","null","","","null","36","","NaN","","","","","","","","","","","","","",""
"","response","","html-keyboard-response","242","576219","0.0-1.0-329.0-0.0","0","0","64969","","655","","","75","36","","","1","36","training","adjacent","AB","1","2","Q.jpg","N.jpg","1","1","1","",""
"","feedback","","html-keyboard-response","243","577224","0.0-1.0-330.0-0.0","0","0","64969","","null","","","null","36","","","","","","","","","","","","","","","",""
"","ITI","","html-keyboard-response","244","578228","0.0-1.0-333.0","0","0","64969","","null","","","null","36","","","","","","","","","","","","","","","NaN",""
"","S1","","html-keyboard-response","245","578383","0.0-1.0-335.0","0","0","64969","","null","","","null","37","","","","","","","","","","","","","","","",""
"","ISI","","html-keyboard-response","246","580386","0.0-1.0-336.0","0","0","64969","","null","","","null","37","NaN","","","","","","","","","","","","","","",""
"","S2","","html-keyboard-response","247","580541","0.0-1.0-337.0","0","0","64969","","null","","","null","37","","NaN","","","","","","","","","","","","","",""
"","response","","html-keyboard-response","248","581171","0.0-1.0-338.0-0.0","0","0","64969","","626","","","68","37","","","1","37","training","adjacent","GF","7","6","O.jpg","R.jpg","0","0","1","",""
"","feedback","","html-keyboard-response","249","582175","0.0-1.0-339.0-0.0","0","0","64969","","null","","","null","37","","","","","","","","","","","","","","","",""
"","ITI","","html-keyboard-response","250","583179","0.0-1.0-342.0","0","0","64969","","null","","","null","37","","","","","","","","","","","","","","","NaN",""
"","S1","","html-keyboard-response","251","583333","0.0-1.0-344.0","0","0","64969","","null","","","null","38","","","","","","","","","","","","","","","",""
"","ISI","","html-keyboard-response","252","585336","0.0-1.0-345.0","0","0","64969","","null","","","null","38","NaN","","","","","","","","","","","","","","",""
"","S2","","html-keyboard-response","253","585490","0.0-1.0-346.0","0","0","64969","","null","","","null","38","","NaN","","","","","","","","","","","","","",""
"","response","","html-keyboard-response","254","586011","0.0-1.0-347.0-0.0","0","0","64969","","518","","","75","38","","","1","38","training","adjacent","AB","1","2","Q.jpg","N.jpg","1","1","1","",""
"","feedback","","html-keyboard-response","255","587014","0.0-1.0-348.0-0.0","0","0","64969","","null","","","null","38","","","","","","","","","","","","","","","",""
"","ITI","","html-keyboard-response","256","588016","0.0-1.0-351.0","0","0","64969","","null","","","null","38","","","","","","","","","","","","","","","NaN",""
"","S1","","html-keyboard-response","257","588170","0.0-1.0-353.0","0","0","64969","","null","","","null","39","","","","","","","","","","","","","","","",""
"","ISI","","html-keyboard-response","258","590175","0.0-1.0-354.0","0","0","64969","","null","","","null","39","NaN","","","","","","","","","","","","","","",""
"","S2","","html-keyboard-response","259","590327","0.0-1.0-355.0","0","0","64969","","null","","","null","39","","NaN","","","","","","","","","","","","","",""
"","response","","html-keyboard-response","260","591196","0.0-1.0-356.0-0.0","0","0","64969","","866","","","75","39","","","1","39","training","adjacent","FG","6","7","R.jpg","O.jpg","1","1","1","",""
"","feedback","","html-keyboard-response","261","592200","0.0-1.0-357.0-0.0","0","0","64969","","null","","","null","39","","","","","","","","","","","","","","","",""
"","ITI","","html-keyboard-response","262","593204","0.0-1.0-360.0","0","0","64969","","null","","","null","39","","","","","","","","","","","","","","","NaN",""
"","S1","","html-keyboard-response","263","593359","0.0-1.0-362.0","0","0","64969","","null","","","null","40","","","","","","","","","","","","","","","",""
"","ISI","","html-keyboard-response","264","595362","0.0-1.0-363.0","0","0","64969","","null","","","null","40","NaN","","","","","","","","","","","","","","",""
"","S2","","html-keyboard-response","265","595515","0.0-1.0-364.0","0","0","64969","","null","","","null","40","","NaN","","","","","","","","","","","","","",""
"","response","","html-keyboard-response","266","596005","0.0-1.0-365.0-0.0","0","0","64969","","488","","","68","40","","","1","40","training","adjacent","BC","2","3","N.jpg","M.jpg","0","1","0","",""
"","feedback","","html-keyboard-response","267","597009","0.0-1.0-366.0-0.0","0","0","64969","","null","","","null","40","","","","","","","","","","","","","","","",""
"","time_out","","html-keyboard-response","268","599012","0.0-1.0-368.0-0.0","0","0","64969","","null","","","null","40","","","","","","","","","","","","","","","",""
"","ITI","","html-keyboard-response","269","600015","0.0-1.0-369.0","0","0","64969","","null","","","null","40","","","","","","","","","","","","","","","NaN",""
"","S1","","html-keyboard-response","270","600170","0.0-1.0-371.0","0","0","64969","","null","","","null","41","","","","","","","","","","","","","","","",""
"","ISI","","html-keyboard-response","271","602173","0.0-1.0-372.0","0","0","64969","","null","","","null","41","NaN","","","","","","","","","","","","","","",""
"","S2","","html-keyboard-response","272","602325","0.0-1.0-373.0","0","0","64969","","null","","","null","41","","NaN","","","","","","","","","","","","","",""
"","response","","html-keyboard-response","273","603222","0.0-1.0-374.0-0.0","0","0","64969","","893","","","68","41","","","1","41","training","adjacent","DE","4","5","P.jpg","L.jpg","0","1","0","",""
"","feedback","","html-keyboard-response","274","604226","0.0-1.0-375.0-0.0","0","0","64969","","null","","","null","41","","","","","","","","","","","","","","","",""
"","time_out","","html-keyboard-response","275","606227","0.0-1.0-377.0-0.0","0","0","64969","","null","","","null","41","","","","","","","","","","","","","","","",""
"","ITI","","html-keyboard-response","276","607230","0.0-1.0-378.0","0","0","64969","","null","","","null","41","","","","","","","","","","","","","","","NaN",""
"","S1","","html-keyboard-response","277","607383","0.0-1.0-380.0","0","0","64969","","null","","","null","42","","","","","","","","","","","","","","","",""
"","ISI","","html-keyboard-response","278","609386","0.0-1.0-381.0","0","0","64969","","null","","","null","42","NaN","","","","","","","","","","","","","","",""
"","S2","","html-keyboard-response","279","609539","0.0-1.0-382.0","0","0","64969","","null","","","null","42","","NaN","","","","","","","","","","","","","",""
"","response","","html-keyboard-response","280","609973","0.0-1.0-383.0-0.0","0","0","64969","","432","","","68","42","","","1","42","training","adjacent","CD","3","4","M.jpg","P.jpg","0","1","0","",""
"","feedback","","html-keyboard-response","281","610978","0.0-1.0-384.0-0.0","0","0","64969","","null","","","null","42","","","","","","","","","","","","","","","",""
"","time_out","","html-keyboard-response","282","612981","0.0-1.0-386.0-0.0","0","0","64969","","null","","","null","42","","","","","","","","","","","","","","","",""
"","ITI","","html-keyboard-response","283","613984","0.0-1.0-387.0","0","0","64969","","null","","","null","42","","","","","","","","","","","","","","","NaN",""
"","S1","","html-keyboard-response","284","614138","0.0-1.0-389.0","0","0","64969","","null","","","null","43","","","","","","","","","","","","","","","",""
"","ISI","","html-keyboard-response","285","616142","0.0-1.0-390.0","0","0","64969","","null","","","null","43","NaN","","","","","","","","","","","","","","",""
"","S2","","html-keyboard-response","286","616295","0.0-1.0-391.0","0","0","64969","","null","","","null","43","","NaN","","","","","","","","","","","","","",""
"","response","","html-keyboard-response","287","616638","0.0-1.0-392.0-0.0","0","0","64969","","340","","","75","43","","","1","43","training","adjacent","ED","5","4","L.jpg","P.jpg","1","0","0","",""
"","feedback","","html-keyboard-response","288","617642","0.0-1.0-393.0-0.0","0","0","64969","","null","","","null","43","","","","","","","","","","","","","","","",""
"","time_out","","html-keyboard-response","289","619646","0.0-1.0-395.0-0.0","0","0","64969","","null","","","null","43","","","","","","","","","","","","","","","",""
"","ITI","","html-keyboard-response","290","620649","0.0-1.0-396.0","0","0","64969","","null","","","null","43","","","","","","","","","","","","","","","NaN",""
"","S1","","html-keyboard-response","291","620803","0.0-1.0-398.0","0","0","64969","","null","","","null","44","","","","","","","","","","","","","","","",""
"","ISI","","html-keyboard-response","292","622805","0.0-1.0-399.0","0","0","64969","","null","","","null","44","NaN","","","","","","","","","","","","","","",""
"","S2","","html-keyboard-response","293","622959","0.0-1.0-400.0","0","0","64969","","null","","","null","44","","NaN","","","","","","","","","","","","","",""
"","response","","html-keyboard-response","294","623909","0.0-1.0-401.0-0.0","0","0","64969","","947","","","68","44","","","1","44","training","adjacent","BA","2","1","N.jpg","Q.jpg","0","0","1","",""
"","feedback","","html-keyboard-response","295","624913","0.0-1.0-402.0-0.0","0","0","64969","","null","","","null","44","","","","","","","","","","","","","","","",""
"","ITI","","html-keyboard-response","296","625917","0.0-1.0-405.0","0","0","64969","","null","","","null","44","","","","","","","","","","","","","","","NaN",""
"","S1","","html-keyboard-response","297","626071","0.0-1.0-407.0","0","0","64969","","null","","","null","45","","","","","","","","","","","","","","","",""
"","ISI","","html-keyboard-response","298","628076","0.0-1.0-408.0","0","0","64969","","null","","","null","45","NaN","","","","","","","","","","","","","","",""
"","S2","","html-keyboard-response","299","628231","0.0-1.0-409.0","0","0","64969","","null","","","null","45","","NaN","","","","","","","","","","","","","",""
"","response","","html-keyboard-response","300","630084","0.0-1.0-410.0-0.0","0","0","64969","","null","","","null","45","","","1","45","training","adjacent","DC","4","3","P.jpg","M.jpg","NaN","0","0","",""
"","too_slow_prompt","","html-keyboard-response","301","631088","0.0-1.0-412.0-0.0","1","0","64969","","null","","","null","","","","","","","","","","","","","","","","",""
"","time_out","","html-keyboard-response","302","633092","0.0-1.0-413.0-0.0","0","0","64969","","null","","","null","45","","","","","","","","","","","","","","","",""
"","ITI","","html-keyboard-response","303","634106","0.0-1.0-414.0","0","0","64969","","null","","","null","45","","","","","","","","","","","","","","","NaN",""
"","S1","","html-keyboard-response","304","634260","0.0-1.0-416.0","0","0","64969","","null","","","null","46","","","","","","","","","","","","","","","",""
"","ISI","","html-keyboard-response","305","636264","0.0-1.0-417.0","0","0","64969","","null","","","null","46","NaN","","","","","","","","","","","","","","",""
"","S2","","html-keyboard-response","306","636419","0.0-1.0-418.0","0","0","64969","","null","","","null","46","","NaN","","","","","","","","","","","","","",""
"","response","","html-keyboard-response","307","637571","0.0-1.0-419.0-0.0","0","0","64969","","1150","","","68","46","","","1","46","training","adjacent","DC","4","3","P.jpg","M.jpg","0","0","1","",""
"","feedback","","html-keyboard-response","308","638575","0.0-1.0-420.0-0.0","0","0","64969","","null","","","null","46","","","","","","","","","","","","","","","",""
"","ITI","","html-keyboard-response","309","639579","0.0-1.0-423.0","0","0","64969","","null","","","null","46","","","","","","","","","","","","","","","NaN",""
"","S1","","html-keyboard-response","310","639733","0.0-1.0-425.0","0","0","64969","","null","","","null","47","","","","","","","","","","","","","","","",""
"","ISI","","html-keyboard-response","311","641737","0.0-1.0-426.0","0","0","64969","","null","","","null","47","NaN","","","","","","","","","","","","","","",""
"","S2","","html-keyboard-response","312","641891","0.0-1.0-427.0","0","0","64969","","null","","","null","47","","NaN","","","","","","","","","","","","","",""
"","response","","html-keyboard-response","313","643745","0.0-1.0-428.0-0.0","0","0","64969","","null","","","null","47","","","1","47","training","adjacent","GF","7","6","O.jpg","R.jpg","NaN","0","0","",""
"","too_slow_prompt","","html-keyboard-response","314","644748","0.0-1.0-430.0-0.0","1","0","64969","","null","","","null","","","","","","","","","","","","","","","","",""
"","time_out","","html-keyboard-response","315","646752","0.0-1.0-431.0-0.0","0","0","64969","","null","","","null","47","","","","","","","","","","","","","","","",""
"","ITI","","html-keyboard-response","316","647754","0.0-1.0-432.0","0","0","64969","","null","","","null","47","","","","","","","","","","","","","","","NaN",""
"","block_over","","html-keyboard-response","317","839741","0.0-1.0-433.0-0.0","0","0","64969","","191984","","","32","47","","","","","","","","","","","","","","","",""
"","S1","","html-keyboard-response","318","839894","0.0-1.0-434.0","0","0","64969","","null","","","null","48","","","","","","","","","","","","","","","",""
"","ISI","","html-keyboard-response","319","841896","0.0-1.0-435.0","0","0","64969","","null","","","null","48","NaN","","","","","","","","","","","","","","",""
"","S2","","html-keyboard-response","320","842049","0.0-1.0-436.0","0","0","64969","","null","","","null","48","","NaN","","","","","","","","","","","","","",""
"","response","","html-keyboard-response","321","842916","0.0-1.0-437.0-0.0","0","0","64969","","864","","","68","48","","","2","48","training","adjacent","FE","6","5","R.jpg","L.jpg","0","0","1","",""
"","feedback","","html-keyboard-response","322","843918","0.0-1.0-438.0-0.0","0","0","64969","","null","","","null","48","","","","","","","","","","","","","","","",""
"","ITI","","html-keyboard-response","323","844921","0.0-1.0-441.0","0","0","64969","","null","","","null","48","","","","","","","","","","","","","","","NaN",""
"","S1","","html-keyboard-response","324","845075","0.0-1.0-443.0","0","0","64969","","null","","","null","49","","","","","","","","","","","","","","","",""
"","ISI","","html-keyboard-response","325","847079","0.0-1.0-444.0","0","0","64969","","null","","","null","49","NaN","","","","","","","","","","","","","","",""
"","S2","","html-keyboard-response","326","847233","0.0-1.0-445.0","0","0","64969","","null","","","null","49","","NaN","","","","","","","","","","","","","",""
"","response","","html-keyboard-response","327","847534","0.0-1.0-446.0-0.0","0","0","64969","","297","","","75","49","","","2","49","training","adjacent","CB","3","2","M.jpg","N.jpg","1","0","0","",""
"","feedback","","html-keyboard-response","328","848538","0.0-1.0-447.0-0.0","0","0","64969","","null","","","null","49","","","","","","","","","","","","","","","",""
"","time_out","","html-keyboard-response","329","850542","0.0-1.0-449.0-0.0","0","0","64969","","null","","","null","49","","","","","","","","","","","","","","","",""
"","ITI","","html-keyboard-response","330","851546","0.0-1.0-450.0","0","0","64969","","null","","","null","49","","","","","","","","","","","","","","","NaN",""
"","S1","","html-keyboard-response","331","851700","0.0-1.0-452.0","0","0","64969","","null","","","null","50","","","","","","","","","","","","","","","",""
"","ISI","","html-keyboard-response","332","853703","0.0-1.0-453.0","0","0","64969","","1934","","","68","50","d","","","","","","","","","","","","","","",""
"","S2","","html-keyboard-response","333","853869","0.0-1.0-454.0","0","0","64969","","null","","","null","50","","NaN","","","","","","","","","","","","","",""
"","response","","html-keyboard-response","334","854605","0.0-1.0-455.0-0.0","0","0","64969","","734","","","75","50","","","2","50","training","adjacent","CB","3","2","M.jpg","N.jpg","1","0","0","",""
"","feedback","","html-keyboard-response","335","855609","0.0-1.0-456.0-0.0","0","0","64969","","null","","","null","50","","","","","","","","","","","","","","","",""
"","time_out","","html-keyboard-response","336","857611","0.0-1.0-458.0-0.0","0","0","64969","","null","","","null","50","","","","","","","","","","","","","","","",""
"","ITI","","html-keyboard-response","337","858615","0.0-1.0-459.0","0","0","64969","","null","","","null","50","","","","","","","","","","","","","","","NaN",""
"","S1","","html-keyboard-response","338","858769","0.0-1.0-461.0","0","0","64969","","null","","","null","51","","","","","","","","","","","","","","","",""
"","ISI","","html-keyboard-response","339","860773","0.0-1.0-462.0","0","0","64969","","null","","","null","51","NaN","","","","","","","","","","","","","","",""
"","S2","","html-keyboard-response","340","860926","0.0-1.0-463.0","0","0","64969","","null","","","null","51","","NaN","","","","","","","","","","","","","",""
"","response","","html-keyboard-response","341","861405","0.0-1.0-464.0-0.0","0","0","64969","","477","","","68","51","","","2","51","training","adjacent","DC","4","3","P.jpg","M.jpg","0","0","1","",""
"","feedback","","html-keyboard-response","342","862409","0.0-1.0-465.0-0.0","0","0","64969","","null","","","null","51","","","","","","","","","","","","","","","",""
"","ITI","","html-keyboard-response","343","863414","0.0-1.0-468.0","0","0","64969","","null","","","null","51","","","","","","","","","","","","","","","NaN",""
"","S1","","html-keyboard-response","344","863567","0.0-1.0-470.0","0","0","64969","","null","","","null","52","","","","","","","","","","","","","","","",""
"","ISI","","html-keyboard-response","345","865570","0.0-1.0-471.0","0","0","64969","","null","","","null","52","NaN","","","","","","","","","","","","","","",""
"","S2","","html-keyboard-response","346","865737","0.0-1.0-472.0","0","0","64969","","null","","","null","52","","NaN","","","","","","","","","","","","","",""
"","response","","html-keyboard-response","347","866077","0.0-1.0-473.0-0.0","0","0","64969","","337","","","75","52","","","2","52","training","adjacent","ED","5","4","L.jpg","P.jpg","1","0","0","",""
"","feedback","","html-keyboard-response","348","867081","0.0-1.0-474.0-0.0","0","0","64969","","null","","","null","52","","","","","","","","","","","","","","","",""
"","time_out","","html-keyboard-response","349","869086","0.0-1.0-476.0-0.0","0","0","64969","","null","","","null","52","","","","","","","","","","","","","","","",""
"","ITI","","html-keyboard-response","350","870090","0.0-1.0-477.0","0","0","64969","","null","","","null","52","","","","","","","","","","","","","","","NaN",""
"","S1","","html-keyboard-response","351","870245","0.0-1.0-479.0","0","0","64969","","null","","","null","53","","","","","","","","","","","","","","","",""
"","ISI","","html-keyboard-response","352","872249","0.0-1.0-480.0","0","0","64969","","null","","","null","53","NaN","","","","","","","","","","","","","","",""
"","S2","","html-keyboard-response","353","872403","0.0-1.0-481.0","0","0","64969","","null","","","null","53","","NaN","","","","","","","","","","","","","",""
"","response","","html-keyboard-response","354","872900","0.0-1.0-482.0-0.0","0","0","64969","","494","","","68","53","","","2","53","training","adjacent","FG","6","7","R.jpg","O.jpg","0","1","0","",""
"","feedback","","html-keyboard-response","355","873904","0.0-1.0-483.0-0.0","0","0","64969","","null","","","null","53","","","","","","","","","","","","","","","",""
"","time_out","","html-keyboard-response","356","875906","0.0-1.0-485.0-0.0","0","0","64969","","null","","","null","53","","","","","","","","","","","","","","","",""
"","ITI","","html-keyboard-response","357","876910","0.0-1.0-486.0","0","0","64969","","null","","","null","53","","","","","","","","","","","","","","","NaN",""
"","S1","","html-keyboard-response","358","877064","0.0-1.0-488.0","0","0","64969","","null","","","null","54","","","","","","","","","","","","","","","",""
"","ISI","","html-keyboard-response","359","879067","0.0-1.0-489.0","0","0","64969","","null","","","null","54","NaN","","","","","","","","","","","","","","",""
"","S2","","html-keyboard-response","360","879221","0.0-1.0-490.0","0","0","64969","","null","","","null","54","","NaN","","","","","","","","","","","","","",""
"","response","","html-keyboard-response","361","880206","0.0-1.0-491.0-0.0","0","0","64969","","981","","","68","54","","","2","54","training","adjacent","DE","4","5","P.jpg","L.jpg","0","1","0","",""
"","feedback","","html-keyboard-response","362","881210","0.0-1.0-492.0-0.0","0","0","64969","","null","","","null","54","","","","","","","","","","","","","","","",""
"","time_out","","html-keyboard-response","363","883215","0.0-1.0-494.0-0.0","0","0","64969","","null","","","null","54","","","","","","","","","","","","","","","",""
"","ITI","","html-keyboard-response","364","884220","0.0-1.0-495.0","0","0","64969","","null","","","null","54","","","","","","","","","","","","","","","NaN",""
"","S1","","html-keyboard-response","365","884377","0.0-1.0-497.0","0","0","64969","","null","","","null","55","","","","","","","","","","","","","","","",""
"","ISI","","html-keyboard-response","366","886382","0.0-1.0-498.0","0","0","64969","","null","","","null","55","NaN","","","","","","","","","","","","","","",""
"","S2","","html-keyboard-response","367","886537","0.0-1.0-499.0","0","0","64969","","null","","","null","55","","NaN","","","","","","","","","","","","","",""
"","response","","html-keyboard-response","368","888391","0.0-1.0-500.0-0.0","0","0","64969","","null","","","null","55","","","2","55","training","adjacent","GF","7","6","O.jpg","R.jpg","NaN","0","0","",""
"","too_slow_prompt","","html-keyboard-response","369","889395","0.0-1.0-502.0-0.0","1","0","64969","","null","","","null","","","","","","","","","","","","","","","","",""
"","time_out","","html-keyboard-response","370","891399","0.0-1.0-503.0-0.0","0","0","64969","","null","","","null","55","","","","","","","","","","","","","","","",""
"","ITI","","html-keyboard-response","371","892405","0.0-1.0-504.0","0","0","64969","","null","","","null","55","","","","","","","","","","","","","","","NaN",""
"","S1","","html-keyboard-response","372","892559","0.0-1.0-506.0","0","0","64969","","null","","","null","56","","","","","","","","","","","","","","","",""
"","ISI","","html-keyboard-response","373","894563","0.0-1.0-507.0","0","0","64969","","null","","","null","56","NaN","","","","","","","","","","","","","","",""
"","S2","","html-keyboard-response","374","894718","0.0-1.0-508.0","0","0","64969","","null","","","null","56","","NaN","","","","","","","","","","","","","",""
"","response","","html-keyboard-response","375","895079","0.0-1.0-509.0-0.0","0","0","64969","","358","","","68","56","","","2","56","training","adjacent","DE","4","5","P.jpg","L.jpg","0","1","0","",""
"","feedback","","html-keyboard-response","376","896081","0.0-1.0-510.0-0.0","0","0","64969","","null","","","null","56","","","","","","","","","","","","","","","",""
"","time_out","","html-keyboard-response","377","898084","0.0-1.0-512.0-0.0","0","0","64969","","null","","","null","56","","","","","","","","","","","","","","","",""
"","ITI","","html-keyboard-response","378","899088","0.0-1.0-513.0","0","0","64969","","null","","","null","56","","","","","","","","","","","","","","","NaN",""
"","S1","","html-keyboard-response","379","899244","0.0-1.0-515.0","0","0","64969","","null","","","null","57","","","","","","","","","","","","","","","",""
"","ISI","","html-keyboard-response","380","901248","0.0-1.0-516.0","0","0","64969","","null","","","null","57","NaN","","","","","","","","","","","","","","",""
"","S2","","html-keyboard-response","381","901402","0.0-1.0-517.0","0","0","64969","","null","","","null","57","","NaN","","","","","","","","","","","","","",""
"","response","","html-keyboard-response","382","901967","0.0-1.0-518.0-0.0","0","0","64969","","563","","","68","57","","","2","57","training","adjacent","BC","2","3","N.jpg","M.jpg","0","1","0","",""
"","feedback","","html-keyboard-response","383","902970","0.0-1.0-519.0-0.0","0","0","64969","","null","","","null","57","","","","","","","","","","","","","","","",""
"","time_out","","html-keyboard-response","384","904974","0.0-1.0-521.0-0.0","0","0","64969","","null","","","null","57","","","","","","","","","","","","","","","",""
"","ITI","","html-keyboard-response","385","905985","0.0-1.0-522.0","0","0","64969","","null","","","null","57","","","","","","","","","","","","","","","NaN",""
"","S1","","html-keyboard-response","386","906138","0.0-1.0-524.0","0","0","64969","","null","","","null","58","","","","","","","","","","","","","","","",""
"","ISI","","html-keyboard-response","387","908141","0.0-1.0-525.0","0","0","64969","","null","","","null","58","NaN","","","","","","","","","","","","","","",""
"","S2","","html-keyboard-response","388","908296","0.0-1.0-526.0","0","0","64969","","null","","","null","58","","NaN","","","","","","","","","","","","","",""
"","response","","html-keyboard-response","389","908360","0.0-1.0-527.0-0.0","0","0","64969","","62","","","75","58","","","2","58","training","adjacent","FE","6","5","R.jpg","L.jpg","1","0","0","",""
"","feedback","","html-keyboard-response","390","909363","0.0-1.0-528.0-0.0","0","0","64969","","null","","","null","58","","","","","","","","","","","","","","","",""
"","time_out","","html-keyboard-response","391","911367","0.0-1.0-530.0-0.0","0","0","64969","","null","","","null","58","","","","","","","","","","","","","","","",""
"","ITI","","html-keyboard-response","392","912371","0.0-1.0-531.0","0","0","64969","","null","","","null","58","","","","","","","","","","","","","","","NaN",""
"","S1","","html-keyboard-response","393","912525","0.0-1.0-533.0","0","0","64969","","null","","","null","59","","","","","","","","","","","","","","","",""
"","ISI","","html-keyboard-response","394","914529","0.0-1.0-534.0","0","0","64969","","null","","","null","59","NaN","","","","","","","","","","","","","","",""
"","S2","","html-keyboard-response","395","914683","0.0-1.0-535.0","0","0","64969","","null","","","null","59","","NaN","","","","","","","","","","","","","",""
"","response","","html-keyboard-response","396","915951","0.0-1.0-536.0-0.0","0","0","64969","","1265","","","68","59","","","2","59","training","adjacent","DE","4","5","P.jpg","L.jpg","0","1","0","",""
"","feedback","","html-keyboard-response","397","916965","0.0-1.0-537.0-0.0","0","0","64969","","null","","","null","59","","","","","","","","","","","","","","","",""
"","time_out","","html-keyboard-response","398","918968","0.0-1.0-539.0-0.0","0","0","64969","","null","","","null","59","","","","","","","","","","","","","","","",""
"","ITI","","html-keyboard-response","399","919972","0.0-1.0-540.0","0","0","64969","","null","","","null","59","","","","","","","","","","","","","","","NaN",""
"","S1","","html-keyboard-response","400","920125","0.0-1.0-542.0","0","0","64969","","null","","","null","60","","","","","","","","","","","","","","","",""
"","ISI","","html-keyboard-response","401","922129","0.0-1.0-543.0","0","0","64969","","null","","","null","60","NaN","","","","","","","","","","","","","","",""
"","S2","","html-keyboard-response","402","922282","0.0-1.0-544.0","0","0","64969","","null","","","null","60","","NaN","","","","","","","","","","","","","",""
"","response","","html-keyboard-response","403","922768","0.0-1.0-545.0-0.0","0","0","64969","","483","","","75","60","","","2","60","training","adjacent","BA","2","1","N.jpg","Q.jpg","1","0","0","",""
"","feedback","","html-keyboard-response","404","923772","0.0-1.0-546.0-0.0","0","0","64969","","null","","","null","60","","","","","","","","","","","","","","","",""
"","time_out","","html-keyboard-response","405","925778","0.0-1.0-548.0-0.0","0","0","64969","","null","","","null","60","","","","","","","","","","","","","","","",""
"","ITI","","html-keyboard-response","406","926781","0.0-1.0-549.0","0","0","64969","","null","","","null","60","","","","","","","","","","","","","","","NaN",""
"","S1","","html-keyboard-response","407","926935","0.0-1.0-551.0","0","0","64969","","null","","","null","61","","","","","","","","","","","","","","","",""
"","ISI","","html-keyboard-response","408","928937","0.0-1.0-552.0","0","0","64969","","null","","","null","61","NaN","","","","","","","","","","","","","","",""
"","S2","","html-keyboard-response","409","929090","0.0-1.0-553.0","0","0","64969","","null","","","null","61","","NaN","","","","","","","","","","","","","",""
"","response","","html-keyboard-response","410","929680","0.0-1.0-554.0-0.0","0","0","64969","","587","","","75","61","","","2","61","training","adjacent","DC","4","3","P.jpg","M.jpg","1","0","0","",""
"","feedback","","html-keyboard-response","411","930684","0.0-1.0-555.0-0.0","0","0","64969","","null","","","null","61","","","","","","","","","","","","","","","",""
"","time_out","","html-keyboard-response","412","932688","0.0-1.0-557.0-0.0","0","0","64969","","null","","","null","61","","","","","","","","","","","","","","","",""
"","ITI","","html-keyboard-response","413","933692","0.0-1.0-558.0","0","0","64969","","596","","","68","61","","","","","","","","","","","","","","","d",""
"","S1","","html-keyboard-response","414","933846","0.0-1.0-560.0","0","0","64969","","null","","","null","62","","","","","","","","","","","","","","","",""
"","ISI","","html-keyboard-response","415","935850","0.0-1.0-561.0","0","0","64969","","1191","","","68","62","d","","","","","","","","","","","","","","",""
"","S2","","html-keyboard-response","416","936004","0.0-1.0-562.0","0","0","64969","","null","","","null","62","","NaN","","","","","","","","","","","","","",""
"","response","","html-keyboard-response","417","936392","0.0-1.0-563.0-0.0","0","0","64969","","385","","","68","62","","","2","62","training","adjacent","FG","6","7","R.jpg","O.jpg","0","1","0","",""
"","feedback","","html-keyboard-response","418","937397","0.0-1.0-564.0-0.0","0","0","64969","","null","","","null","62","","","","","","","","","","","","","","","",""
"","time_out","","html-keyboard-response","419","939402","0.0-1.0-566.0-0.0","0","0","64969","","null","","","null","62","","","","","","","","","","","","","","","",""
"","ITI","","html-keyboard-response","420","940406","0.0-1.0-567.0","0","0","64969","","null","","","null","62","","","","","","","","","","","","","","","NaN",""
"","S1","","html-keyboard-response","421","940560","0.0-1.0-569.0","0","0","64969","","null","","","null","63","","","","","","","","","","","","","","","",""
"","ISI","","html-keyboard-response","422","942563","0.0-1.0-570.0","0","0","64969","","null","","","null","63","NaN","","","","","","","","","","","","","","",""
"","S2","","html-keyboard-response","423","942718","0.0-1.0-571.0","0","0","64969","","null","","","null","63","","NaN","","","","","","","","","","","","","",""
"","response","","html-keyboard-response","424","943256","0.0-1.0-572.0-0.0","0","0","64969","","535","","","75","63","","","2","63","training","adjacent","DC","4","3","P.jpg","M.jpg","1","0","0","",""
"","feedback","","html-keyboard-response","425","944260","0.0-1.0-573.0-0.0","0","0","64969","","null","","","null","63","","","","","","","","","","","","","","","",""
"","time_out","","html-keyboard-response","426","946263","0.0-1.0-575.0-0.0","0","0","64969","","null","","","null","63","","","","","","","","","","","","","","","",""
"","ITI","","html-keyboard-response","427","947268","0.0-1.0-576.0","0","0","64969","","null","","","null","63","","","","","","","","","","","","","","","NaN",""
"","S1","","html-keyboard-response","428","947422","0.0-1.0-578.0","0","0","64969","","null","","","null","64","","","","","","","","","","","","","","","",""
"","ISI","","html-keyboard-response","429","949425","0.0-1.0-579.0","0","0","64969","","null","","","null","64","NaN","","","","","","","","","","","","","","",""
"","S2","","html-keyboard-response","430","949580","0.0-1.0-580.0","0","0","64969","","null","","","null","64","","NaN","","","","","","","","","","","","","",""
"","response","","html-keyboard-response","431","950512","0.0-1.0-581.0-0.0","0","0","64969","","930","","","75","64","","","2","64","training","adjacent","BA","2","1","N.jpg","Q.jpg","1","0","0","",""
"","feedback","","html-keyboard-response","432","951517","0.0-1.0-582.0-0.0","0","0","64969","","null","","","null","64","","","","","","","","","","","","","","","",""
"","time_out","","html-keyboard-response","433","953523","0.0-1.0-584.0-0.0","0","0","64969","","null","","","null","64","","","","","","","","","","","","","","","",""
"","ITI","","html-keyboard-response","434","954527","0.0-1.0-585.0","0","0","64969","","null","","","null","64","","","","","","","","","","","","","","","NaN",""
"","S1","","html-keyboard-response","435","954681","0.0-1.0-587.0","0","0","64969","","null","","","null","65","","","","","","","","","","","","","","","",""
"","ISI","","html-keyboard-response","436","956685","0.0-1.0-588.0","0","0","64969","","null","","","null","65","NaN","","","","","","","","","","","","","","",""
"","S2","","html-keyboard-response","437","956840","0.0-1.0-589.0","0","0","64969","","null","","","null","65","","NaN","","","","","","","","","","","","","",""
"","response","","html-keyboard-response","438","957313","0.0-1.0-590.0-0.0","0","0","64969","","470","","","75","65","","","2","65","training","adjacent","GF","7","6","O.jpg","R.jpg","1","0","0","",""
"","feedback","","html-keyboard-response","439","958319","0.0-1.0-591.0-0.0","0","0","64969","","null","","","null","65","","","","","","","","","","","","","","","",""
"","time_out","","html-keyboard-response","440","960323","0.0-1.0-593.0-0.0","0","0","64969","","null","","","null","65","","","","","","","","","","","","","","","",""
"","ITI","","html-keyboard-response","441","961327","0.0-1.0-594.0","0","0","64969","","null","","","null","65","","","","","","","","","","","","","","","NaN",""
"","S1","","html-keyboard-response","442","961481","0.0-1.0-596.0","0","0","64969","","null","","","null","66","","","","","","","","","","","","","","","",""
"","ISI","","html-keyboard-response","443","963485","0.0-1.0-597.0","0","0","64969","","263","","","75","66","k","","","","","","","","","","","","","","",""
"","S2","","html-keyboard-response","444","963639","0.0-1.0-598.0","0","0","64969","","null","","","null","66","","NaN","","","","","","","","","","","","","",""
"","response","","html-keyboard-response","445","964298","0.0-1.0-599.0-0.0","0","0","64969","","657","","","75","66","","","2","66","training","adjacent","BA","2","1","N.jpg","Q.jpg","1","0","0","",""
"","feedback","","html-keyboard-response","446","965301","0.0-1.0-600.0-0.0","0","0","64969","","null","","","null","66","","","","","","","","","","","","","","","",""
"","time_out","","html-keyboard-response","447","967304","0.0-1.0-602.0-0.0","0","0","64969","","null","","","null","66","","","","","","","","","","","","","","","",""
"","ITI","","html-keyboard-response","448","968308","0.0-1.0-603.0","0","0","64969","","null","","","null","66","","","","","","","","","","","","","","","NaN",""
"","S1","","html-keyboard-response","449","968462","0.0-1.0-605.0","0","0","64969","","null","","","null","67","","","","","","","","","","","","","","","",""
"","ISI","","html-keyboard-response","450","970466","0.0-1.0-606.0","0","0","64969","","null","","","null","67","NaN","","","","","","","","","","","","","","",""
"","S2","","html-keyboard-response","451","970621","0.0-1.0-607.0","0","0","64969","","null","","","null","67","","NaN","","","","","","","","","","","","","",""
"","response","","html-keyboard-response","452","971074","0.0-1.0-608.0-0.0","0","0","64969","","449","","","75","67","","","2","67","training","adjacent","ED","5","4","L.jpg","P.jpg","1","0","0","",""
"","feedback","","html-keyboard-response","453","972078","0.0-1.0-609.0-0.0","0","0","64969","","null","","","null","67","","","","","","","","","","","","","","","",""
"","time_out","","html-keyboard-response","454","974083","0.0-1.0-611.0-0.0","0","0","64969","","null","","","null","67","","","","","","","","","","","","","","","",""
"","ITI","","html-keyboard-response","455","975085","0.0-1.0-612.0","0","0","64969","","null","","","null","67","","","","","","","","","","","","","","","NaN",""
"","S1","","html-keyboard-response","456","975240","0.0-1.0-614.0","0","0","64969","","null","","","null","68","","","","","","","","","","","","","","","",""
"","ISI","","html-keyboard-response","457","977242","0.0-1.0-615.0","0","0","64969","","null","","","null","68","NaN","","","","","","","","","","","","","","",""
"","S2","","html-keyboard-response","458","977395","0.0-1.0-616.0","0","0","64969","","null","","","null","68","","NaN","","","","","","","","","","","","","",""
"","response","","html-keyboard-response","459","977944","0.0-1.0-617.0-0.0","0","0","64969","","547","","","68","68","","","2","68","training","adjacent","CB","3","2","M.jpg","N.jpg","0","0","1","",""
"","feedback","","html-keyboard-response","460","978947","0.0-1.0-618.0-0.0","0","0","64969","","null","","","null","68","","","","","","","","","","","","","","","",""
"","ITI","","html-keyboard-response","461","979949","0.0-1.0-621.0","0","0","64969","","null","","","null","68","","","","","","","","","","","","","","","NaN",""
"","S1","","html-keyboard-response","462","980102","0.0-1.0-623.0","0","0","64969","","null","","","null","69","","","","","","","","","","","","","","","",""
"","ISI","","html-keyboard-response","463","982105","0.0-1.0-624.0","0","0","64969","","null","","","null","69","NaN","","","","","","","","","","","","","","",""
"","S2","","html-keyboard-response","464","982259","0.0-1.0-625.0","0","0","64969","","null","","","null","69","","NaN","","","","","","","","","","","","","",""
"","response","","html-keyboard-response","465","982554","0.0-1.0-626.0-0.0","0","0","64969","","291","","","75","69","","","2","69","training","adjacent","EF","5","6","L.jpg","R.jpg","1","1","1","",""
"","feedback","","html-keyboard-response","466","983559","0.0-1.0-627.0-0.0","0","0","64969","","null","","","null","69","","","","","","","","","","","","","","","",""
"","ITI","","html-keyboard-response","467","984560","0.0-1.0-630.0","0","0","64969","","null","","","null","69","","","","","","","","","","","","","","","NaN",""
"","S1","","html-keyboard-response","468","984713","0.0-1.0-632.0","0","0","64969","","null","","","null","70","","","","","","","","","","","","","","","",""
"","ISI","","html-keyboard-response","469","986715","0.0-1.0-633.0","0","0","64969","","null","","","null","70","NaN","","","","","","","","","","","","","","",""
"","S2","","html-keyboard-response","470","986870","0.0-1.0-634.0","0","0","64969","","null","","","null","70","","NaN","","","","","","","","","","","","","",""
"","response","","html-keyboard-response","471","987464","0.0-1.0-635.0-0.0","0","0","64969","","592","","","68","70","","","2","70","training","adjacent","DC","4","3","P.jpg","M.jpg","0","0","1","",""
"","feedback","","html-keyboard-response","472","988467","0.0-1.0-636.0-0.0","0","0","64969","","null","","","null","70","","","","","","","","","","","","","","","",""
"","ITI","","html-keyboard-response","473","989471","0.0-1.0-639.0","0","0","64969","","null","","","null","70","","","","","","","","","","","","","","","NaN",""
"","S1","","html-keyboard-response","474","989623","0.0-1.0-641.0","0","0","64969","","null","","","null","71","","","","","","","","","","","","","","","",""
"","ISI","","html-keyboard-response","475","991625","0.0-1.0-642.0","0","0","64969","","null","","","null","71","NaN","","","","","","","","","","","","","","",""
"","S2","","html-keyboard-response","476","991779","0.0-1.0-643.0","0","0","64969","","null","","","null","71","","NaN","","","","","","","","","","","","","",""
"","response","","html-keyboard-response","477","992226","0.0-1.0-644.0-0.0","0","0","64969","","443","","","75","71","","","2","71","training","adjacent","ED","5","4","L.jpg","P.jpg","1","0","0","",""
"","feedback","","html-keyboard-response","478","993230","0.0-1.0-645.0-0.0","0","0","64969","","null","","","null","71","","","","","","","","","","","","","","","",""
"","time_out","","html-keyboard-response","479","995233","0.0-1.0-647.0-0.0","0","0","64969","","null","","","null","71","","","","","","","","","","","","","","","",""
"","ITI","","html-keyboard-response","480","996238","0.0-1.0-648.0","0","0","64969","","null","","","null","71","","","","","","","","","","","","","","","NaN",""
"","S1","","html-keyboard-response","481","996390","0.0-1.0-650.0","0","0","64969","","null","","","null","72","","","","","","","","","","","","","","","",""
"","ISI","","html-keyboard-response","482","998394","0.0-1.0-651.0","0","0","64969","","1890","","","68","72","d","","","","","","","","","","","","","","",""
"","S2","","html-keyboard-response","483","998549","0.0-1.0-652.0","0","0","64969","","null","","","null","72","","NaN","","","","","","","","","","","","","",""
"","response","","html-keyboard-response","484","998698","0.0-1.0-653.0-0.0","0","0","64969","","145","","","68","72","","","2","72","training","adjacent","DE","4","5","P.jpg","L.jpg","0","1","0","",""
"","feedback","","html-keyboard-response","485","999705","0.0-1.0-654.0-0.0","0","0","64969","","null","","","null","72","","","","","","","","","","","","","","","",""
"","time_out","","html-keyboard-response","486","1001708","0.0-1.0-656.0-0.0","0","0","64969","","null","","","null","72","","","","","","","","","","","","","","","",""
"","ITI","","html-keyboard-response","487","1002717","0.0-1.0-657.0","0","0","64969","","null","","","null","72","","","","","","","","","","","","","","","NaN",""
"","S1","","html-keyboard-response","488","1002871","0.0-1.0-659.0","0","0","64969","","null","","","null","73","","","","","","","","","","","","","","","",""
"","ISI","","html-keyboard-response","489","1004874","0.0-1.0-660.0","0","0","64969","","null","","","null","73","NaN","","","","","","","","","","","","","","",""
"","S2","","html-keyboard-response","490","1005028","0.0-1.0-661.0","0","0","64969","","null","","","null","73","","NaN","","","","","","","","","","","","","",""
"","response","","html-keyboard-response","491","1006330","0.0-1.0-662.0-0.0","0","0","64969","","1299","","","68","73","","","2","73","training","adjacent","AB","1","2","Q.jpg","N.jpg","0","1","0","",""
"","feedback","","html-keyboard-response","492","1007335","0.0-1.0-663.0-0.0","0","0","64969","","null","","","null","73","","","","","","","","","","","","","","","",""
"","time_out","","html-keyboard-response","493","1009340","0.0-1.0-665.0-0.0","0","0","64969","","null","","","null","73","","","","","","","","","","","","","","","",""
"","ITI","","html-keyboard-response","494","1010343","0.0-1.0-666.0","0","0","64969","","null","","","null","73","","","","","","","","","","","","","","","NaN",""
"","S1","","html-keyboard-response","495","1010497","0.0-1.0-668.0","0","0","64969","","null","","","null","74","","","","","","","","","","","","","","","",""
"","ISI","","html-keyboard-response","496","1012501","0.0-1.0-669.0","0","0","64969","","null","","","null","74","NaN","","","","","","","","","","","","","","",""
"","S2","","html-keyboard-response","497","1012656","0.0-1.0-670.0","0","0","64969","","null","","","null","74","","NaN","","","","","","","","","","","","","",""
"","response","","html-keyboard-response","498","1013804","0.0-1.0-671.0-0.0","0","0","64969","","1145","","","75","74","","","2","74","training","adjacent","CD","3","4","M.jpg","P.jpg","1","1","1","",""
"","feedback","","html-keyboard-response","499","1014809","0.0-1.0-672.0-0.0","0","0","64969","","null","","","null","74","","","","","","","","","","","","","","","",""
"","ITI","","html-keyboard-response","500","1015813","0.0-1.0-675.0","0","0","64969","","null","","","null","74","","","","","","","","","","","","","","","NaN",""
"","S1","","html-keyboard-response","501","1015966","0.0-1.0-677.0","0","0","64969","","null","","","null","75","","","","","","","","","","","","","","","",""
"","ISI","","html-keyboard-response","502","1017969","0.0-1.0-678.0","0","0","64969","","null","","","null","75","NaN","","","","","","","","","","","","","","",""
"","S2","","html-keyboard-response","503","1018123","0.0-1.0-679.0","0","0","64969","","null","","","null","75","","NaN","","","","","","","","","","","","","",""
"","response","","html-keyboard-response","504","1019380","0.0-1.0-680.0-0.0","0","0","64969","","1254","","","68","75","","","2","75","training","adjacent","CB","3","2","M.jpg","N.jpg","0","0","1","",""
"","feedback","","html-keyboard-response","505","1020385","0.0-1.0-681.0-0.0","0","0","64969","","null","","","null","75","","","","","","","","","","","","","","","",""
"","ITI","","html-keyboard-response","506","1021387","0.0-1.0-684.0","0","0","64969","","null","","","null","75","","","","","","","","","","","","","","","NaN",""
"","S1","","html-keyboard-response","507","1021539","0.0-1.0-686.0","0","0","64969","","null","","","null","76","","","","","","","","","","","","","","","",""
"","ISI","","html-keyboard-response","508","1023543","0.0-1.0-687.0","0","0","64969","","null","","","null","76","NaN","","","","","","","","","","","","","","",""
"","S2","","html-keyboard-response","509","1023697","0.0-1.0-688.0","0","0","64969","","null","","","null","76","","NaN","","","","","","","","","","","","","",""
"","response","","html-keyboard-response","510","1025172","0.0-1.0-689.0-0.0","0","0","64969","","1473","","","68","76","","","2","76","training","adjacent","AB","1","2","Q.jpg","N.jpg","0","1","0","",""
"","feedback","","html-keyboard-response","511","1026177","0.0-1.0-690.0-0.0","0","0","64969","","null","","","null","76","","","","","","","","","","","","","","","",""
"","time_out","","html-keyboard-response","512","1028181","0.0-1.0-692.0-0.0","0","0","64969","","null","","","null","76","","","","","","","","","","","","","","","",""
"","ITI","","html-keyboard-response","513","1029183","0.0-1.0-693.0","0","0","64969","","null","","","null","76","","","","","","","","","","","","","","","NaN",""
"","S1","","html-keyboard-response","514","1029337","0.0-1.0-695.0","0","0","64969","","null","","","null","77","","","","","","","","","","","","","","","",""
"","ISI","","html-keyboard-response","515","1031340","0.0-1.0-696.0","0","0","64969","","null","","","null","77","NaN","","","","","","","","","","","","","","",""
"","S2","","html-keyboard-response","516","1031494","0.0-1.0-697.0","0","0","64969","","null","","","null","77","","NaN","","","","","","","","","","","","","",""
"","response","","html-keyboard-response","517","1031900","0.0-1.0-698.0-0.0","0","0","64969","","403","","","75","77","","","2","77","training","adjacent","GF","7","6","O.jpg","R.jpg","1","0","0","",""
"","feedback","","html-keyboard-response","518","1032906","0.0-1.0-699.0-0.0","0","0","64969","","null","","","null","77","","","","","","","","","","","","","","","",""
"","time_out","","html-keyboard-response","519","1034912","0.0-1.0-701.0-0.0","0","0","64969","","null","","","null","77","","","","","","","","","","","","","","","",""
"","ITI","","html-keyboard-response","520","1035915","0.0-1.0-702.0","0","0","64969","","null","","","null","77","","","","","","","","","","","","","","","NaN",""
"","S1","","html-keyboard-response","521","1036068","0.0-1.0-704.0","0","0","64969","","null","","","null","78","","","","","","","","","","","","","","","",""
"","ISI","","html-keyboard-response","522","1038071","0.0-1.0-705.0","0","0","64969","","null","","","null","78","NaN","","","","","","","","","","","","","","",""
"","S2","","html-keyboard-response","523","1038224","0.0-1.0-706.0","0","0","64969","","null","","","null","78","","NaN","","","","","","","","","","","","","",""
"","response","","html-keyboard-response","524","1038890","0.0-1.0-707.0-0.0","0","0","64969","","663","","","75","78","","","2","78","training","adjacent","FE","6","5","R.jpg","L.jpg","1","0","0","",""
"","feedback","","html-keyboard-response","525","1039895","0.0-1.0-708.0-0.0","0","0","64969","","null","","","null","78","","","","","","","","","","","","","","","",""
"","time_out","","html-keyboard-response","526","1041899","0.0-1.0-710.0-0.0","0","0","64969","","null","","","null","78","","","","","","","","","","","","","","","",""
"","ITI","","html-keyboard-response","527","1042904","0.0-1.0-711.0","0","0","64969","","null","","","null","78","","","","","","","","","","","","","","","NaN",""
"","S1","","html-keyboard-response","528","1043058","0.0-1.0-713.0","0","0","64969","","null","","","null","79","","","","","","","","","","","","","","","",""
"","ISI","","html-keyboard-response","529","1045061","0.0-1.0-714.0","0","0","64969","","null","","","null","79","NaN","","","","","","","","","","","","","","",""
"","S2","","html-keyboard-response","530","1045215","0.0-1.0-715.0","0","0","64969","","null","","","null","79","","NaN","","","","","","","","","","","","","",""
"","response","","html-keyboard-response","531","1045707","0.0-1.0-716.0-0.0","0","0","64969","","490","","","68","79","","","2","79","training","adjacent","CD","3","4","M.jpg","P.jpg","0","1","0","",""
"","feedback","","html-keyboard-response","532","1046710","0.0-1.0-717.0-0.0","0","0","64969","","null","","","null","79","","","","","","","","","","","","","","","",""
"","time_out","","html-keyboard-response","533","1048715","0.0-1.0-719.0-0.0","0","0","64969","","null","","","null","79","","","","","","","","","","","","","","","",""
"","ITI","","html-keyboard-response","534","1049719","0.0-1.0-720.0","0","0","64969","","null","","","null","79","","","","","","","","","","","","","","","NaN",""
"","S1","","html-keyboard-response","535","1049871","0.0-1.0-722.0","0","0","64969","","null","","","null","80","","","","","","","","","","","","","","","",""
"","ISI","","html-keyboard-response","536","1051874","0.0-1.0-723.0","0","0","64969","","null","","","null","80","NaN","","","","","","","","","","","","","","",""
"","S2","","html-keyboard-response","537","1052027","0.0-1.0-724.0","0","0","64969","","null","","","null","80","","NaN","","","","","","","","","","","","","",""
"","response","","html-keyboard-response","538","1052196","0.0-1.0-725.0-0.0","0","0","64969","","166","","","68","80","","","2","80","training","adjacent","ED","5","4","L.jpg","P.jpg","0","0","1","",""
"","feedback","","html-keyboard-response","539","1053202","0.0-1.0-726.0-0.0","0","0","64969","","null","","","null","80","","","","","","","","","","","","","","","",""
"","ITI","","html-keyboard-response","540","1054206","0.0-1.0-729.0","0","0","64969","","null","","","null","80","","","","","","","","","","","","","","","NaN",""
"","S1","","html-keyboard-response","541","1054360","0.0-1.0-731.0","0","0","64969","","null","","","null","81","","","","","","","","","","","","","","","",""
"","ISI","","html-keyboard-response","542","1056364","0.0-1.0-732.0","0","0","64969","","null","","","null","81","NaN","","","","","","","","","","","","","","",""
"","S2","","html-keyboard-response","543","1056519","0.0-1.0-733.0","0","0","64969","","null","","","null","81","","NaN","","","","","","","","","","","","","",""
"","response","","html-keyboard-response","544","1057172","0.0-1.0-734.0-0.0","0","0","64969","","650","","","75","81","","","2","81","training","adjacent","BC","2","3","N.jpg","M.jpg","1","1","1","",""
"","feedback","","html-keyboard-response","545","1058177","0.0-1.0-735.0-0.0","0","0","64969","","null","","","null","81","","","","","","","","","","","","","","","",""
"","ITI","","html-keyboard-response","546","1059182","0.0-1.0-738.0","0","0","64969","","null","","","null","81","","","","","","","","","","","","","","","NaN",""
"","S1","","html-keyboard-response","547","1059335","0.0-1.0-740.0","0","0","64969","","null","","","null","82","","","","","","","","","","","","","","","",""
"","ISI","","html-keyboard-response","548","1061339","0.0-1.0-741.0","0","0","64969","","null","","","null","82","NaN","","","","","","","","","","","","","","",""
"","S2","","html-keyboard-response","549","1061492","0.0-1.0-742.0","0","0","64969","","null","","","null","82","","NaN","","","","","","","","","","","","","",""
"","response","","html-keyboard-response","550","1062269","0.0-1.0-743.0-0.0","0","0","64969","","773","","","68","82","","","2","82","training","adjacent","AB","1","2","Q.jpg","N.jpg","0","1","0","",""
"","feedback","","html-keyboard-response","551","1063274","0.0-1.0-744.0-0.0","0","0","64969","","null","","","null","82","","","","","","","","","","","","","","","",""
"","time_out","","html-keyboard-response","552","1065279","0.0-1.0-746.0-0.0","0","0","64969","","null","","","null","82","","","","","","","","","","","","","","","",""
"","ITI","","html-keyboard-response","553","1066283","0.0-1.0-747.0","0","0","64969","","null","","","null","82","","","","","","","","","","","","","","","NaN",""
"","S1","","html-keyboard-response","554","1066436","0.0-1.0-749.0","0","0","64969","","null","","","null","83","","","","","","","","","","","","","","","",""
"","ISI","","html-keyboard-response","555","1068440","0.0-1.0-750.0","0","0","64969","","null","","","null","83","NaN","","","","","","","","","","","","","","",""
"","S2","","html-keyboard-response","556","1068593","0.0-1.0-751.0","0","0","64969","","null","","","null","83","","NaN","","","","","","","","","","","","","",""
"","response","","html-keyboard-response","557","1068749","0.0-1.0-752.0-0.0","0","0","64969","","152","","","68","83","","","2","83","training","adjacent","EF","5","6","L.jpg","R.jpg","0","1","0","",""
"","feedback","","html-keyboard-response","558","1069753","0.0-1.0-753.0-0.0","0","0","64969","","null","","","null","83","","","","","","","","","","","","","","","",""
"","time_out","","html-keyboard-response","559","1071758","0.0-1.0-755.0-0.0","0","0","64969","","null","","","null","83","","","","","","","","","","","","","","","",""
"","ITI","","html-keyboard-response","560","1072762","0.0-1.0-756.0","0","0","64969","","null","","","null","83","","","","","","","","","","","","","","","NaN",""
"","S1","","html-keyboard-response","561","1072916","0.0-1.0-758.0","0","0","64969","","null","","","null","84","","","","","","","","","","","","","","","",""
"","ISI","","html-keyboard-response","562","1074922","0.0-1.0-759.0","0","0","64969","","null","","","null","84","NaN","","","","","","","","","","","","","","",""
"","S2","","html-keyboard-response","563","1075077","0.0-1.0-760.0","0","0","64969","","null","","","null","84","","NaN","","","","","","","","","","","","","",""
"","response","","html-keyboard-response","564","1075815","0.0-1.0-761.0-0.0","0","0","64969","","735","","","75","84","","","2","84","training","adjacent","BA","2","1","N.jpg","Q.jpg","1","0","0","",""
"","feedback","","html-keyboard-response","565","1076820","0.0-1.0-762.0-0.0","0","0","64969","","null","","","null","84","","","","","","","","","","","","","","","",""
"","time_out","","html-keyboard-response","566","1078824","0.0-1.0-764.0-0.0","0","0","64969","","null","","","null","84","","","","","","","","","","","","","","","",""
"","ITI","","html-keyboard-response","567","1079827","0.0-1.0-765.0","0","0","64969","","null","","","null","84","","","","","","","","","","","","","","","NaN",""
"","S1","","html-keyboard-response","568","1079979","0.0-1.0-767.0","0","0","64969","","null","","","null","85","","","","","","","","","","","","","","","",""
"","ISI","","html-keyboard-response","569","1081981","0.0-1.0-768.0","0","0","64969","","null","","","null","85","NaN","","","","","","","","","","","","","","",""
"","S2","","html-keyboard-response","570","1082135","0.0-1.0-769.0","0","0","64969","","null","","","null","85","","NaN","","","","","","","","","","","","","",""
"","response","","html-keyboard-response","571","1082774","0.0-1.0-770.0-0.0","0","0","64969","","636","","","75","85","","","2","85","training","adjacent","CD","3","4","M.jpg","P.jpg","1","1","1","",""
"","feedback","","html-keyboard-response","572","1083779","0.0-1.0-771.0-0.0","0","0","64969","","null","","","null","85","","","","","","","","","","","","","","","",""
"","ITI","","html-keyboard-response","573","1084784","0.0-1.0-774.0","0","0","64969","","null","","","null","85","","","","","","","","","","","","","","","NaN",""
"","S1","","html-keyboard-response","574","1084939","0.0-1.0-776.0","0","0","64969","","null","","","null","86","","","","","","","","","","","","","","","",""
"","ISI","","html-keyboard-response","575","1086942","0.0-1.0-777.0","0","0","64969","","null","","","null","86","NaN","","","","","","","","","","","","","","",""
"","S2","","html-keyboard-response","576","1087097","0.0-1.0-778.0","0","0","64969","","null","","","null","86","","NaN","","","","","","","","","","","","","",""
"","response","","html-keyboard-response","577","1087782","0.0-1.0-779.0-0.0","0","0","64969","","682","","","75","86","","","2","86","training","adjacent","CD","3","4","M.jpg","P.jpg","1","1","1","",""
"","feedback","","html-keyboard-response","578","1088787","0.0-1.0-780.0-0.0","0","0","64969","","null","","","null","86","","","","","","","","","","","","","","","",""
"","ITI","","html-keyboard-response","579","1089791","0.0-1.0-783.0","0","0","64969","","null","","","null","86","","","","","","","","","","","","","","","NaN",""
"","S1","","html-keyboard-response","580","1089945","0.0-1.0-785.0","0","0","64969","","null","","","null","87","","","","","","","","","","","","","","","",""
