"success","ttype","start_time","trial_type","trial_index","time_elapsed","internal_node_id","warning","missed_checkup","PID","view_history","rt","responses","repeat_instructions","key_press","index","keypress_isi","keypress_S2","block","trial_num","phase","group_type","pair_type","S1_stim","S2_stim","S1_img","S2_img","S1_chosen","S1_higher","accuracy","keypress_iti","total_bonus_tally"
"true","full_screen","d03032023hr1956","fullscreen","0","3511","0.0-0.0","0","0","47162","","","","","","","","","","","","","","","","","","","","","",""
"","instructions","","instructions","1","37263","0.0-1.0-0.0-0.0","0","0","47162","[{""page_index"":0,""viewing_time"":10858},{""page_index"":1,""viewing_time"":19859},{""page_index"":2,""viewing_time"":1681},{""page_index"":3,""viewing_time"":1339}]","33740","","","","","","","","","","","","","","","","","","","",""
"","comprehension_check","","survey-multi-choice","2","55336","0.0-1.0-0.0-1.0","0","0","47162","","18008","{""Q0"":""True"",""Q1"":""D"",""Q2"":""Once the second image appears and while the screen 'MAKE A CHOICE' is shown"",""Q3"":""Green mark"",""Q4"":""either D or K""}","0","","","","","","","","","","","","","","","","","",""
"","start_exp","","html-keyboard-response","3","58418","0.0-1.0-1.0","0","0","47162","","3069","","","32","","","","","","","","","","","","","","","","",""
"","S1","","html-keyboard-response","4","58678","0.0-1.0-2.0","0","0","47162","","null","","","null","0","","","","","","","","","","","","","","","",""
"","ISI","","html-keyboard-response","5","59183","0.0-1.0-3.0","0","0","47162","","null","","","null","0","NaN","","","","","","","","","","","","","","",""
"","S2","","html-keyboard-response","6","59440","0.0-1.0-4.0","0","0","47162","","null","","","null","0","","NaN","","","","","","","","","","","","","",""
"","response","","html-keyboard-response","7","60936","0.0-1.0-5.0-0.0","0","0","47162","","1488","","","68","0","","","1","0","training","adjacent","ED","5","4","P.jpg","R.jpg","1","0","0","",""
"","feedback","","html-keyboard-response","8","61945","0.0-1.0-6.0-0.0","0","0","47162","","null","","","null","0","","","","","","","","","","","","","","","",""
"","time_out","","html-keyboard-response","9","63952","0.0-1.0-8.0-0.0","0","0","47162","","null","","","null","0","","","","","","","","","","","","","","","",""
"","ITI","","html-keyboard-response","10","64958","0.0-1.0-9.0","0","0","47162","","164","","","75","0","","","","","","","","","","","","","","","k",""
"","S1","","html-keyboard-response","11","65219","0.0-1.0-11.0","0","0","47162","","null","","","null","1","","","","","","","","","","","","","","","",""
"","ISI","","html-keyboard-response","12","65727","0.0-1.0-12.0","0","0","47162","","20","","","75","1","k","","","","","","","","","","","","","","",""
"","S2","","html-keyboard-response","13","65984","0.0-1.0-13.0","0","0","47162","","null","","","null","1","","NaN","","","","","","","","","","","","","",""
"","response","","html-keyboard-response","14","66279","0.0-1.0-14.0-0.0","0","0","47162","","291","","","68","1","","","1","1","training","adjacent","FE","6","5","Q.jpg","P.jpg","1","0","0","",""
"","feedback","","html-keyboard-response","15","67285","0.0-1.0-15.0-0.0","0","0","47162","","null","","","null","1","","","","","","","","","","","","","","","",""
"","time_out","","html-keyboard-response","16","69294","0.0-1.0-17.0-0.0","0","0","47162","","null","","","null","1","","","","","","","","","","","","","","","",""
"","ITI","","html-keyboard-response","17","70309","0.0-1.0-18.0","0","0","47162","","43","","","75","1","","","","","","","","","","","","","","","k",""
"","S1","","html-keyboard-response","18","70608","0.0-1.0-20.0","0","0","47162","","null","","","null","2","","","","","","","","","","","","","","","",""
"","ISI","","html-keyboard-response","19","71114","0.0-1.0-21.0","0","0","47162","","25","","","75","2","k","","","","","","","","","","","","","","",""
"","S2","","html-keyboard-response","20","71200","0.0-1.0-22.0","0","0","47162","","81","","","75","2","","k","1","2","training","adjacent","BA","2","1","L.jpg","M.jpg","0","0","1","",""
"","feedback","","html-keyboard-response","21","72215","0.0-1.0-24.0-0.0","0","0","47162","","null","","","null","2","","","","","","","","","","","","","","","",""
"","ITI","","html-keyboard-response","22","73232","0.0-1.0-27.0","0","0","47162","","38","","","75","2","","","","","","","","","","","","","","","k",""
"","S1","","html-keyboard-response","23","73493","0.0-1.0-29.0","0","0","47162","","null","","","null","3","","","","","","","","","","","","","","","",""
"","ISI","","html-keyboard-response","24","73998","0.0-1.0-30.0","0","0","47162","","10","","","68","3","d","","","","","","","","","","","","","","",""
"","S2","","html-keyboard-response","25","74232","0.0-1.0-31.0","0","0","47162","","226","","","68","3","","d","1","3","training","adjacent","DC","4","3","R.jpg","N.jpg","1","0","0","",""
"","feedback","","html-keyboard-response","26","75238","0.0-1.0-33.0-0.0","0","0","47162","","null","","","null","3","","","","","","","","","","","","","","","",""
"","time_out","","html-keyboard-response","27","77248","0.0-1.0-35.0-0.0","0","0","47162","","null","","","null","3","","","","","","","","","","","","","","","",""
"","ITI","","html-keyboard-response","28","78259","0.0-1.0-36.0","0","0","47162","","71","","","75","3","","","","","","","","","","","","","","","k",""
"","S1","","html-keyboard-response","29","78527","0.0-1.0-38.0","0","0","47162","","null","","","null","4","","","","","","","","","","","","","","","",""
"","ISI","","html-keyboard-response","30","79036","0.0-1.0-39.0","0","0","47162","","114","","","68","4","d","","","","","","","","","","","","","","",""
"","S2","","html-keyboard-response","31","79046","0.0-1.0-40.0","0","0","47162","","2","","","68","4","","d","1","4","training","adjacent","BA","2","1","L.jpg","M.jpg","1","0","0","",""
"","feedback","","html-keyboard-response","32","80057","0.0-1.0-42.0-0.0","0","0","47162","","null","","","null","4","","","","","","","","","","","","","","","",""
"","time_out","","html-keyboard-response","33","82063","0.0-1.0-44.0-0.0","0","0","47162","","null","","","null","4","","","","","","","","","","","","","","","",""
"","ITI","","html-keyboard-response","34","83067","0.0-1.0-45.0","0","0","47162","","49","","","68","4","","","","","","","","","","","","","","","d",""
"","S1","","html-keyboard-response","35","83321","0.0-1.0-47.0","0","0","47162","","null","","","null","5","","","","","","","","","","","","","","","",""
"","ISI","","html-keyboard-response","36","83824","0.0-1.0-48.0","0","0","47162","","101","","","68","5","d","","","","","","","","","","","","","","",""
"","S2","","html-keyboard-response","37","83858","0.0-1.0-49.0","0","0","47162","","29","","","75","5","","k","1","5","training","adjacent","BC","2","3","L.jpg","N.jpg","0","1","0","",""
"","feedback","","html-keyboard-response","38","84863","0.0-1.0-51.0-0.0","0","0","47162","","null","","","null","5","","","","","","","","","","","","","","","",""
"","time_out","","html-keyboard-response","39","86872","0.0-1.0-53.0-0.0","0","0","47162","","null","","","null","5","","","","","","","","","","","","","","","",""
"","ITI","","html-keyboard-response","40","87879","0.0-1.0-54.0","0","0","47162","","null","","","null","5","","","","","","","","","","","","","","","NaN",""
"","S1","","html-keyboard-response","41","88135","0.0-1.0-56.0","0","0","47162","","null","","","null","6","","","","","","","","","","","","","","","",""
"","ISI","","html-keyboard-response","42","88723","0.0-1.0-57.0","0","0","47162","","null","","","null","6","NaN","","","","","","","","","","","","","","",""
"","S2","","html-keyboard-response","43","88980","0.0-1.0-58.0","0","0","47162","","null","","","null","6","","NaN","","","","","","","","","","","","","",""
"","response","","html-keyboard-response","44","89157","0.0-1.0-59.0-0.0","0","0","47162","","170","","","75","6","","","1","6","training","adjacent","EF","5","6","P.jpg","Q.jpg","0","1","0","",""
"","feedback","","html-keyboard-response","45","90172","0.0-1.0-60.0-0.0","0","0","47162","","null","","","null","6","","","","","","","","","","","","","","","",""
"","time_out","","html-keyboard-response","46","92238","0.0-1.0-62.0-0.0","0","0","47162","","null","","","null","6","","","","","","","","","","","","","","","",""
"","ITI","","html-keyboard-response","47","93246","0.0-1.0-63.0","0","0","47162","","94","","","68","6","","","","","","","","","","","","","","","d",""
"","S1","","html-keyboard-response","48","93505","0.0-1.0-65.0","0","0","47162","","null","","","null","7","","","","","","","","","","","","","","","",""
"","ISI","","html-keyboard-response","49","94008","0.0-1.0-66.0","0","0","47162","","76","","","75","7","k","","","","","","","","","","","","","","",""
"","S2","","html-keyboard-response","50","94076","0.0-1.0-67.0","0","0","47162","","57","","","68","7","","d","1","7","training","adjacent","GF","7","6","O.jpg","Q.jpg","1","0","0","",""
"","feedback","","html-keyboard-response","51","95087","0.0-1.0-69.0-0.0","0","0","47162","","null","","","null","7","","","","","","","","","","","","","","","",""
"","time_out","","html-keyboard-response","52","97092","0.0-1.0-71.0-0.0","0","0","47162","","null","","","null","7","","","","","","","","","","","","","","","",""
"","ITI","","html-keyboard-response","53","98098","0.0-1.0-72.0","0","0","47162","","55","","","75","7","","","","","","","","","","","","","","","k",""
"","S1","","html-keyboard-response","54","98405","0.0-1.0-74.0","0","0","47162","","null","","","null","8","","","","","","","","","","","","","","","",""
"","ISI","","html-keyboard-response","55","98912","0.0-1.0-75.0","0","0","47162","","88","","","68","8","d","","","","","","","","","","","","","","",""
"","S2","","html-keyboard-response","56","98960","0.0-1.0-76.0","0","0","47162","","40","","","68","8","","d","1","8","training","adjacent","DE","4","5","R.jpg","P.jpg","1","1","1","",""
"","feedback","","html-keyboard-response","57","99965","0.0-1.0-78.0-0.0","0","0","47162","","null","","","null","8","","","","","","","","","","","","","","","",""
"","ITI","","html-keyboard-response","58","100974","0.0-1.0-81.0","0","0","47162","","58","","","68","8","","","","","","","","","","","","","","","d",""
"","S1","","html-keyboard-response","59","101234","0.0-1.0-83.0","0","0","47162","","null","","","null","9","","","","","","","","","","","","","","","",""
"","ISI","","html-keyboard-response","60","101758","0.0-1.0-84.0","0","0","47162","","104","","","75","9","k","","","","","","","","","","","","","","",""
"","S2","","html-keyboard-response","61","101808","0.0-1.0-85.0","0","0","47162","","44","","","75","9","","k","1","9","training","adjacent","DC","4","3","R.jpg","N.jpg","0","0","1","",""
"","feedback","","html-keyboard-response","62","102813","0.0-1.0-87.0-0.0","0","0","47162","","null","","","null","9","","","","","","","","","","","","","","","",""
"","ITI","","html-keyboard-response","63","103820","0.0-1.0-90.0","0","0","47162","","111","","","75","9","","","","","","","","","","","","","","","k",""
"","S1","","html-keyboard-response","64","104079","0.0-1.0-92.0","0","0","47162","","null","","","null","10","","","","","","","","","","","","","","","",""
"","ISI","","html-keyboard-response","65","104584","0.0-1.0-93.0","0","0","47162","","84","","","68","10","d","","","","","","","","","","","","","","",""
"","S2","","html-keyboard-response","66","104673","0.0-1.0-94.0","0","0","47162","","81","","","68","10","","d","1","10","training","adjacent","CD","3","4","N.jpg","R.jpg","1","1","1","",""
"","feedback","","html-keyboard-response","67","105681","0.0-1.0-96.0-0.0","0","0","47162","","null","","","null","10","","","","","","","","","","","","","","","",""
"","ITI","","html-keyboard-response","68","106689","0.0-1.0-99.0","0","0","47162","","144","","","75","10","","","","","","","","","","","","","","","k",""
"","S1","","html-keyboard-response","69","106951","0.0-1.0-101.0","0","0","47162","","null","","","null","11","","","","","","","","","","","","","","","",""
"","ISI","","html-keyboard-response","70","107455","0.0-1.0-102.0","0","0","47162","","85","","","75","11","k","","","","","","","","","","","","","","",""
"","S2","","html-keyboard-response","71","107462","0.0-1.0-103.0","0","0","47162","","1","","","75","11","","k","1","11","training","adjacent","FG","6","7","Q.jpg","O.jpg","0","1","0","",""
"","feedback","","html-keyboard-response","72","108468","0.0-1.0-105.0-0.0","0","0","47162","","null","","","null","11","","","","","","","","","","","","","","","",""
"","time_out","","html-keyboard-response","73","110485","0.0-1.0-107.0-0.0","0","0","47162","","null","","","null","11","","","","","","","","","","","","","","","",""
"","ITI","","html-keyboard-response","74","111493","0.0-1.0-108.0","0","0","47162","","63","","","75","11","","","","","","","","","","","","","","","k",""
"","S1","","html-keyboard-response","75","111750","0.0-1.0-110.0","0","0","47162","","null","","","null","12","","","","","","","","","","","","","","","",""
"","ISI","","html-keyboard-response","76","112258","0.0-1.0-111.0","0","0","47162","","2","","","75","12","k","","","","","","","","","","","","","","",""
"","S2","","html-keyboard-response","77","112295","0.0-1.0-112.0","0","0","47162","","30","","","75","12","","k","1","12","training","adjacent","FG","6","7","Q.jpg","O.jpg","0","1","0","",""
"","feedback","","html-keyboard-response","78","113307","0.0-1.0-114.0-0.0","0","0","47162","","null","","","null","12","","","","","","","","","","","","","","","",""
"","time_out","","html-keyboard-response","79","115321","0.0-1.0-116.0-0.0","0","0","47162","","null","","","null","12","","","","","","","","","","","","","","","",""
"","ITI","","html-keyboard-response","80","116365","0.0-1.0-117.0","0","0","47162","","9","","","68","12","","","","","","","","","","","","","","","d",""
"","S1","","html-keyboard-response","81","116640","0.0-1.0-119.0","0","0","47162","","null","","","null","13","","","","","","","","","","","","","","","",""
"","ISI","","html-keyboard-response","82","117159","0.0-1.0-120.0","0","0","47162","","23","","","75","13","k","","","","","","","","","","","","","","",""
"","S2","","html-keyboard-response","83","117237","0.0-1.0-121.0","0","0","47162","","68","","","75","13","","k","1","13","training","adjacent","CB","3","2","N.jpg","L.jpg","0","0","1","",""
"","feedback","","html-keyboard-response","84","118247","0.0-1.0-123.0-0.0","0","0","47162","","null","","","null","13","","","","","","","","","","","","","","","",""
"","ITI","","html-keyboard-response","85","119251","0.0-1.0-126.0","0","0","47162","","171","","","68","13","","","","","","","","","","","","","","","d",""
"","S1","","html-keyboard-response","86","119509","0.0-1.0-128.0","0","0","47162","","null","","","null","14","","","","","","","","","","","","","","","",""
"","ISI","","html-keyboard-response","87","120018","0.0-1.0-129.0","0","0","47162","","116","","","75","14","k","","","","","","","","","","","","","","",""
"","S2","","html-keyboard-response","88","120029","0.0-1.0-130.0","0","0","47162","","1","","","75","14","","k","1","14","training","adjacent","DE","4","5","R.jpg","P.jpg","0","1","0","",""
"","feedback","","html-keyboard-response","89","121038","0.0-1.0-132.0-0.0","0","0","47162","","null","","","null","14","","","","","","","","","","","","","","","",""
"","time_out","","html-keyboard-response","90","123046","0.0-1.0-134.0-0.0","0","0","47162","","null","","","null","14","","","","","","","","","","","","","","","",""
"","ITI","","html-keyboard-response","91","124053","0.0-1.0-135.0","0","0","47162","","38","","","68","14","","","","","","","","","","","","","","","d",""
"","S1","","html-keyboard-response","92","124316","0.0-1.0-137.0","0","0","47162","","null","","","null","15","","","","","","","","","","","","","","","",""
"","ISI","","html-keyboard-response","93","124823","0.0-1.0-138.0","0","0","47162","","11","","","75","15","k","","","","","","","","","","","","","","",""
"","S2","","html-keyboard-response","94","124948","0.0-1.0-139.0","0","0","47162","","114","","","75","15","","k","1","15","training","adjacent","CD","3","4","N.jpg","R.jpg","0","1","0","",""
"","feedback","","html-keyboard-response","95","125956","0.0-1.0-141.0-0.0","0","0","47162","","null","","","null","15","","","","","","","","","","","","","","","",""
"","time_out","","html-keyboard-response","96","127963","0.0-1.0-143.0-0.0","0","0","47162","","null","","","null","15","","","","","","","","","","","","","","","",""
"","ITI","","html-keyboard-response","97","128972","0.0-1.0-144.0","0","0","47162","","8","","","75","15","","","","","","","","","","","","","","","k",""
"","S1","","html-keyboard-response","98","129231","0.0-1.0-146.0","0","0","47162","","null","","","null","16","","","","","","","","","","","","","","","",""
"","ISI","","html-keyboard-response","99","129735","0.0-1.0-147.0","0","0","47162","","80","","","68","16","d","","","","","","","","","","","","","","",""
"","S2","","html-keyboard-response","100","129850","0.0-1.0-148.0","0","0","47162","","109","","","75","16","","k","1","16","training","adjacent","ED","5","4","P.jpg","R.jpg","0","0","1","",""
"","feedback","","html-keyboard-response","101","130855","0.0-1.0-150.0-0.0","0","0","47162","","null","","","null","16","","","","","","","","","","","","","","","",""
"","ITI","","html-keyboard-response","102","131861","0.0-1.0-153.0","0","0","47162","","22","","","75","16","","","","","","","","","","","","","","","k",""
"","S1","","html-keyboard-response","103","132117","0.0-1.0-155.0","0","0","47162","","null","","","null","17","","","","","","","","","","","","","","","",""
"","ISI","","html-keyboard-response","104","132624","0.0-1.0-156.0","0","0","47162","","6","","","75","17","k","","","","","","","","","","","","","","",""
"","S2","","html-keyboard-response","105","132798","0.0-1.0-157.0","0","0","47162","","164","","","75","17","","k","1","17","training","adjacent","AB","1","2","M.jpg","L.jpg","0","1","0","",""
"","feedback","","html-keyboard-response","106","133806","0.0-1.0-159.0-0.0","0","0","47162","","null","","","null","17","","","","","","","","","","","","","","","",""
"","time_out","","html-keyboard-response","107","135816","0.0-1.0-161.0-0.0","0","0","47162","","null","","","null","17","","","","","","","","","","","","","","","",""
"","ITI","","html-keyboard-response","108","136828","0.0-1.0-162.0","0","0","47162","","107","","","75","17","","","","","","","","","","","","","","","k",""
"","S1","","html-keyboard-response","109","137095","0.0-1.0-164.0","0","0","47162","","null","","","null","18","","","","","","","","","","","","","","","",""
"","ISI","","html-keyboard-response","110","137617","0.0-1.0-165.0","0","0","47162","","58","","","75","18","k","","","","","","","","","","","","","","",""
"","S2","","html-keyboard-response","111","137651","0.0-1.0-166.0","0","0","47162","","13","","","68","18","","d","1","18","training","adjacent","AB","1","2","M.jpg","L.jpg","1","1","1","",""
"","feedback","","html-keyboard-response","112","138663","0.0-1.0-168.0-0.0","0","0","47162","","null","","","null","18","","","","","","","","","","","","","","","",""
"","ITI","","html-keyboard-response","113","139669","0.0-1.0-171.0","0","0","47162","","114","","","75","18","","","","","","","","","","","","","","","k",""
"","S1","","html-keyboard-response","114","139929","0.0-1.0-173.0","0","0","47162","","null","","","null","19","","","","","","","","","","","","","","","",""
"","ISI","","html-keyboard-response","115","140436","0.0-1.0-174.0","0","0","47162","","80","","","75","19","k","","","","","","","","","","","","","","",""
"","S2","","html-keyboard-response","116","140456","0.0-1.0-175.0","0","0","47162","","14","","","75","19","","k","1","19","training","adjacent","GF","7","6","O.jpg","Q.jpg","0","0","1","",""
"","feedback","","html-keyboard-response","117","141461","0.0-1.0-177.0-0.0","0","0","47162","","null","","","null","19","","","","","","","","","","","","","","","",""
"","ITI","","html-keyboard-response","118","142470","0.0-1.0-180.0","0","0","47162","","47","","","68","19","","","","","","","","","","","","","","","d",""
"","S1","","html-keyboard-response","119","142732","0.0-1.0-182.0","0","0","47162","","null","","","null","20","","","","","","","","","","","","","","","",""
"","ISI","","html-keyboard-response","120","143236","0.0-1.0-183.0","0","0","47162","","36","","","75","20","k","","","","","","","","","","","","","","",""
"","S2","","html-keyboard-response","121","143290","0.0-1.0-184.0","0","0","47162","","48","","","75","20","","k","1","20","training","adjacent","CB","3","2","N.jpg","L.jpg","0","0","1","",""
"","feedback","","html-keyboard-response","122","144365","0.0-1.0-186.0-0.0","0","0","47162","","null","","","null","20","","","","","","","","","","","","","","","",""
"","ITI","","html-keyboard-response","123","145372","0.0-1.0-189.0","0","0","47162","","111","","","75","20","","","","","","","","","","","","","","","k",""
"","S1","","html-keyboard-response","124","145628","0.0-1.0-191.0","0","0","47162","","null","","","null","21","","","","","","","","","","","","","","","",""
"","ISI","","html-keyboard-response","125","146133","0.0-1.0-192.0","0","0","47162","","29","","","75","21","k","","","","","","","","","","","","","","",""
"","S2","","html-keyboard-response","126","146191","0.0-1.0-193.0","0","0","47162","","52","","","75","21","","k","1","21","training","adjacent","DE","4","5","R.jpg","P.jpg","0","1","0","",""
"","feedback","","html-keyboard-response","127","147197","0.0-1.0-195.0-0.0","0","0","47162","","null","","","null","21","","","","","","","","","","","","","","","",""
"","time_out","","html-keyboard-response","128","149203","0.0-1.0-197.0-0.0","0","0","47162","","null","","","null","21","","","","","","","","","","","","","","","",""
"","ITI","","html-keyboard-response","129","150336","0.0-1.0-198.0","0","0","47162","","97","","","75","21","","","","","","","","","","","","","","","k",""
"","S1","","html-keyboard-response","130","150593","0.0-1.0-200.0","0","0","47162","","null","","","null","22","","","","","","","","","","","","","","","",""
"","ISI","","html-keyboard-response","131","151109","0.0-1.0-201.0","0","0","47162","","129","","","75","22","k","","","","","","","","","","","","","","",""
"","S2","","html-keyboard-response","132","151147","0.0-1.0-202.0","0","0","47162","","30","","","68","22","","d","1","22","training","adjacent","ED","5","4","P.jpg","R.jpg","1","0","0","",""
"","feedback","","html-keyboard-response","133","152156","0.0-1.0-204.0-0.0","0","0","47162","","null","","","null","22","","","","","","","","","","","","","","","",""
"","time_out","","html-keyboard-response","134","154165","0.0-1.0-206.0-0.0","0","0","47162","","null","","","null","22","","","","","","","","","","","","","","","",""
"","ITI","","html-keyboard-response","135","155172","0.0-1.0-207.0","0","0","47162","","113","","","68","22","","","","","","","","","","","","","","","d",""
"","S1","","html-keyboard-response","136","155426","0.0-1.0-209.0","0","0","47162","","null","","","null","23","","","","","","","","","","","","","","","",""
"","ISI","","html-keyboard-response","137","155932","0.0-1.0-210.0","0","0","47162","","68","","","75","23","k","","","","","","","","","","","","","","",""
"","S2","","html-keyboard-response","138","156019","0.0-1.0-211.0","0","0","47162","","74","","","75","23","","k","1","23","training","adjacent","DC","4","3","R.jpg","N.jpg","0","0","1","",""
"","feedback","","html-keyboard-response","139","157029","0.0-1.0-213.0-0.0","0","0","47162","","null","","","null","23","","","","","","","","","","","","","","","",""
"","ITI","","html-keyboard-response","140","158035","0.0-1.0-216.0","0","0","47162","","45","","","75","23","","","","","","","","","","","","","","","k",""
"","S1","","html-keyboard-response","141","158291","0.0-1.0-218.0","0","0","47162","","null","","","null","24","","","","","","","","","","","","","","","",""
"","ISI","","html-keyboard-response","142","158796","0.0-1.0-219.0","0","0","47162","","180","","","68","24","d","","","","","","","","","","","","","","",""
"","S2","","html-keyboard-response","143","158826","0.0-1.0-220.0","0","0","47162","","24","","","75","24","","k","1","24","training","adjacent","FE","6","5","Q.jpg","P.jpg","0","0","1","",""
"","feedback","","html-keyboard-response","144","159838","0.0-1.0-222.0-0.0","0","0","47162","","null","","","null","24","","","","","","","","","","","","","","","",""
"","ITI","","html-keyboard-response","145","160846","0.0-1.0-225.0","0","0","47162","","54","","","75","24","","","","","","","","","","","","","","","k",""
"","S1","","html-keyboard-response","146","161104","0.0-1.0-227.0","0","0","47162","","null","","","null","25","","","","","","","","","","","","","","","",""
"","ISI","","html-keyboard-response","147","161609","0.0-1.0-228.0","0","0","47162","","6","","","75","25","k","","","","","","","","","","","","","","",""
"","S2","","html-keyboard-response","148","161636","0.0-1.0-229.0","0","0","47162","","19","","","75","25","","k","1","25","training","adjacent","FE","6","5","Q.jpg","P.jpg","0","0","1","",""
"","feedback","","html-keyboard-response","149","162656","0.0-1.0-231.0-0.0","0","0","47162","","null","","","null","25","","","","","","","","","","","","","","","",""
"","ITI","","html-keyboard-response","150","163669","0.0-1.0-234.0","0","0","47162","","46","","","68","25","","","","","","","","","","","","","","","d",""
"","S1","","html-keyboard-response","151","163925","0.0-1.0-236.0","0","0","47162","","null","","","null","26","","","","","","","","","","","","","","","",""
"","ISI","","html-keyboard-response","152","164431","0.0-1.0-237.0","0","0","47162","","33","","","75","26","k","","","","","","","","","","","","","","",""
"","S2","","html-keyboard-response","153","164490","0.0-1.0-238.0","0","0","47162","","55","","","75","26","","k","1","26","training","adjacent","EF","5","6","P.jpg","Q.jpg","0","1","0","",""
"","feedback","","html-keyboard-response","154","165495","0.0-1.0-240.0-0.0","0","0","47162","","null","","","null","26","","","","","","","","","","","","","","","",""
"","time_out","","html-keyboard-response","155","167506","0.0-1.0-242.0-0.0","0","0","47162","","null","","","null","26","","","","","","","","","","","","","","","",""
"","ITI","","html-keyboard-response","156","168518","0.0-1.0-243.0","0","0","47162","","228","","","68","26","","","","","","","","","","","","","","","d",""
"","S1","","html-keyboard-response","157","168776","0.0-1.0-245.0","0","0","47162","","null","","","null","27","","","","","","","","","","","","","","","",""
"","ISI","","html-keyboard-response","158","169287","0.0-1.0-246.0","0","0","47162","","27","","","68","27","d","","","","","","","","","","","","","","",""
"","S2","","html-keyboard-response","159","169398","0.0-1.0-247.0","0","0","47162","","100","","","75","27","","k","1","27","training","adjacent","EF","5","6","P.jpg","Q.jpg","0","1","0","",""
"","feedback","","html-keyboard-response","160","170407","0.0-1.0-249.0-0.0","0","0","47162","","null","","","null","27","","","","","","","","","","","","","","","",""
"","time_out","","html-keyboard-response","161","172416","0.0-1.0-251.0-0.0","0","0","47162","","null","","","null","27","","","","","","","","","","","","","","","",""
"","ITI","","html-keyboard-response","162","173424","0.0-1.0-252.0","0","0","47162","","77","","","68","27","","","","","","","","","","","","","","","d",""
"","S1","","html-keyboard-response","163","173681","0.0-1.0-254.0","0","0","47162","","null","","","null","28","","","","","","","","","","","","","","","",""
"","ISI","","html-keyboard-response","164","174217","0.0-1.0-255.0","0","0","47162","","57","","","68","28","d","","","","","","","","","","","","","","",""
"","S2","","html-keyboard-response","165","174341","0.0-1.0-256.0","0","0","47162","","119","","","75","28","","k","1","28","training","adjacent","EF","5","6","P.jpg","Q.jpg","0","1","0","",""
"","feedback","","html-keyboard-response","166","175346","0.0-1.0-258.0-0.0","0","0","47162","","null","","","null","28","","","","","","","","","","","","","","","",""
"","time_out","","html-keyboard-response","167","177353","0.0-1.0-260.0-0.0","0","0","47162","","null","","","null","28","","","","","","","","","","","","","","","",""
"","ITI","","html-keyboard-response","168","178360","0.0-1.0-261.0","0","0","47162","","90","","","68","28","","","","","","","","","","","","","","","d",""
"","S1","","html-keyboard-response","169","178615","0.0-1.0-263.0","0","0","47162","","null","","","null","29","","","","","","","","","","","","","","","",""
"","ISI","","html-keyboard-response","170","179119","0.0-1.0-264.0","0","0","47162","","11","","","75","29","k","","","","","","","","","","","","","","",""
"","S2","","html-keyboard-response","171","179234","0.0-1.0-265.0","0","0","47162","","108","","","75","29","","k","1","29","training","adjacent","BA","2","1","L.jpg","M.jpg","0","0","1","",""
"","feedback","","html-keyboard-response","172","180239","0.0-1.0-267.0-0.0","0","0","47162","","null","","","null","29","","","","","","","","","","","","","","","",""
"","ITI","","html-keyboard-response","173","181269","0.0-1.0-270.0","0","0","47162","","40","","","68","29","","","","","","","","","","","","","","","d",""
"","S1","","html-keyboard-response","174","181526","0.0-1.0-272.0","0","0","47162","","null","","","null","30","","","","","","","","","","","","","","","",""
"","ISI","","html-keyboard-response","175","182033","0.0-1.0-273.0","0","0","47162","","84","","","68","30","d","","","","","","","","","","","","","","",""
"","S2","","html-keyboard-response","176","182040","0.0-1.0-274.0","0","0","47162","","0","","","75","30","","k","1","30","training","adjacent","CD","3","4","N.jpg","R.jpg","0","1","0","",""
"","feedback","","html-keyboard-response","177","183049","0.0-1.0-276.0-0.0","0","0","47162","","null","","","null","30","","","","","","","","","","","","","","","",""
"","time_out","","html-keyboard-response","178","185056","0.0-1.0-278.0-0.0","0","0","47162","","null","","","null","30","","","","","","","","","","","","","","","",""
"","ITI","","html-keyboard-response","179","186060","0.0-1.0-279.0","0","0","47162","","142","","","75","30","","","","","","","","","","","","","","","k",""
"","S1","","html-keyboard-response","180","186315","0.0-1.0-281.0","0","0","47162","","null","","","null","31","","","","","","","","","","","","","","","",""
"","ISI","","html-keyboard-response","181","186820","0.0-1.0-282.0","0","0","47162","","96","","","68","31","d","","","","","","","","","","","","","","",""
"","S2","","html-keyboard-response","182","186850","0.0-1.0-283.0","0","0","47162","","25","","","68","31","","d","1","31","training","adjacent","GF","7","6","O.jpg","Q.jpg","1","0","0","",""
"","feedback","","html-keyboard-response","183","187861","0.0-1.0-285.0-0.0","0","0","47162","","null","","","null","31","","","","","","","","","","","","","","","",""
"","time_out","","html-keyboard-response","184","189872","0.0-1.0-287.0-0.0","0","0","47162","","null","","","null","31","","","","","","","","","","","","","","","",""
"","ITI","","html-keyboard-response","185","190877","0.0-1.0-288.0","0","0","47162","","72","","","75","31","","","","","","","","","","","","","","","k",""
"","S1","","html-keyboard-response","186","191132","0.0-1.0-290.0","0","0","47162","","null","","","null","32","","","","","","","","","","","","","","","",""
"","ISI","","html-keyboard-response","187","191659","0.0-1.0-291.0","0","0","47162","","26","","","75","32","k","","","","","","","","","","","","","","",""
"","S2","","html-keyboard-response","188","191799","0.0-1.0-292.0","0","0","47162","","134","","","75","32","","k","1","32","training","adjacent","AB","1","2","M.jpg","L.jpg","0","1","0","",""
"","feedback","","html-keyboard-response","189","192808","0.0-1.0-294.0-0.0","0","0","47162","","null","","","null","32","","","","","","","","","","","","","","","",""
"","time_out","","html-keyboard-response","190","194815","0.0-1.0-296.0-0.0","0","0","47162","","null","","","null","32","","","","","","","","","","","","","","","",""
"","ITI","","html-keyboard-response","191","195820","0.0-1.0-297.0","0","0","47162","","50","","","75","32","","","","","","","","","","","","","","","k",""
"","S1","","html-keyboard-response","192","196078","0.0-1.0-299.0","0","0","47162","","null","","","null","33","","","","","","","","","","","","","","","",""
"","ISI","","html-keyboard-response","193","196583","0.0-1.0-300.0","0","0","47162","","169","","","75","33","k","","","","","","","","","","","","","","",""
"","S2","","html-keyboard-response","194","196645","0.0-1.0-301.0","0","0","47162","","55","","","75","33","","k","1","33","training","adjacent","CB","3","2","N.jpg","L.jpg","0","0","1","",""
"","feedback","","html-keyboard-response","195","197652","0.0-1.0-303.0-0.0","0","0","47162","","null","","","null","33","","","","","","","","","","","","","","","",""
"","ITI","","html-keyboard-response","196","198657","0.0-1.0-306.0","0","0","47162","","178","","","75","33","","","","","","","","","","","","","","","k",""
"","S1","","html-keyboard-response","197","198932","0.0-1.0-308.0","0","0","47162","","null","","","null","34","","","","","","","","","","","","","","","",""
"","ISI","","html-keyboard-response","198","199440","0.0-1.0-309.0","0","0","47162","","52","","","75","34","k","","","","","","","","","","","","","","",""
"","S2","","html-keyboard-response","199","199506","0.0-1.0-310.0","0","0","47162","","60","","","75","34","","k","1","34","training","adjacent","FG","6","7","Q.jpg","O.jpg","0","1","0","",""
"","feedback","","html-keyboard-response","200","200515","0.0-1.0-312.0-0.0","0","0","47162","","null","","","null","34","","","","","","","","","","","","","","","",""
"","time_out","","html-keyboard-response","201","202550","0.0-1.0-314.0-0.0","0","0","47162","","null","","","null","34","","","","","","","","","","","","","","","",""
"","ITI","","html-keyboard-response","202","203557","0.0-1.0-315.0","0","0","47162","","11","","","68","34","","","","","","","","","","","","","","","d",""
"","S1","","html-keyboard-response","203","203814","0.0-1.0-317.0","0","0","47162","","null","","","null","35","","","","","","","","","","","","","","","",""
"","ISI","","html-keyboard-response","204","204332","0.0-1.0-318.0","0","0","47162","","134","","","68","35","d","","","","","","","","","","","","","","",""
"","S2","","html-keyboard-response","205","204405","0.0-1.0-319.0","0","0","47162","","62","","","75","35","","k","1","35","training","adjacent","AB","1","2","M.jpg","L.jpg","0","1","0","",""
"","feedback","","html-keyboard-response","206","205414","0.0-1.0-321.0-0.0","0","0","47162","","null","","","null","35","","","","","","","","","","","","","","","",""
"","time_out","","html-keyboard-response","207","207421","0.0-1.0-323.0-0.0","0","0","47162","","null","","","null","35","","","","","","","","","","","","","","","",""
"","ITI","","html-keyboard-response","208","208429","0.0-1.0-324.0","0","0","47162","","72","","","68","35","","","","","","","","","","","","","","","d",""
"","S1","","html-keyboard-response","209","208684","0.0-1.0-326.0","0","0","47162","","null","","","null","36","","","","","","","","","","","","","","","",""
"","ISI","","html-keyboard-response","210","209189","0.0-1.0-327.0","0","0","47162","","75","","","68","36","d","","","","","","","","","","","","","","",""
"","S2","","html-keyboard-response","211","209218","0.0-1.0-328.0","0","0","47162","","24","","","68","36","","d","1","36","training","adjacent","FG","6","7","Q.jpg","O.jpg","1","1","1","",""
"","feedback","","html-keyboard-response","212","210232","0.0-1.0-330.0-0.0","0","0","47162","","null","","","null","36","","","","","","","","","","","","","","","",""
"","ITI","","html-keyboard-response","213","211238","0.0-1.0-333.0","0","0","47162","","132","","","75","36","","","","","","","","","","","","","","","k",""
"","S1","","html-keyboard-response","214","211490","0.0-1.0-335.0","0","0","47162","","null","","","null","37","","","","","","","","","","","","","","","",""
"","ISI","","html-keyboard-response","215","211998","0.0-1.0-336.0","0","0","47162","","102","","","75","37","k","","","","","","","","","","","","","","",""
"","S2","","html-keyboard-response","216","212088","0.0-1.0-337.0","0","0","47162","","85","","","68","37","","d","1","37","training","adjacent","DE","4","5","R.jpg","P.jpg","1","1","1","",""
"","feedback","","html-keyboard-response","217","213096","0.0-1.0-339.0-0.0","0","0","47162","","null","","","null","37","","","","","","","","","","","","","","","",""
"","ITI","","html-keyboard-response","218","214103","0.0-1.0-342.0","0","0","47162","","42","","","75","37","","","","","","","","","","","","","","","k",""
"","S1","","html-keyboard-response","219","214358","0.0-1.0-344.0","0","0","47162","","null","","","null","38","","","","","","","","","","","","","","","",""
"","ISI","","html-keyboard-response","220","214896","0.0-1.0-345.0","0","0","47162","","87","","","68","38","d","","","","","","","","","","","","","","",""
"","S2","","html-keyboard-response","221","214914","0.0-1.0-346.0","0","0","47162","","3","","","68","38","","d","1","38","training","adjacent","BA","2","1","L.jpg","M.jpg","1","0","0","",""
"","feedback","","html-keyboard-response","222","215923","0.0-1.0-348.0-0.0","0","0","47162","","null","","","null","38","","","","","","","","","","","","","","","",""
"","time_out","","html-keyboard-response","223","217930","0.0-1.0-350.0-0.0","0","0","47162","","null","","","null","38","","","","","","","","","","","","","","","",""
"","ITI","","html-keyboard-response","224","218955","0.0-1.0-351.0","0","0","47162","","104","","","68","38","","","","","","","","","","","","","","","d",""
"","S1","","html-keyboard-response","225","219209","0.0-1.0-353.0","0","0","47162","","null","","","null","39","","","","","","","","","","","","","","","",""
"","ISI","","html-keyboard-response","226","219768","0.0-1.0-354.0","0","0","47162","","86","","","68","39","d","","","","","","","","","","","","","","",""
"","S2","","html-keyboard-response","227","219883","0.0-1.0-355.0","0","0","47162","","105","","","75","39","","k","1","39","training","adjacent","GF","7","6","O.jpg","Q.jpg","0","0","1","",""
"","feedback","","html-keyboard-response","228","220900","0.0-1.0-357.0-0.0","0","0","47162","","null","","","null","39","","","","","","","","","","","","","","","",""
"","ITI","","html-keyboard-response","229","221908","0.0-1.0-360.0","0","0","47162","","90","","","75","39","","","","","","","","","","","","","","","k",""
"","S1","","html-keyboard-response","230","222235","0.0-1.0-362.0","0","0","47162","","null","","","null","40","","","","","","","","","","","","","","","",""
"","ISI","","html-keyboard-response","231","222740","0.0-1.0-363.0","0","0","47162","","33","","","68","40","d","","","","","","","","","","","","","","",""
"","S2","","html-keyboard-response","232","222761","0.0-1.0-364.0","0","0","47162","","17","","","75","40","","k","1","40","training","adjacent","BC","2","3","L.jpg","N.jpg","0","1","0","",""
"","feedback","","html-keyboard-response","233","223767","0.0-1.0-366.0-0.0","0","0","47162","","null","","","null","40","","","","","","","","","","","","","","","",""
"","time_out","","html-keyboard-response","234","225780","0.0-1.0-368.0-0.0","0","0","47162","","null","","","null","40","","","","","","","","","","","","","","","",""
"","ITI","","html-keyboard-response","235","226790","0.0-1.0-369.0","0","0","47162","","9","","","75","40","","","","","","","","","","","","","","","k",""
"","S1","","html-keyboard-response","236","227047","0.0-1.0-371.0","0","0","47162","","null","","","null","41","","","","","","","","","","","","","","","",""
"","ISI","","html-keyboard-response","237","227552","0.0-1.0-372.0","0","0","47162","","62","","","68","41","d","","","","","","","","","","","","","","",""
"","S2","","html-keyboard-response","238","227599","0.0-1.0-373.0","0","0","47162","","31","","","75","41","","k","1","41","training","adjacent","BC","2","3","L.jpg","N.jpg","0","1","0","",""
"","feedback","","html-keyboard-response","239","228606","0.0-1.0-375.0-0.0","0","0","47162","","null","","","null","41","","","","","","","","","","","","","","","",""
"","time_out","","html-keyboard-response","240","230612","0.0-1.0-377.0-0.0","0","0","47162","","null","","","null","41","","","","","","","","","","","","","","","",""
"","ITI","","html-keyboard-response","241","231619","0.0-1.0-378.0","0","0","47162","","39","","","68","41","","","","","","","","","","","","","","","d",""
"","S1","","html-keyboard-response","242","231881","0.0-1.0-380.0","0","0","47162","","null","","","null","42","","","","","","","","","","","","","","","",""
"","ISI","","html-keyboard-response","243","232391","0.0-1.0-381.0","0","0","47162","","156","","","75","42","k","","","","","","","","","","","","","","",""
"","S2","","html-keyboard-response","244","232502","0.0-1.0-382.0","0","0","47162","","107","","","75","42","","k","1","42","training","adjacent","CB","3","2","N.jpg","L.jpg","0","0","1","",""
"","feedback","","html-keyboard-response","245","233508","0.0-1.0-384.0-0.0","0","0","47162","","null","","","null","42","","","","","","","","","","","","","","","",""
"","ITI","","html-keyboard-response","246","234532","0.0-1.0-387.0","0","0","47162","","85","","","75","42","","","","","","","","","","","","","","","k",""
"","S1","","html-keyboard-response","247","234796","0.0-1.0-389.0","0","0","47162","","null","","","null","43","","","","","","","","","","","","","","","",""
"","ISI","","html-keyboard-response","248","235317","0.0-1.0-390.0","0","0","47162","","13","","","75","43","k","","","","","","","","","","","","","","",""
"","S2","","html-keyboard-response","249","235335","0.0-1.0-391.0","0","0","47162","","13","","","68","43","","d","1","43","training","adjacent","FE","6","5","Q.jpg","P.jpg","1","0","0","",""
"","feedback","","html-keyboard-response","250","236364","0.0-1.0-393.0-0.0","0","0","47162","","null","","","null","43","","","","","","","","","","","","","","","",""
"","time_out","","html-keyboard-response","251","238371","0.0-1.0-395.0-0.0","0","0","47162","","null","","","null","43","","","","","","","","","","","","","","","",""
"","ITI","","html-keyboard-response","252","239397","0.0-1.0-396.0","0","0","47162","","41","","","68","43","","","","","","","","","","","","","","","d",""
"","S1","","html-keyboard-response","253","239698","0.0-1.0-398.0","0","0","47162","","null","","","null","44","","","","","","","","","","","","","","","",""
"","ISI","","html-keyboard-response","254","240214","0.0-1.0-399.0","0","0","47162","","22","","","75","44","k","","","","","","","","","","","","","","",""
"","S2","","html-keyboard-response","255","240224","0.0-1.0-400.0","0","0","47162","","2","","","75","44","","k","1","44","training","adjacent","BC","2","3","L.jpg","N.jpg","0","1","0","",""
"","feedback","","html-keyboard-response","256","241229","0.0-1.0-402.0-0.0","0","0","47162","","null","","","null","44","","","","","","","","","","","","","","","",""
"","time_out","","html-keyboard-response","257","243234","0.0-1.0-404.0-0.0","0","0","47162","","null","","","null","44","","","","","","","","","","","","","","","",""
"","ITI","","html-keyboard-response","258","244244","0.0-1.0-405.0","0","0","47162","","280","","","68","44","","","","","","","","","","","","","","","d",""
"","S1","","html-keyboard-response","259","244497","0.0-1.0-407.0","0","0","47162","","null","","","null","45","","","","","","","","","","","","","","","",""
"","ISI","","html-keyboard-response","260","245002","0.0-1.0-408.0","0","0","47162","","4","","","68","45","d","","","","","","","","","","","","","","",""
"","S2","","html-keyboard-response","261","245053","0.0-1.0-409.0","0","0","47162","","31","","","75","45","","k","1","45","training","adjacent","DC","4","3","R.jpg","N.jpg","0","0","1","",""
"","feedback","","html-keyboard-response","262","246062","0.0-1.0-411.0-0.0","0","0","47162","","null","","","null","45","","","","","","","","","","","","","","","",""
"","ITI","","html-keyboard-response","263","247078","0.0-1.0-414.0","0","0","47162","","2","","","75","45","","","","","","","","","","","","","","","k",""
"","S1","","html-keyboard-response","264","247343","0.0-1.0-416.0","0","0","47162","","null","","","null","46","","","","","","","","","","","","","","","",""
"","ISI","","html-keyboard-response","265","247853","0.0-1.0-417.0","0","0","47162","","45","","","75","46","k","","","","","","","","","","","","","","",""
"","S2","","html-keyboard-response","266","247954","0.0-1.0-418.0","0","0","47162","","92","","","75","46","","k","1","46","training","adjacent","CD","3","4","N.jpg","R.jpg","0","1","0","",""
"","feedback","","html-keyboard-response","267","248967","0.0-1.0-420.0-0.0","0","0","47162","","null","","","null","46","","","","","","","","","","","","","","","",""
"","time_out","","html-keyboard-response","268","250975","0.0-1.0-422.0-0.0","0","0","47162","","null","","","null","46","","","","","","","","","","","","","","","",""
"","ITI","","html-keyboard-response","269","252020","0.0-1.0-423.0","0","0","47162","","81","","","75","46","","","","","","","","","","","","","","","k",""
"","S1","","html-keyboard-response","270","252277","0.0-1.0-425.0","0","0","47162","","null","","","null","47","","","","","","","","","","","","","","","",""
"","ISI","","html-keyboard-response","271","252782","0.0-1.0-426.0","0","0","47162","","76","","","75","47","k","","","","","","","","","","","","","","",""
"","S2","","html-keyboard-response","272","252894","0.0-1.0-427.0","0","0","47162","","105","","","68","47","","d","1","47","training","adjacent","ED","5","4","P.jpg","R.jpg","1","0","0","",""
"","feedback","","html-keyboard-response","273","253921","0.0-1.0-429.0-0.0","0","0","47162","","null","","","null","47","","","","","","","","","","","","","","","",""
"","time_out","","html-keyboard-response","274","255927","0.0-1.0-431.0-0.0","0","0","47162","","null","","","null","47","","","","","","","","","","","","","","","",""
"","ITI","","html-keyboard-response","275","256934","0.0-1.0-432.0","0","0","47162","","10","","","68","47","","","","","","","","","","","","","","","d",""
"","block_over","","html-keyboard-response","276","257165","0.0-1.0-433.0-0.0","0","0","47162","","220","","","32","47","","","","","","","","","","","","","","","",""
"","S1","","html-keyboard-response","277","257422","0.0-1.0-434.0","0","0","47162","","null","","","null","48","","","","","","","","","","","","","","","",""
"","ISI","","html-keyboard-response","278","257930","0.0-1.0-435.0","0","0","47162","","364","","","75","48","k","","","","","","","","","","","","","","",""
"","S2","","html-keyboard-response","279","258136","0.0-1.0-436.0","0","0","47162","","197","","","75","48","","k","2","48","training","adjacent","CD","3","4","N.jpg","R.jpg","0","1","0","",""
"","feedback","","html-keyboard-response","280","259185","0.0-1.0-438.0-0.0","0","0","47162","","null","","","null","48","","","","","","","","","","","","","","","",""
"","time_out","","html-keyboard-response","281","261195","0.0-1.0-440.0-0.0","0","0","47162","","null","","","null","48","","","","","","","","","","","","","","","",""
"","ITI","","html-keyboard-response","282","262200","0.0-1.0-441.0","0","0","47162","","135","","","75","48","","","","","","","","","","","","","","","k",""
"","S1","","html-keyboard-response","283","262454","0.0-1.0-443.0","0","0","47162","","null","","","null","49","","","","","","","","","","","","","","","",""
"","ISI","","html-keyboard-response","284","262984","0.0-1.0-444.0","0","0","47162","","122","","","68","49","d","","","","","","","","","","","","","","",""
"","S2","","html-keyboard-response","285","263004","0.0-1.0-445.0","0","0","47162","","14","","","68","49","","d","2","49","training","adjacent","BC","2","3","L.jpg","N.jpg","1","1","1","",""
"","feedback","","html-keyboard-response","286","264019","0.0-1.0-447.0-0.0","0","0","47162","","null","","","null","49","","","","","","","","","","","","","","","",""
"","ITI","","html-keyboard-response","287","265029","0.0-1.0-450.0","0","0","47162","","35","","","75","49","","","","","","","","","","","","","","","k",""
"","S1","","html-keyboard-response","288","265328","0.0-1.0-452.0","0","0","47162","","null","","","null","50","","","","","","","","","","","","","","","",""
"","ISI","","html-keyboard-response","289","265836","0.0-1.0-453.0","0","0","47162","","44","","","75","50","k","","","","","","","","","","","","","","",""
"","S2","","html-keyboard-response","290","265864","0.0-1.0-454.0","0","0","47162","","21","","","68","50","","d","2","50","training","adjacent","BC","2","3","L.jpg","N.jpg","1","1","1","",""
"","feedback","","html-keyboard-response","291","266893","0.0-1.0-456.0-0.0","0","0","47162","","null","","","null","50","","","","","","","","","","","","","","","",""
"","ITI","","html-keyboard-response","292","267898","0.0-1.0-459.0","0","0","47162","","35","","","68","50","","","","","","","","","","","","","","","d",""
"","S1","","html-keyboard-response","293","268166","0.0-1.0-461.0","0","0","47162","","null","","","null","51","","","","","","","","","","","","","","","",""
"","ISI","","html-keyboard-response","294","268672","0.0-1.0-462.0","0","0","47162","","34","","","68","51","d","","","","","","","","","","","","","","",""
"","S2","","html-keyboard-response","295","268830","0.0-1.0-463.0","0","0","47162","","147","","","75","51","","k","2","51","training","adjacent","DE","4","5","R.jpg","P.jpg","0","1","0","",""
"","feedback","","html-keyboard-response","296","269836","0.0-1.0-465.0-0.0","0","0","47162","","null","","","null","51","","","","","","","","","","","","","","","",""
"","time_out","","html-keyboard-response","297","271848","0.0-1.0-467.0-0.0","0","0","47162","","null","","","null","51","","","","","","","","","","","","","","","",""
"","ITI","","html-keyboard-response","298","272858","0.0-1.0-468.0","0","0","47162","","64","","","75","51","","","","","","","","","","","","","","","k",""
"","S1","","html-keyboard-response","299","273117","0.0-1.0-470.0","0","0","47162","","null","","","null","52","","","","","","","","","","","","","","","",""
"","ISI","","html-keyboard-response","300","273623","0.0-1.0-471.0","0","0","47162","","76","","","75","52","k","","","","","","","","","","","","","","",""
"","S2","","html-keyboard-response","301","273793","0.0-1.0-472.0","0","0","47162","","146","","","68","52","","d","2","52","training","adjacent","CD","3","4","N.jpg","R.jpg","1","1","1","",""
"","feedback","","html-keyboard-response","302","274802","0.0-1.0-474.0-0.0","0","0","47162","","null","","","null","52","","","","","","","","","","","","","","","",""
"","ITI","","html-keyboard-response","303","275809","0.0-1.0-477.0","0","0","47162","","53","","","75","52","","","","","","","","","","","","","","","k",""
"","S1","","html-keyboard-response","304","276065","0.0-1.0-479.0","0","0","47162","","null","","","null","53","","","","","","","","","","","","","","","",""
"","ISI","","html-keyboard-response","305","276592","0.0-1.0-480.0","0","0","47162","","86","","","75","53","k","","","","","","","","","","","","","","",""
"","S2","","html-keyboard-response","306","276660","0.0-1.0-481.0","0","0","47162","","63","","","75","53","","k","2","53","training","adjacent","FG","6","7","Q.jpg","O.jpg","0","1","0","",""
"","feedback","","html-keyboard-response","307","277680","0.0-1.0-483.0-0.0","0","0","47162","","null","","","null","53","","","","","","","","","","","","","","","",""
"","time_out","","html-keyboard-response","308","279693","0.0-1.0-485.0-0.0","0","0","47162","","null","","","null","53","","","","","","","","","","","","","","","",""
"","ITI","","html-keyboard-response","309","280700","0.0-1.0-486.0","0","0","47162","","36","","","75","53","","","","","","","","","","","","","","","k",""
"","S1","","html-keyboard-response","310","280955","0.0-1.0-488.0","0","0","47162","","null","","","null","54","","","","","","","","","","","","","","","",""
"","ISI","","html-keyboard-response","311","281506","0.0-1.0-489.0","0","0","47162","","134","","","75","54","k","","","","","","","","","","","","","","",""
"","S2","","html-keyboard-response","312","281514","0.0-1.0-490.0","0","0","47162","","2","","","75","54","","k","2","54","training","adjacent","GF","7","6","O.jpg","Q.jpg","0","0","1","",""
"","feedback","","html-keyboard-response","313","282526","0.0-1.0-492.0-0.0","0","0","47162","","null","","","null","54","","","","","","","","","","","","","","","",""
"","ITI","","html-keyboard-response","314","283533","0.0-1.0-495.0","0","0","47162","","33","","","68","54","","","","","","","","","","","","","","","d",""
"","S1","","html-keyboard-response","315","283805","0.0-1.0-497.0","0","0","47162","","null","","","null","55","","","","","","","","","","","","","","","",""
"","ISI","","html-keyboard-response","316","284314","0.0-1.0-498.0","0","0","47162","","70","","","68","55","d","","","","","","","","","","","","","","",""
"","S2","","html-keyboard-response","317","284420","0.0-1.0-499.0","0","0","47162","","99","","","68","55","","d","2","55","training","adjacent","AB","1","2","M.jpg","L.jpg","1","1","1","",""
"","feedback","","html-keyboard-response","318","285427","0.0-1.0-501.0-0.0","0","0","47162","","null","","","null","55","","","","","","","","","","","","","","","",""
"","ITI","","html-keyboard-response","319","286434","0.0-1.0-504.0","0","0","47162","","126","","","75","55","","","","","","","","","","","","","","","k",""
"","S1","","html-keyboard-response","320","286698","0.0-1.0-506.0","0","0","47162","","null","","","null","56","","","","","","","","","","","","","","","",""
"","ISI","","html-keyboard-response","321","287202","0.0-1.0-507.0","0","0","47162","","90","","","75","56","k","","","","","","","","","","","","","","",""
"","S2","","html-keyboard-response","322","287309","0.0-1.0-508.0","0","0","47162","","102","","","75","56","","k","2","56","training","adjacent","CB","3","2","N.jpg","L.jpg","0","0","1","",""
"","feedback","","html-keyboard-response","323","288318","0.0-1.0-510.0-0.0","0","0","47162","","null","","","null","56","","","","","","","","","","","","","","","",""
"","ITI","","html-keyboard-response","324","289326","0.0-1.0-513.0","0","0","47162","","143","","","75","56","","","","","","","","","","","","","","","k",""
"","S1","","html-keyboard-response","325","289583","0.0-1.0-515.0","0","0","47162","","null","","","null","57","","","","","","","","","","","","","","","",""
"","ISI","","html-keyboard-response","326","290101","0.0-1.0-516.0","0","0","47162","","92","","","75","57","k","","","","","","","","","","","","","","",""
"","S2","","html-keyboard-response","327","290174","0.0-1.0-517.0","0","0","47162","","64","","","75","57","","k","2","57","training","adjacent","EF","5","6","P.jpg","Q.jpg","0","1","0","",""
"","feedback","","html-keyboard-response","328","291183","0.0-1.0-519.0-0.0","0","0","47162","","null","","","null","57","","","","","","","","","","","","","","","",""
"","time_out","","html-keyboard-response","329","293199","0.0-1.0-521.0-0.0","0","0","47162","","null","","","null","57","","","","","","","","","","","","","","","",""
"","ITI","","html-keyboard-response","330","294207","0.0-1.0-522.0","0","0","47162","","48","","","68","57","","","","","","","","","","","","","","","d",""
"","S1","","html-keyboard-response","331","294464","0.0-1.0-524.0","0","0","47162","","null","","","null","58","","","","","","","","","","","","","","","",""
"","ISI","","html-keyboard-response","332","294971","0.0-1.0-525.0","0","0","47162","","2","","","68","58","d","","","","","","","","","","","","","","",""
"","S2","","html-keyboard-response","333","295100","0.0-1.0-526.0","0","0","47162","","120","","","68","58","","d","2","58","training","adjacent","GF","7","6","O.jpg","Q.jpg","1","0","0","",""
"","feedback","","html-keyboard-response","334","296110","0.0-1.0-528.0-0.0","0","0","47162","","null","","","null","58","","","","","","","","","","","","","","","",""
"","time_out","","html-keyboard-response","335","298122","0.0-1.0-530.0-0.0","0","0","47162","","null","","","null","58","","","","","","","","","","","","","","","",""
"","ITI","","html-keyboard-response","336","299141","0.0-1.0-531.0","0","0","47162","","118","","","75","58","","","","","","","","","","","","","","","k",""
"","S1","","html-keyboard-response","337","299404","0.0-1.0-533.0","0","0","47162","","null","","","null","59","","","","","","","","","","","","","","","",""
"","ISI","","html-keyboard-response","338","299910","0.0-1.0-534.0","0","0","47162","","26","","","75","59","k","","","","","","","","","","","","","","",""
"","S2","","html-keyboard-response","339","299948","0.0-1.0-535.0","0","0","47162","","32","","","75","59","","k","2","59","training","adjacent","DC","4","3","R.jpg","N.jpg","0","0","1","",""
"","feedback","","html-keyboard-response","340","300953","0.0-1.0-537.0-0.0","0","0","47162","","null","","","null","59","","","","","","","","","","","","","","","",""
"","ITI","","html-keyboard-response","341","301959","0.0-1.0-540.0","0","0","47162","","114","","","75","59","","","","","","","","","","","","","","","k",""
"","S1","","html-keyboard-response","342","302216","0.0-1.0-542.0","0","0","47162","","null","","","null","60","","","","","","","","","","","","","","","",""
"","ISI","","html-keyboard-response","343","302723","0.0-1.0-543.0","0","0","47162","","128","","","68","60","d","","","","","","","","","","","","","","",""
"","S2","","html-keyboard-response","344","302751","0.0-1.0-544.0","0","0","47162","","6","","","68","60","","d","2","60","training","adjacent","CB","3","2","N.jpg","L.jpg","1","0","0","",""
"","feedback","","html-keyboard-response","345","303759","0.0-1.0-546.0-0.0","0","0","47162","","null","","","null","60","","","","","","","","","","","","","","","",""
"","time_out","","html-keyboard-response","346","305766","0.0-1.0-548.0-0.0","0","0","47162","","null","","","null","60","","","","","","","","","","","","","","","",""
"","ITI","","html-keyboard-response","347","306774","0.0-1.0-549.0","0","0","47162","","138","","","75","60","","","","","","","","","","","","","","","k",""
"","S1","","html-keyboard-response","348","307033","0.0-1.0-551.0","0","0","47162","","null","","","null","61","","","","","","","","","","","","","","","",""
"","ISI","","html-keyboard-response","349","307539","0.0-1.0-552.0","0","0","47162","","331","","","75","61","k","","","","","","","","","","","","","","",""
"","S2","","html-keyboard-response","350","307685","0.0-1.0-553.0","0","0","47162","","132","","","75","61","","k","2","61","training","adjacent","EF","5","6","P.jpg","Q.jpg","0","1","0","",""
"","feedback","","html-keyboard-response","351","308700","0.0-1.0-555.0-0.0","0","0","47162","","null","","","null","61","","","","","","","","","","","","","","","",""
"","time_out","","html-keyboard-response","352","310712","0.0-1.0-557.0-0.0","0","0","47162","","null","","","null","61","","","","","","","","","","","","","","","",""
"","ITI","","html-keyboard-response","353","311718","0.0-1.0-558.0","0","0","47162","","101","","","75","61","","","","","","","","","","","","","","","k",""
"","S1","","html-keyboard-response","354","311977","0.0-1.0-560.0","0","0","47162","","null","","","null","62","","","","","","","","","","","","","","","",""
"","ISI","","html-keyboard-response","355","312485","0.0-1.0-561.0","0","0","47162","","346","","","68","62","d","","","","","","","","","","","","","","",""
"","S2","","html-keyboard-response","356","312590","0.0-1.0-562.0","0","0","47162","","98","","","75","62","","k","2","62","training","adjacent","DC","4","3","R.jpg","N.jpg","0","0","1","",""
"","feedback","","html-keyboard-response","357","313597","0.0-1.0-564.0-0.0","0","0","47162","","null","","","null","62","","","","","","","","","","","","","","","",""
"","ITI","","html-keyboard-response","358","314606","0.0-1.0-567.0","0","0","47162","","146","","","75","62","","","","","","","","","","","","","","","k",""
"","S1","","html-keyboard-response","359","314864","0.0-1.0-569.0","0","0","47162","","null","","","null","63","","","","","","","","","","","","","","","",""
"","ISI","","html-keyboard-response","360","315369","0.0-1.0-570.0","0","0","47162","","49","","","75","63","k","","","","","","","","","","","","","","",""
"","S2","","html-keyboard-response","361","315382","0.0-1.0-571.0","0","0","47162","","9","","","75","63","","k","2","63","training","adjacent","AB","1","2","M.jpg","L.jpg","0","1","0","",""
"","feedback","","html-keyboard-response","362","316389","0.0-1.0-573.0-0.0","0","0","47162","","null","","","null","63","","","","","","","","","","","","","","","",""
"","time_out","","html-keyboard-response","363","318400","0.0-1.0-575.0-0.0","0","0","47162","","null","","","null","63","","","","","","","","","","","","","","","",""
"","ITI","","html-keyboard-response","364","319414","0.0-1.0-576.0","0","0","47162","","70","","","75","63","","","","","","","","","","","","","","","k",""
"","S1","","html-keyboard-response","365","319673","0.0-1.0-578.0","0","0","47162","","null","","","null","64","","","","","","","","","","","","","","","",""
"","ISI","","html-keyboard-response","366","320178","0.0-1.0-579.0","0","0","47162","","303","","","68","64","d","","","","","","","","","","","","","","",""
"","S2","","html-keyboard-response","367","320258","0.0-1.0-580.0","0","0","47162","","73","","","68","64","","d","2","64","training","adjacent","FG","6","7","Q.jpg","O.jpg","1","1","1","",""
"","feedback","","html-keyboard-response","368","321272","0.0-1.0-582.0-0.0","0","0","47162","","null","","","null","64","","","","","","","","","","","","","","","",""
"","ITI","","html-keyboard-response","369","322278","0.0-1.0-585.0","0","0","47162","","21","","","75","64","","","","","","","","","","","","","","","k",""
"","S1","","html-keyboard-response","370","322533","0.0-1.0-587.0","0","0","47162","","null","","","null","65","","","","","","","","","","","","","","","",""
"","ISI","","html-keyboard-response","371","323039","0.0-1.0-588.0","0","0","47162","","78","","","75","65","k","","","","","","","","","","","","","","",""
"","S2","","html-keyboard-response","372","323179","0.0-1.0-589.0","0","0","47162","","133","","","68","65","","d","2","65","training","adjacent","FE","6","5","Q.jpg","P.jpg","1","0","0","",""
"","feedback","","html-keyboard-response","373","324242","0.0-1.0-591.0-0.0","0","0","47162","","null","","","null","65","","","","","","","","","","","","","","","",""
"","time_out","","html-keyboard-response","374","326248","0.0-1.0-593.0-0.0","0","0","47162","","null","","","null","65","","","","","","","","","","","","","","","",""
"","ITI","","html-keyboard-response","375","327253","0.0-1.0-594.0","0","0","47162","","68","","","75","65","","","","","","","","","","","","","","","k",""
"","S1","","html-keyboard-response","376","327514","0.0-1.0-596.0","0","0","47162","","null","","","null","66","","","","","","","","","","","","","","","",""
"","ISI","","html-keyboard-response","377","328018","0.0-1.0-597.0","0","0","47162","","97","","","75","66","k","","","","","","","","","","","","","","",""
"","S2","","html-keyboard-response","378","328107","0.0-1.0-598.0","0","0","47162","","83","","","68","66","","d","2","66","training","adjacent","BC","2","3","L.jpg","N.jpg","1","1","1","",""
"","feedback","","html-keyboard-response","379","329112","0.0-1.0-600.0-0.0","0","0","47162","","null","","","null","66","","","","","","","","","","","","","","","",""
"","ITI","","html-keyboard-response","380","330120","0.0-1.0-603.0","0","0","47162","","36","","","75","66","","","","","","","","","","","","","","","k",""
"","S1","","html-keyboard-response","381","330376","0.0-1.0-605.0","0","0","47162","","null","","","null","67","","","","","","","","","","","","","","","",""
"","ISI","","html-keyboard-response","382","330894","0.0-1.0-606.0","0","0","47162","","33","","","68","67","d","","","","","","","","","","","","","","",""
"","S2","","html-keyboard-response","383","331052","0.0-1.0-607.0","0","0","47162","","152","","","75","67","","k","2","67","training","adjacent","CB","3","2","N.jpg","L.jpg","0","0","1","",""
"","feedback","","html-keyboard-response","384","332062","0.0-1.0-609.0-0.0","0","0","47162","","null","","","null","67","","","","","","","","","","","","","","","",""
"","ITI","","html-keyboard-response","385","333068","0.0-1.0-612.0","0","0","47162","","27","","","75","67","","","","","","","","","","","","","","","k",""
"","S1","","html-keyboard-response","386","333344","0.0-1.0-614.0","0","0","47162","","null","","","null","68","","","","","","","","","","","","","","","",""
"","ISI","","html-keyboard-response","387","333863","0.0-1.0-615.0","0","0","47162","","1","","","75","68","k","","","","","","","","","","","","","","",""
"","S2","","html-keyboard-response","388","333890","0.0-1.0-616.0","0","0","47162","","22","","","68","68","","d","2","68","training","adjacent","FG","6","7","Q.jpg","O.jpg","1","1","1","",""
"","feedback","","html-keyboard-response","389","334896","0.0-1.0-618.0-0.0","0","0","47162","","null","","","null","68","","","","","","","","","","","","","","","",""
"","ITI","","html-keyboard-response","390","335913","0.0-1.0-621.0","0","0","47162","","145","","","75","68","","","","","","","","","","","","","","","k",""
"","S1","","html-keyboard-response","391","336173","0.0-1.0-623.0","0","0","47162","","null","","","null","69","","","","","","","","","","","","","","","",""
"","ISI","","html-keyboard-response","392","336676","0.0-1.0-624.0","0","0","47162","","2","","","68","69","d","","","","","","","","","","","","","","",""
"","S2","","html-keyboard-response","393","336744","0.0-1.0-625.0","0","0","47162","","60","","","68","69","","d","2","69","training","adjacent","BA","2","1","L.jpg","M.jpg","1","0","0","",""
"","feedback","","html-keyboard-response","394","337750","0.0-1.0-627.0-0.0","0","0","47162","","null","","","null","69","","","","","","","","","","","","","","","",""
"","time_out","","html-keyboard-response","395","339755","0.0-1.0-629.0-0.0","0","0","47162","","null","","","null","69","","","","","","","","","","","","","","","",""
"","ITI","","html-keyboard-response","396","340764","0.0-1.0-630.0","0","0","47162","","17","","","75","69","","","","","","","","","","","","","","","k",""
"","S1","","html-keyboard-response","397","341020","0.0-1.0-632.0","0","0","47162","","null","","","null","70","","","","","","","","","","","","","","","",""
"","ISI","","html-keyboard-response","398","341527","0.0-1.0-633.0","0","0","47162","","82","","","75","70","k","","","","","","","","","","","","","","",""
"","S2","","html-keyboard-response","399","341642","0.0-1.0-634.0","0","0","47162","","109","","","68","70","","d","2","70","training","adjacent","BA","2","1","L.jpg","M.jpg","1","0","0","",""
"","feedback","","html-keyboard-response","400","342657","0.0-1.0-636.0-0.0","0","0","47162","","null","","","null","70","","","","","","","","","","","","","","","",""
"","time_out","","html-keyboard-response","401","344664","0.0-1.0-638.0-0.0","0","0","47162","","null","","","null","70","","","","","","","","","","","","","","","",""
"","ITI","","html-keyboard-response","402","345685","0.0-1.0-639.0","0","0","47162","","136","","","75","70","","","","","","","","","","","","","","","k",""
"","S1","","html-keyboard-response","403","345940","0.0-1.0-641.0","0","0","47162","","null","","","null","71","","","","","","","","","","","","","","","",""
"","ISI","","html-keyboard-response","404","346446","0.0-1.0-642.0","0","0","47162","","62","","","68","71","d","","","","","","","","","","","","","","",""
"","S2","","html-keyboard-response","405","346467","0.0-1.0-643.0","0","0","47162","","15","","","75","71","","k","2","71","training","adjacent","EF","5","6","P.jpg","Q.jpg","0","1","0","",""
"","feedback","","html-keyboard-response","406","347475","0.0-1.0-645.0-0.0","0","0","47162","","null","","","null","71","","","","","","","","","","","","","","","",""
"","time_out","","html-keyboard-response","407","349528","0.0-1.0-647.0-0.0","0","0","47162","","null","","","null","71","","","","","","","","","","","","","","","",""
"","ITI","","html-keyboard-response","408","350535","0.0-1.0-648.0","0","0","47162","","203","","","68","71","","","","","","","","","","","","","","","d",""
"","S1","","html-keyboard-response","409","350792","0.0-1.0-650.0","0","0","47162","","null","","","null","72","","","","","","","","","","","","","","","",""
"","ISI","","html-keyboard-response","410","351301","0.0-1.0-651.0","0","0","47162","","0","","","75","72","k","","","","","","","","","","","","","","",""
"","S2","","html-keyboard-response","411","351337","0.0-1.0-652.0","0","0","47162","","26","","","75","72","","k","2","72","training","adjacent","BA","2","1","L.jpg","M.jpg","0","0","1","",""
"","feedback","","html-keyboard-response","412","352351","0.0-1.0-654.0-0.0","0","0","47162","","null","","","null","72","","","","","","","","","","","","","","","",""
"","ITI","","html-keyboard-response","413","353365","0.0-1.0-657.0","0","0","47162","","109","","","75","72","","","","","","","","","","","","","","","k",""
"","S1","","html-keyboard-response","414","353619","0.0-1.0-659.0","0","0","47162","","null","","","null","73","","","","","","","","","","","","","","","",""
"","ISI","","html-keyboard-response","415","354147","0.0-1.0-660.0","0","0","47162","","117","","","75","73","k","","","","","","","","","","","","","","",""
"","S2","","html-keyboard-response","416","354224","0.0-1.0-661.0","0","0","47162","","72","","","75","73","","k","2","73","training","adjacent","DE","4","5","R.jpg","P.jpg","0","1","0","",""
"","feedback","","html-keyboard-response","417","355231","0.0-1.0-663.0-0.0","0","0","47162","","null","","","null","73","","","","","","","","","","","","","","","",""
"","time_out","","html-keyboard-response","418","357238","0.0-1.0-665.0-0.0","0","0","47162","","null","","","null","73","","","","","","","","","","","","","","","",""
"","ITI","","html-keyboard-response","419","358244","0.0-1.0-666.0","0","0","47162","","357","","","75","73","","","","","","","","","","","","","","","k",""
"","S1","","html-keyboard-response","420","358499","0.0-1.0-668.0","0","0","47162","","null","","","null","74","","","","","","","","","","","","","","","",""
"","ISI","","html-keyboard-response","421","359014","0.0-1.0-669.0","0","0","47162","","35","","","75","74","k","","","","","","","","","","","","","","",""
"","S2","","html-keyboard-response","422","359148","0.0-1.0-670.0","0","0","47162","","113","","","75","74","","k","2","74","training","adjacent","FE","6","5","Q.jpg","P.jpg","0","0","1","",""
"","feedback","","html-keyboard-response","423","360158","0.0-1.0-672.0-0.0","0","0","47162","","null","","","null","74","","","","","","","","","","","","","","","",""
"","ITI","","html-keyboard-response","424","361164","0.0-1.0-675.0","0","0","47162","","103","","","68","74","","","","","","","","","","","","","","","d",""
"","S1","","html-keyboard-response","425","361465","0.0-1.0-677.0","0","0","47162","","null","","","null","75","","","","","","","","","","","","","","","",""
"","ISI","","html-keyboard-response","426","361972","0.0-1.0-678.0","0","0","47162","","19","","","75","75","k","","","","","","","","","","","","","","",""
"","S2","","html-keyboard-response","427","362002","0.0-1.0-679.0","0","0","47162","","17","","","75","75","","k","2","75","training","adjacent","CD","3","4","N.jpg","R.jpg","0","1","0","",""
"","feedback","","html-keyboard-response","428","363013","0.0-1.0-681.0-0.0","0","0","47162","","null","","","null","75","","","","","","","","","","","","","","","",""
"","time_out","","html-keyboard-response","429","365020","0.0-1.0-683.0-0.0","0","0","47162","","null","","","null","75","","","","","","","","","","","","","","","",""
"","ITI","","html-keyboard-response","430","366027","0.0-1.0-684.0","0","0","47162","","49","","","68","75","","","","","","","","","","","","","","","d",""
"","S1","","html-keyboard-response","431","366287","0.0-1.0-686.0","0","0","47162","","null","","","null","76","","","","","","","","","","","","","","","",""
"","ISI","","html-keyboard-response","432","366790","0.0-1.0-687.0","0","0","47162","","150","","","68","76","d","","","","","","","","","","","","","","",""
"","S2","","html-keyboard-response","433","366823","0.0-1.0-688.0","0","0","47162","","28","","","75","76","","k","2","76","training","adjacent","AB","1","2","M.jpg","L.jpg","0","1","0","",""
"","feedback","","html-keyboard-response","434","367838","0.0-1.0-690.0-0.0","0","0","47162","","null","","","null","76","","","","","","","","","","","","","","","",""
"","time_out","","html-keyboard-response","435","369847","0.0-1.0-692.0-0.0","0","0","47162","","null","","","null","76","","","","","","","","","","","","","","","",""
"","ITI","","html-keyboard-response","436","370854","0.0-1.0-693.0","0","0","47162","","23","","","75","76","","","","","","","","","","","","","","","k",""
"","S1","","html-keyboard-response","437","371112","0.0-1.0-695.0","0","0","47162","","null","","","null","77","","","","","","","","","","","","","","","",""
"","ISI","","html-keyboard-response","438","371619","0.0-1.0-696.0","0","0","47162","","10","","","75","77","k","","","","","","","","","","","","","","",""
"","S2","","html-keyboard-response","439","371652","0.0-1.0-697.0","0","0","47162","","25","","","75","77","","k","2","77","training","adjacent","AB","1","2","M.jpg","L.jpg","0","1","0","",""
"","feedback","","html-keyboard-response","440","372662","0.0-1.0-699.0-0.0","0","0","47162","","null","","","null","77","","","","","","","","","","","","","","","",""
"","time_out","","html-keyboard-response","441","374673","0.0-1.0-701.0-0.0","0","0","47162","","null","","","null","77","","","","","","","","","","","","","","","",""
"","ITI","","html-keyboard-response","442","375678","0.0-1.0-702.0","0","0","47162","","0","","","75","77","","","","","","","","","","","","","","","k",""
"","S1","","html-keyboard-response","443","375936","0.0-1.0-704.0","0","0","47162","","null","","","null","78","","","","","","","","","","","","","","","",""
"","ISI","","html-keyboard-response","444","376440","0.0-1.0-705.0","0","0","47162","","65","","","75","78","k","","","","","","","","","","","","","","",""
"","S2","","html-keyboard-response","445","376487","0.0-1.0-706.0","0","0","47162","","40","","","68","78","","d","2","78","training","adjacent","DC","4","3","R.jpg","N.jpg","1","0","0","",""
"","feedback","","html-keyboard-response","446","377497","0.0-1.0-708.0-0.0","0","0","47162","","null","","","null","78","","","","","","","","","","","","","","","",""
"","time_out","","html-keyboard-response","447","379538","0.0-1.0-710.0-0.0","0","0","47162","","null","","","null","78","","","","","","","","","","","","","","","",""
"","ITI","","html-keyboard-response","448","380546","0.0-1.0-711.0","0","0","47162","","5","","","75","78","","","","","","","","","","","","","","","k",""
"","S1","","html-keyboard-response","449","380806","0.0-1.0-713.0","0","0","47162","","null","","","null","79","","","","","","","","","","","","","","","",""
"","ISI","","html-keyboard-response","450","381313","0.0-1.0-714.0","0","0","47162","","131","","","75","79","k","","","","","","","","","","","","","","",""
"","S2","","html-keyboard-response","451","381428","0.0-1.0-715.0","0","0","47162","","108","","","75","79","","k","2","79","training","adjacent","DE","4","5","R.jpg","P.jpg","0","1","0","",""
"","feedback","","html-keyboard-response","452","382448","0.0-1.0-717.0-0.0","0","0","47162","","null","","","null","79","","","","","","","","","","","","","","","",""
"","time_out","","html-keyboard-response","453","384464","0.0-1.0-719.0-0.0","0","0","47162","","null","","","null","79","","","","","","","","","","","","","","","",""
"","ITI","","html-keyboard-response","454","385482","0.0-1.0-720.0","0","0","47162","","95","","","75","79","","","","","","","","","","","","","","","k",""
"","S1","","html-keyboard-response","455","385743","0.0-1.0-722.0","0","0","47162","","null","","","null","80","","","","","","","","","","","","","","","",""
"","ISI","","html-keyboard-response","456","386248","0.0-1.0-723.0","0","0","47162","","71","","","68","80","d","","","","","","","","","","","","","","",""
"","S2","","html-keyboard-response","457","386257","0.0-1.0-724.0","0","0","47162","","1","","","75","80","","k","2","80","training","adjacent","BC","2","3","L.jpg","N.jpg","0","1","0","",""
"","feedback","","html-keyboard-response","458","387262","0.0-1.0-726.0-0.0","0","0","47162","","null","","","null","80","","","","","","","","","","","","","","","",""
"","time_out","","html-keyboard-response","459","389282","0.0-1.0-728.0-0.0","0","0","47162","","null","","","null","80","","","","","","","","","","","","","","","",""
"","ITI","","html-keyboard-response","460","390289","0.0-1.0-729.0","0","0","47162","","15","","","68","80","","","","","","","","","","","","","","","d",""
"","S1","","html-keyboard-response","461","390546","0.0-1.0-731.0","0","0","47162","","null","","","null","81","","","","","","","","","","","","","","","",""
"","ISI","","html-keyboard-response","462","391051","0.0-1.0-732.0","0","0","47162","","48","","","75","81","k","","","","","","","","","","","","","","",""
"","S2","","html-keyboard-response","463","391157","0.0-1.0-733.0","0","0","47162","","96","","","75","81","","k","2","81","training","adjacent","EF","5","6","P.jpg","Q.jpg","0","1","0","",""
"","feedback","","html-keyboard-response","464","392169","0.0-1.0-735.0-0.0","0","0","47162","","null","","","null","81","","","","","","","","","","","","","","","",""
"","time_out","","html-keyboard-response","465","394183","0.0-1.0-737.0-0.0","0","0","47162","","null","","","null","81","","","","","","","","","","","","","","","",""
"","ITI","","html-keyboard-response","466","395193","0.0-1.0-738.0","0","0","47162","","1","","","75","81","","","","","","","","","","","","","","","k",""
"","S1","","html-keyboard-response","467","395455","0.0-1.0-740.0","0","0","47162","","null","","","null","82","","","","","","","","","","","","","","","",""
"","ISI","","html-keyboard-response","468","395964","0.0-1.0-741.0","0","0","47162","","326","","","68","82","d","","","","","","","","","","","","","","",""
"","S2","","html-keyboard-response","469","396000","0.0-1.0-742.0","0","0","47162","","29","","","75","82","","k","2","82","training","adjacent","ED","5","4","P.jpg","R.jpg","0","0","1","",""
"","feedback","","html-keyboard-response","470","397012","0.0-1.0-744.0-0.0","0","0","47162","","null","","","null","82","","","","","","","","","","","","","","","",""
"","ITI","","html-keyboard-response","471","398020","0.0-1.0-747.0","0","0","47162","","36","","","75","82","","","","","","","","","","","","","","","k",""
"","S1","","html-keyboard-response","472","398276","0.0-1.0-749.0","0","0","47162","","null","","","null","83","","","","","","","","","","","","","","","",""
"","ISI","","html-keyboard-response","473","398780","0.0-1.0-750.0","0","0","47162","","156","","","75","83","k","","","","","","","","","","","","","","",""
"","S2","","html-keyboard-response","474","398989","0.0-1.0-751.0","0","0","47162","","205","","","68","83","","d","2","83","training","adjacent","FG","6","7","Q.jpg","O.jpg","1","1","1","",""
"","feedback","","html-keyboard-response","475","399995","0.0-1.0-753.0-0.0","0","0","47162","","null","","","null","83","","","","","","","","","","","","","","","",""
"","ITI","","html-keyboard-response","476","401001","0.0-1.0-756.0","0","0","47162","","62","","","68","83","","","","","","","","","","","","","","","d",""
"","S1","","html-keyboard-response","477","401256","0.0-1.0-758.0","0","0","47162","","null","","","null","84","","","","","","","","","","","","","","","",""
"","ISI","","html-keyboard-response","478","401762","0.0-1.0-759.0","0","0","47162","","147","","","75","84","k","","","","","","","","","","","","","","",""
"","S2","","html-keyboard-response","479","401874","0.0-1.0-760.0","0","0","47162","","106","","","75","84","","k","2","84","training","adjacent","CD","3","4","N.jpg","R.jpg","0","1","0","",""
"","feedback","","html-keyboard-response","480","402888","0.0-1.0-762.0-0.0","0","0","47162","","null","","","null","84","","","","","","","","","","","","","","","",""
"","time_out","","html-keyboard-response","481","404900","0.0-1.0-764.0-0.0","0","0","47162","","null","","","null","84","","","","","","","","","","","","","","","",""
"","ITI","","html-keyboard-response","482","405912","0.0-1.0-765.0","0","0","47162","","1","","","68","84","","","","","","","","","","","","","","","d",""
"","S1","","html-keyboard-response","483","406170","0.0-1.0-767.0","0","0","47162","","null","","","null","85","","","","","","","","","","","","","","","",""
"","ISI","","html-keyboard-response","484","406678","0.0-1.0-768.0","0","0","47162","","112","","","75","85","k","","","","","","","","","","","","","","",""
"","S2","","html-keyboard-response","485","406760","0.0-1.0-769.0","0","0","47162","","75","","","68","85","","d","2","85","training","adjacent","GF","7","6","O.jpg","Q.jpg","1","0","0","",""
"","feedback","","html-keyboard-response","486","407769","0.0-1.0-771.0-0.0","0","0","47162","","null","","","null","85","","","","","","","","","","","","","","","",""
"","time_out","","html-keyboard-response","487","409774","0.0-1.0-773.0-0.0","0","0","47162","","null","","","null","85","","","","","","","","","","","","","","","",""
"","ITI","","html-keyboard-response","488","410803","0.0-1.0-774.0","0","0","47162","","1","","","68","85","","","","","","","","","","","","","","","d",""
"","S1","","html-keyboard-response","489","411058","0.0-1.0-776.0","0","0","47162","","null","","","null","86","","","","","","","","","","","","","","","",""
"","ISI","","html-keyboard-response","490","411623","0.0-1.0-777.0","0","0","47162","","39","","","68","86","d","","","","","","","","","","","","","","",""
"","S2","","html-keyboard-response","491","411636","0.0-1.0-778.0","0","0","47162","","3","","","75","86","","k","2","86","training","adjacent","FE","6","5","Q.jpg","P.jpg","0","0","1","",""
"","feedback","","html-keyboard-response","492","412667","0.0-1.0-780.0-0.0","0","0","47162","","null","","","null","86","","","","","","","","","","","","","","","",""
"","ITI","","html-keyboard-response","493","413672","0.0-1.0-783.0","0","0","47162","","23","","","68","86","","","","","","","","","","","","","","","d",""
"","S1","","html-keyboard-response","494","413929","0.0-1.0-785.0","0","0","47162","","null","","","null","87","","","","","","","","","","","","","","","",""
"","ISI","","html-keyboard-response","495","414436","0.0-1.0-786.0","0","0","47162","","45","","","75","87","k","","","","","","","","","","","","","","",""
"","S2","","html-keyboard-response","496","414485","0.0-1.0-787.0","0","0","47162","","40","","","75","87","","k","2","87","training","adjacent","CB","3","2","N.jpg","L.jpg","0","0","1","",""
"","feedback","","html-keyboard-response","497","415492","0.0-1.0-789.0-0.0","0","0","47162","","null","","","null","87","","","","","","","","","","","","","","","",""
"","ITI","","html-keyboard-response","498","416499","0.0-1.0-792.0","0","0","47162","","137","","","75","87","","","","","","","","","","","","","","","k",""
"","S1","","html-keyboard-response","499","416758","0.0-1.0-794.0","0","0","47162","","null","","","null","88","","","","","","","","","","","","","","","",""
"","ISI","","html-keyboard-response","500","417271","0.0-1.0-795.0","0","0","47162","","17","","","68","88","d","","","","","","","","","","","","","","",""
"","S2","","html-keyboard-response","501","417465","0.0-1.0-796.0","0","0","47162","","178","","","68","88","","d","2","88","training","adjacent","DE","4","5","R.jpg","P.jpg","1","1","1","",""
"","feedback","","html-keyboard-response","502","418475","0.0-1.0-798.0-0.0","0","0","47162","","null","","","null","88","","","","","","","","","","","","","","","",""
"","ITI","","html-keyboard-response","503","419481","0.0-1.0-801.0","0","0","47162","","267","","","68","88","","","","","","","","","","","","","","","d",""
"","S1","","html-keyboard-response","504","419737","0.0-1.0-803.0","0","0","47162","","null","","","null","89","","","","","","","","","","","","","","","",""
"","ISI","","html-keyboard-response","505","420243","0.0-1.0-804.0","0","0","47162","","1","","","68","89","d","","","","","","","","","","","","","","",""
"","S2","","html-keyboard-response","506","420323","0.0-1.0-805.0","0","0","47162","","74","","","75","89","","k","2","89","training","adjacent","GF","7","6","O.jpg","Q.jpg","0","0","1","",""
"","feedback","","html-keyboard-response","507","421329","0.0-1.0-807.0-0.0","0","0","47162","","null","","","null","89","","","","","","","","","","","","","","","",""
"","ITI","","html-keyboard-response","508","422334","0.0-1.0-810.0","0","0","47162","","153","","","75","89","","","","","","","","","","","","","","","k",""
"","S1","","html-keyboard-response","509","422589","0.0-1.0-812.0","0","0","47162","","null","","","null","90","","","","","","","","","","","","","","","",""
"","ISI","","html-keyboard-response","510","423107","0.0-1.0-813.0","0","0","47162","","66","","","75","90","k","","","","","","","","","","","","","","",""
"","S2","","html-keyboard-response","511","423138","0.0-1.0-814.0","0","0","47162","","25","","","68","90","","d","2","90","training","adjacent","BA","2","1","L.jpg","M.jpg","1","0","0","",""
"","feedback","","html-keyboard-response","512","424148","0.0-1.0-816.0-0.0","0","0","47162","","null","","","null","90","","","","","","","","","","","","","","","",""
"","time_out","","html-keyboard-response","513","426155","0.0-1.0-818.0-0.0","0","0","47162","","null","","","null","90","","","","","","","","","","","","","","","",""
"","ITI","","html-keyboard-response","514","427279","0.0-1.0-819.0","0","0","47162","","34","","","68","90","","","","","","","","","","","","","","","d",""
"","S1","","html-keyboard-response","515","427542","0.0-1.0-821.0","0","0","47162","","null","","","null","91","","","","","","","","","","","","","","","",""
"","ISI","","html-keyboard-response","516","428049","0.0-1.0-822.0","0","0","47162","","1","","","75","91","k","","","","","","","","","","","","","","",""
"","S2","","html-keyboard-response","517","428074","0.0-1.0-823.0","0","0","47162","","16","","","68","91","","d","2","91","training","adjacent","ED","5","4","P.jpg","R.jpg","1","0","0","",""
"","feedback","","html-keyboard-response","518","429082","0.0-1.0-825.0-0.0","0","0","47162","","null","","","null","91","","","","","","","","","","","","","","","",""
"","time_out","","html-keyboard-response","519","431089","0.0-1.0-827.0-0.0","0","0","47162","","null","","","null","91","","","","","","","","","","","","","","","",""
"","ITI","","html-keyboard-response","520","432093","0.0-1.0-828.0","0","0","47162","","97","","","75","91","","","","","","","","","","","","","","","k",""
"","S1","","html-keyboard-response","521","432351","0.0-1.0-830.0","0","0","47162","","null","","","null","92","","","","","","","","","","","","","","","",""
"","ISI","","html-keyboard-response","522","432857","0.0-1.0-831.0","0","0","47162","","24","","","68","92","d","","","","","","","","","","","","","","",""
"","S2","","html-keyboard-response","523","432911","0.0-1.0-832.0","0","0","47162","","46","","","75","92","","k","2","92","training","adjacent","ED","5","4","P.jpg","R.jpg","0","0","1","",""
"","feedback","","html-keyboard-response","524","433922","0.0-1.0-834.0-0.0","0","0","47162","","null","","","null","92","","","","","","","","","","","","","","","",""
"","ITI","","html-keyboard-response","525","434938","0.0-1.0-837.0","0","0","47162","","24","","","75","92","","","","","","","","","","","","","","","k",""
"","S1","","html-keyboard-response","526","435292","0.0-1.0-839.0","0","0","47162","","null","","","null","93","","","","","","","","","","","","","","","",""
"","ISI","","html-keyboard-response","527","435800","0.0-1.0-840.0","0","0","47162","","10","","","75","93","k","","","","","","","","","","","","","","",""
"","S2","","html-keyboard-response","528","435815","0.0-1.0-841.0","0","0","47162","","10","","","75","93","","k","2","93","training","adjacent","DC","4","3","R.jpg","N.jpg","0","0","1","",""
"","feedback","","html-keyboard-response","529","436822","0.0-1.0-843.0-0.0","0","0","47162","","null","","","null","93","","","","","","","","","","","","","","","",""
"","ITI","","html-keyboard-response","530","437831","0.0-1.0-846.0","0","0","47162","","6","","","68","93","","","","","","","","","","","","","","","d",""
"","S1","","html-keyboard-response","531","438087","0.0-1.0-848.0","0","0","47162","","null","","","null","94","","","","","","","","","","","","","","","",""
"","ISI","","html-keyboard-response","532","438593","0.0-1.0-849.0","0","0","47162","","102","","","68","94","d","","","","","","","","","","","","","","",""
"","S2","","html-keyboard-response","533","438665","0.0-1.0-850.0","0","0","47162","","63","","","68","94","","d","2","94","training","adjacent","FE","6","5","Q.jpg","P.jpg","1","0","0","",""
"","feedback","","html-keyboard-response","534","439672","0.0-1.0-852.0-0.0","0","0","47162","","null","","","null","94","","","","","","","","","","","","","","","",""
"","time_out","","html-keyboard-response","535","441682","0.0-1.0-854.0-0.0","0","0","47162","","null","","","null","94","","","","","","","","","","","","","","","",""
"","ITI","","html-keyboard-response","536","442686","0.0-1.0-855.0","0","0","47162","","120","","","75","94","","","","","","","","","","","","","","","k",""
"","S1","","html-keyboard-response","537","442942","0.0-1.0-857.0","0","0","47162","","null","","","null","95","","","","","","","","","","","","","","","",""
"","ISI","","html-keyboard-response","538","443455","0.0-1.0-858.0","0","0","47162","","9","","","68","95","d","","","","","","","","","","","","","","",""
"","S2","","html-keyboard-response","539","443520","0.0-1.0-859.0","0","0","47162","","59","","","68","95","","d","2","95","training","adjacent","ED","5","4","P.jpg","R.jpg","1","0","0","",""
"","feedback","","html-keyboard-response","540","444530","0.0-1.0-861.0-0.0","0","0","47162","","null","","","null","95","","","","","","","","","","","","","","","",""
"","time_out","","html-keyboard-response","541","446584","0.0-1.0-863.0-0.0","0","0","47162","","null","","","null","95","","","","","","","","","","","","","","","",""
"","ITI","","html-keyboard-response","542","447597","0.0-1.0-864.0","0","0","47162","","44","","","75","95","","","","","","","","","","","","","","","k",""
"","block_over","","html-keyboard-response","543","453403","0.0-1.0-865.0-0.0","0","0","47162","","5793","","","32","95","","","","","","","","","","","","","","","",""
"","S1","","html-keyboard-response","544","453659","0.0-1.0-866.0","0","0","47162","","null","","","null","96","","","","","","","","","","","","","","","",""
"","ISI","","html-keyboard-response","545","454169","0.0-1.0-867.0","0","0","47162","","299","","","75","96","k","","","","","","","","","","","","","","",""
"","S2","","html-keyboard-response","546","454184","0.0-1.0-868.0","0","0","47162","","3","","","68","96","","d","3","96","training","adjacent","DE","4","5","R.jpg","P.jpg","1","1","1","",""
"","feedback","","html-keyboard-response","547","455218","0.0-1.0-870.0-0.0","0","0","47162","","null","","","null","96","","","","","","","","","","","","","","","",""
"","ITI","","html-keyboard-response","548","456350","0.0-1.0-873.0","0","0","47162","","19","","","75","96","","","","","","","","","","","","","","","k",""
"","S1","","html-keyboard-response","549","456608","0.0-1.0-875.0","0","0","47162","","null","","","null","97","","","","","","","","","","","","","","","",""
"","ISI","","html-keyboard-response","550","457168","0.0-1.0-876.0","0","0","47162","","52","","","68","97","d","","","","","","","","","","","","","","",""
"","S2","","html-keyboard-response","551","457263","0.0-1.0-877.0","0","0","47162","","82","","","75","97","","k","3","97","training","adjacent","DC","4","3","R.jpg","N.jpg","0","0","1","",""
"","feedback","","html-keyboard-response","552","458284","0.0-1.0-879.0-0.0","0","0","47162","","null","","","null","97","","","","","","","","","","","","","","","",""
"","ITI","","html-keyboard-response","553","459295","0.0-1.0-882.0","0","0","47162","","37","","","75","97","","","","","","","","","","","","","","","k",""
"","S1","","html-keyboard-response","554","459563","0.0-1.0-884.0","0","0","47162","","null","","","null","98","","","","","","","","","","","","","","","",""
"","ISI","","html-keyboard-response","555","460078","0.0-1.0-885.0","0","0","47162","","105","","","75","98","k","","","","","","","","","","","","","","",""
"","S2","","html-keyboard-response","556","460163","0.0-1.0-886.0","0","0","47162","","81","","","68","98","","d","3","98","training","adjacent","CB","3","2","N.jpg","L.jpg","1","0","0","",""
"","feedback","","html-keyboard-response","557","461174","0.0-1.0-888.0-0.0","0","0","47162","","null","","","null","98","","","","","","","","","","","","","","","",""
"","time_out","","html-keyboard-response","558","463183","0.0-1.0-890.0-0.0","0","0","47162","","null","","","null","98","","","","","","","","","","","","","","","",""
"","ITI","","html-keyboard-response","559","464189","0.0-1.0-891.0","0","0","47162","","96","","","68","98","","","","","","","","","","","","","","","d",""
"","S1","","html-keyboard-response","560","464445","0.0-1.0-893.0","0","0","47162","","null","","","null","99","","","","","","","","","","","","","","","",""
"","ISI","","html-keyboard-response","561","464955","0.0-1.0-894.0","0","0","47162","","53","","","75","99","k","","","","","","","","","","","","","","",""
"","S2","","html-keyboard-response","562","465007","0.0-1.0-895.0","0","0","47162","","44","","","75","99","","k","3","99","training","adjacent","FG","6","7","Q.jpg","O.jpg","0","1","0","",""
"","feedback","","html-keyboard-response","563","466105","0.0-1.0-897.0-0.0","0","0","47162","","null","","","null","99","","","","","","","","","","","","","","","",""
"","time_out","","html-keyboard-response","564","468120","0.0-1.0-899.0-0.0","0","0","47162","","null","","","null","99","","","","","","","","","","","","","","","",""
"","ITI","","html-keyboard-response","565","469127","0.0-1.0-900.0","0","0","47162","","58","","","68","99","","","","","","","","","","","","","","","d",""
"","S1","","html-keyboard-response","566","469382","0.0-1.0-902.0","0","0","47162","","null","","","null","100","","","","","","","","","","","","","","","",""
"","ISI","","html-keyboard-response","567","469887","0.0-1.0-903.0","0","0","47162","","72","","","75","100","k","","","","","","","","","","","","","","",""
"","S2","","html-keyboard-response","568","469999","0.0-1.0-904.0","0","0","47162","","102","","","75","100","","k","3","100","training","adjacent","GF","7","6","O.jpg","Q.jpg","0","0","1","",""
"","feedback","","html-keyboard-response","569","471005","0.0-1.0-906.0-0.0","0","0","47162","","null","","","null","100","","","","","","","","","","","","","","","",""
"","ITI","","html-keyboard-response","570","472010","0.0-1.0-909.0","0","0","47162","","93","","","68","100","","","","","","","","","","","","","","","d",""
"","S1","","html-keyboard-response","571","472273","0.0-1.0-911.0","0","0","47162","","null","","","null","101","","","","","","","","","","","","","","","",""
"","ISI","","html-keyboard-response","572","472779","0.0-1.0-912.0","0","0","47162","","88","","","75","101","k","","","","","","","","","","","","","","",""
"","S2","","html-keyboard-response","573","472786","0.0-1.0-913.0","0","0","47162","","1","","","75","101","","k","3","101","training","adjacent","DC","4","3","R.jpg","N.jpg","0","0","1","",""
"","feedback","","html-keyboard-response","574","473794","0.0-1.0-915.0-0.0","0","0","47162","","null","","","null","101","","","","","","","","","","","","","","","",""
"","ITI","","html-keyboard-response","575","474838","0.0-1.0-918.0","0","0","47162","","18","","","75","101","","","","","","","","","","","","","","","k",""
"","S1","","html-keyboard-response","576","475093","0.0-1.0-920.0","0","0","47162","","null","","","null","102","","","","","","","","","","","","","","","",""
"","ISI","","html-keyboard-response","577","475599","0.0-1.0-921.0","0","0","47162","","16","","","68","102","d","","","","","","","","","","","","","","",""
"","S2","","html-keyboard-response","578","475612","0.0-1.0-922.0","0","0","47162","","8","","","68","102","","d","3","102","training","adjacent","GF","7","6","O.jpg","Q.jpg","1","0","0","",""
"","feedback","","html-keyboard-response","579","476619","0.0-1.0-924.0-0.0","0","0","47162","","null","","","null","102","","","","","","","","","","","","","","","",""
"","time_out","","html-keyboard-response","580","478629","0.0-1.0-926.0-0.0","0","0","47162","","null","","","null","102","","","","","","","","","","","","","","","",""
"","ITI","","html-keyboard-response","581","479644","0.0-1.0-927.0","0","0","47162","","68","","","68","102","","","","","","","","","","","","","","","d",""
"","S1","","html-keyboard-response","582","479901","0.0-1.0-929.0","0","0","47162","","null","","","null","103","","","","","","","","","","","","","","","",""
"","ISI","","html-keyboard-response","583","480412","0.0-1.0-930.0","0","0","47162","","23","","","75","103","k","","","","","","","","","","","","","","",""
"","S2","","html-keyboard-response","584","480497","0.0-1.0-931.0","0","0","47162","","79","","","75","103","","k","3","103","training","adjacent","FE","6","5","Q.jpg","P.jpg","0","0","1","",""
"","feedback","","html-keyboard-response","585","481503","0.0-1.0-933.0-0.0","0","0","47162","","null","","","null","103","","","","","","","","","","","","","","","",""
"","ITI","","html-keyboard-response","586","482545","0.0-1.0-936.0","0","0","47162","","81","","","75","103","","","","","","","","","","","","","","","k",""
"","S1","","html-keyboard-response","587","482815","0.0-1.0-938.0","0","0","47162","","null","","","null","104","","","","","","","","","","","","","","","",""
"","ISI","","html-keyboard-response","588","483320","0.0-1.0-939.0","0","0","47162","","53","","","75","104","k","","","","","","","","","","","","","","",""
"","S2","","html-keyboard-response","589","483391","0.0-1.0-940.0","0","0","47162","","61","","","68","104","","d","3","104","training","adjacent","FE","6","5","Q.jpg","P.jpg","1","0","0","",""
"","feedback","","html-keyboard-response","590","484399","0.0-1.0-942.0-0.0","0","0","47162","","null","","","null","104","","","","","","","","","","","","","","","",""
"","time_out","","html-keyboard-response","591","486410","0.0-1.0-944.0-0.0","0","0","47162","","null","","","null","104","","","","","","","","","","","","","","","",""
