"success","ttype","start_time","trial_type","trial_index","time_elapsed","internal_node_id","warning","missed_checkup","PID","view_history","rt","responses","repeat_instructions","key_press","index","keypress_isi","keypress_S2","block","trial_num","phase","group_type","pair_type","S1_stim","S2_stim","S1_img","S2_img","S1_chosen","S1_higher","accuracy","keypress_iti","total_bonus_tally"
"true","full_screen","d04132023hr2000","fullscreen","0","6834","0.0-0.0","0","0","91251","","","","","","","","","","","","","","","","","","","","","",""
"","instructions","","instructions","1","32951","0.0-1.0-0.0-0.0","0","0","91251","[{""page_index"":0,""viewing_time"":6179},{""page_index"":1,""viewing_time"":4854},{""page_index"":2,""viewing_time"":1432},{""page_index"":3,""viewing_time"":2161},{""page_index"":2,""viewing_time"":647},{""page_index"":1,""viewing_time"":8590},{""page_index"":2,""viewing_time"":725},{""page_index"":3,""viewing_time"":1524}]","26113","","","","","","","","","","","","","","","","","","","",""
"","comprehension_check","","survey-multi-choice","2","77101","0.0-1.0-0.0-1.0","0","0","91251","","44129","{""Q0"":""False"",""Q1"":""K"",""Q2"":""Once the second image appears and while the screen 'MAKE A CHOICE' is shown"",""Q3"":""Green mark"",""Q4"":""either D or K""}","1","","","","","","","","","","","","","","","","","",""
"","missed_instruction_checkup","","html-keyboard-response","3","80053","0.0-1.0-0.0-2.0-0.0","0","1","91251","","2938","","","32","","","","","","","","","","","","","","","","",""
"","instructions","","instructions","4","102758","0.0-1.0-0.1-0.1","0","0","91251","[{""page_index"":0,""viewing_time"":5285},{""page_index"":1,""viewing_time"":10578},{""page_index"":2,""viewing_time"":5598},{""page_index"":3,""viewing_time"":1236}]","22698","","","","","","","","","","","","","","","","","","","",""
"","comprehension_check","","survey-multi-choice","5","128829","0.0-1.0-0.1-1.1","0","0","91251","","26054","{""Q0"":""True"",""Q1"":""K"",""Q2"":""Once the second image appears and while the screen 'MAKE A CHOICE' is shown"",""Q3"":""Green mark"",""Q4"":""either D or K""}","0","","","","","","","","","","","","","","","","","",""
"","start_exp","","html-keyboard-response","6","131221","0.0-1.0-1.0","0","0","91251","","2384","","","32","","","","","","","","","","","","","","","","",""
"","S1","","html-keyboard-response","7","131492","0.0-1.0-2.0","0","0","91251","","null","","","null","0","","","","","","","","","","","","","","","",""
"","ISI","","html-keyboard-response","8","132507","0.0-1.0-3.0","0","0","91251","","null","","","null","0","NaN","","","","","","","","","","","","","","",""
"","S2","","html-keyboard-response","9","132774","0.0-1.0-4.0","0","0","91251","","null","","","null","0","","NaN","","","","","","","","","","","","","",""
"","response","","html-keyboard-response","10","134555","0.0-1.0-5.0-0.0","0","0","91251","","null","","","null","0","","","1","0","training","adjacent","CD","3","4","Q.jpg","O.jpg","NaN","1","0","",""
"","too_slow_prompt","","html-keyboard-response","11","135570","0.0-1.0-7.0-0.0","1","0","91251","","null","","","null","","","","","","","","","","","","","","","","",""
"","time_out","","html-keyboard-response","12","137584","0.0-1.0-8.0-0.0","0","0","91251","","null","","","null","0","","","","","","","","","","","","","","","",""
"","ITI","","html-keyboard-response","13","138599","0.0-1.0-9.0","0","0","91251","","null","","","null","0","","","","","","","","","","","","","","","NaN",""
"","S1","","html-keyboard-response","14","138865","0.0-1.0-11.0","0","0","91251","","null","","","null","1","","","","","","","","","","","","","","","",""
"","ISI","","html-keyboard-response","15","139881","0.0-1.0-12.0","0","0","91251","","197","","","75","1","k","","","","","","","","","","","","","","",""
"","S2","","html-keyboard-response","16","140146","0.0-1.0-13.0","0","0","91251","","null","","","null","1","","NaN","","","","","","","","","","","","","",""
"","response","","html-keyboard-response","17","140308","0.0-1.0-14.0-0.0","0","0","91251","","155","","","75","1","","","1","1","training","adjacent","ED","5","4","M.jpg","O.jpg","1","0","0","",""
"","feedback","","html-keyboard-response","18","141318","0.0-1.0-15.0-0.0","0","0","91251","","null","","","null","1","","","","","","","","","","","","","","","",""
"","time_out","","html-keyboard-response","19","143333","0.0-1.0-17.0-0.0","0","0","91251","","null","","","null","1","","","","","","","","","","","","","","","",""
"","ITI","","html-keyboard-response","20","144348","0.0-1.0-18.0","0","0","91251","","null","","","null","1","","","","","","","","","","","","","","","NaN",""
"","S1","","html-keyboard-response","21","144614","0.0-1.0-20.0","0","0","91251","","null","","","null","2","","","","","","","","","","","","","","","",""
"","ISI","","html-keyboard-response","22","145645","0.0-1.0-21.0","0","0","91251","","null","","","null","2","NaN","","","","","","","","","","","","","","",""
"","S2","","html-keyboard-response","23","145927","0.0-1.0-22.0","0","0","91251","","null","","","null","2","","NaN","","","","","","","","","","","","","",""
"","response","","html-keyboard-response","24","146324","0.0-1.0-23.0-0.0","0","0","91251","","392","","","68","2","","","1","2","training","adjacent","GF","7","6","N.jpg","P.jpg","0","0","1","",""
"","feedback","","html-keyboard-response","25","147333","0.0-1.0-24.0-0.0","0","0","91251","","null","","","null","2","","","","","","","","","","","","","","","",""
"","ITI","","html-keyboard-response","26","148348","0.0-1.0-27.0","0","0","91251","","null","","","null","2","","","","","","","","","","","","","","","NaN",""
"","S1","","html-keyboard-response","27","148614","0.0-1.0-29.0","0","0","91251","","null","","","null","3","","","","","","","","","","","","","","","",""
"","ISI","","html-keyboard-response","28","149629","0.0-1.0-30.0","0","0","91251","","null","","","null","3","NaN","","","","","","","","","","","","","","",""
"","S2","","html-keyboard-response","29","149895","0.0-1.0-31.0","0","0","91251","","null","","","null","3","","NaN","","","","","","","","","","","","","",""
"","response","","html-keyboard-response","30","150088","0.0-1.0-32.0-0.0","0","0","91251","","188","","","75","3","","","1","3","training","adjacent","BA","2","1","L.jpg","R.jpg","1","0","0","",""
"","feedback","","html-keyboard-response","31","151098","0.0-1.0-33.0-0.0","0","0","91251","","null","","","null","3","","","","","","","","","","","","","","","",""
"","time_out","","html-keyboard-response","32","153112","0.0-1.0-35.0-0.0","0","0","91251","","null","","","null","3","","","","","","","","","","","","","","","",""
"","ITI","","html-keyboard-response","33","154143","0.0-1.0-36.0","0","0","91251","","null","","","null","3","","","","","","","","","","","","","","","NaN",""
"","S1","","html-keyboard-response","34","154409","0.0-1.0-38.0","0","0","91251","","null","","","null","4","","","","","","","","","","","","","","","",""
"","ISI","","html-keyboard-response","35","155425","0.0-1.0-39.0","0","0","91251","","12","","","68","4","d","","","","","","","","","","","","","","",""
"","S2","","html-keyboard-response","36","155690","0.0-1.0-40.0","0","0","91251","","null","","","null","4","","NaN","","","","","","","","","","","","","",""
"","response","","html-keyboard-response","37","156026","0.0-1.0-41.0-0.0","0","0","91251","","331","","","68","4","","","1","4","training","adjacent","DC","4","3","O.jpg","Q.jpg","0","0","1","",""
"","feedback","","html-keyboard-response","38","157049","0.0-1.0-42.0-0.0","0","0","91251","","null","","","null","4","","","","","","","","","","","","","","","",""
"","ITI","","html-keyboard-response","39","158064","0.0-1.0-45.0","0","0","91251","","null","","","null","4","","","","","","","","","","","","","","","NaN",""
"","S1","","html-keyboard-response","40","158329","0.0-1.0-47.0","0","0","91251","","null","","","null","5","","","","","","","","","","","","","","","",""
"","ISI","","html-keyboard-response","41","159345","0.0-1.0-48.0","0","0","91251","","null","","","null","5","NaN","","","","","","","","","","","","","","",""
"","S2","","html-keyboard-response","42","159626","0.0-1.0-49.0","0","0","91251","","null","","","null","5","","NaN","","","","","","","","","","","","","",""
"","response","","html-keyboard-response","43","160658","0.0-1.0-50.0-0.0","0","0","91251","","1027","","","75","5","","","1","5","training","adjacent","DC","4","3","O.jpg","Q.jpg","1","0","0","",""
"","feedback","","html-keyboard-response","44","161672","0.0-1.0-51.0-0.0","0","0","91251","","null","","","null","5","","","","","","","","","","","","","","","",""
"","time_out","","html-keyboard-response","45","163687","0.0-1.0-53.0-0.0","0","0","91251","","null","","","null","5","","","","","","","","","","","","","","","",""
"","ITI","","html-keyboard-response","46","164703","0.0-1.0-54.0","0","0","91251","","null","","","null","5","","","","","","","","","","","","","","","NaN",""
"","S1","","html-keyboard-response","47","164969","0.0-1.0-56.0","0","0","91251","","null","","","null","6","","","","","","","","","","","","","","","",""
"","ISI","","html-keyboard-response","48","165983","0.0-1.0-57.0","0","0","91251","","null","","","null","6","NaN","","","","","","","","","","","","","","",""
"","S2","","html-keyboard-response","49","166264","0.0-1.0-58.0","0","0","91251","","null","","","null","6","","NaN","","","","","","","","","","","","","",""
"","response","","html-keyboard-response","50","166645","0.0-1.0-59.0-0.0","0","0","91251","","375","","","68","6","","","1","6","training","adjacent","AB","1","2","R.jpg","L.jpg","0","1","0","",""
"","feedback","","html-keyboard-response","51","167655","0.0-1.0-60.0-0.0","0","0","91251","","null","","","null","6","","","","","","","","","","","","","","","",""
"","time_out","","html-keyboard-response","52","169669","0.0-1.0-62.0-0.0","0","0","91251","","null","","","null","6","","","","","","","","","","","","","","","",""
"","ITI","","html-keyboard-response","53","170686","0.0-1.0-63.0","0","0","91251","","null","","","null","6","","","","","","","","","","","","","","","NaN",""
"","S1","","html-keyboard-response","54","170951","0.0-1.0-65.0","0","0","91251","","null","","","null","7","","","","","","","","","","","","","","","",""
"","ISI","","html-keyboard-response","55","171998","0.0-1.0-66.0","0","0","91251","","null","","","null","7","NaN","","","","","","","","","","","","","","",""
"","S2","","html-keyboard-response","56","172294","0.0-1.0-67.0","0","0","91251","","null","","","null","7","","NaN","","","","","","","","","","","","","",""
"","response","","html-keyboard-response","57","172375","0.0-1.0-68.0-0.0","0","0","91251","","75","","","68","7","","","1","7","training","adjacent","AB","1","2","R.jpg","L.jpg","0","1","0","",""
"","feedback","","html-keyboard-response","58","173387","0.0-1.0-69.0-0.0","0","0","91251","","null","","","null","7","","","","","","","","","","","","","","","",""
"","time_out","","html-keyboard-response","59","175403","0.0-1.0-71.0-0.0","0","0","91251","","null","","","null","7","","","","","","","","","","","","","","","",""
"","ITI","","html-keyboard-response","60","176418","0.0-1.0-72.0","0","0","91251","","null","","","null","7","","","","","","","","","","","","","","","NaN",""
"","S1","","html-keyboard-response","61","176683","0.0-1.0-74.0","0","0","91251","","null","","","null","8","","","","","","","","","","","","","","","",""
"","ISI","","html-keyboard-response","62","177712","0.0-1.0-75.0","0","0","91251","","null","","","null","8","NaN","","","","","","","","","","","","","","",""
"","S2","","html-keyboard-response","63","177995","0.0-1.0-76.0","0","0","91251","","null","","","null","8","","NaN","","","","","","","","","","","","","",""
"","response","","html-keyboard-response","64","178252","0.0-1.0-77.0-0.0","0","0","91251","","252","","","75","8","","","1","8","training","adjacent","AB","1","2","R.jpg","L.jpg","1","1","1","",""
"","feedback","","html-keyboard-response","65","179260","0.0-1.0-78.0-0.0","0","0","91251","","null","","","null","8","","","","","","","","","","","","","","","",""
"","ITI","","html-keyboard-response","66","180276","0.0-1.0-81.0","0","0","91251","","null","","","null","8","","","","","","","","","","","","","","","NaN",""
"","S1","","html-keyboard-response","67","180542","0.0-1.0-83.0","0","0","91251","","null","","","null","9","","","","","","","","","","","","","","","",""
"","ISI","","html-keyboard-response","68","181555","0.0-1.0-84.0","0","0","91251","","null","","","null","9","NaN","","","","","","","","","","","","","","",""
"","S2","","html-keyboard-response","69","181823","0.0-1.0-85.0","0","0","91251","","null","","","null","9","","NaN","","","","","","","","","","","","","",""
"","response","","html-keyboard-response","70","182030","0.0-1.0-86.0-0.0","0","0","91251","","202","","","75","9","","","1","9","training","adjacent","GF","7","6","N.jpg","P.jpg","1","0","0","",""
"","feedback","","html-keyboard-response","71","183041","0.0-1.0-87.0-0.0","0","0","91251","","null","","","null","9","","","","","","","","","","","","","","","",""
"","time_out","","html-keyboard-response","72","185073","0.0-1.0-89.0-0.0","0","0","91251","","null","","","null","9","","","","","","","","","","","","","","","",""
"","ITI","","html-keyboard-response","73","186087","0.0-1.0-90.0","0","0","91251","","null","","","null","9","","","","","","","","","","","","","","","NaN",""
"","S1","","html-keyboard-response","74","186353","0.0-1.0-92.0","0","0","91251","","null","","","null","10","","","","","","","","","","","","","","","",""
"","ISI","","html-keyboard-response","75","187384","0.0-1.0-93.0","0","0","91251","","null","","","null","10","NaN","","","","","","","","","","","","","","",""
"","S2","","html-keyboard-response","76","187647","0.0-1.0-94.0","0","0","91251","","null","","","null","10","","NaN","","","","","","","","","","","","","",""
"","response","","html-keyboard-response","77","187761","0.0-1.0-95.0-0.0","0","0","91251","","111","","","68","10","","","1","10","training","adjacent","BA","2","1","L.jpg","R.jpg","0","0","1","",""
"","feedback","","html-keyboard-response","78","188774","0.0-1.0-96.0-0.0","0","0","91251","","null","","","null","10","","","","","","","","","","","","","","","",""
"","ITI","","html-keyboard-response","79","189788","0.0-1.0-99.0","0","0","91251","","null","","","null","10","","","","","","","","","","","","","","","NaN",""
"","S1","","html-keyboard-response","80","190056","0.0-1.0-101.0","0","0","91251","","null","","","null","11","","","","","","","","","","","","","","","",""
"","ISI","","html-keyboard-response","81","191074","0.0-1.0-102.0","0","0","91251","","null","","","null","11","NaN","","","","","","","","","","","","","","",""
"","S2","","html-keyboard-response","82","191341","0.0-1.0-103.0","0","0","91251","","null","","","null","11","","NaN","","","","","","","","","","","","","",""
"","response","","html-keyboard-response","83","191757","0.0-1.0-104.0-0.0","0","0","91251","","413","","","68","11","","","1","11","training","adjacent","FE","6","5","P.jpg","M.jpg","0","0","1","",""
"","feedback","","html-keyboard-response","84","192766","0.0-1.0-105.0-0.0","0","0","91251","","null","","","null","11","","","","","","","","","","","","","","","",""
"","ITI","","html-keyboard-response","85","193800","0.0-1.0-108.0","0","0","91251","","null","","","null","11","","","","","","","","","","","","","","","NaN",""
"","S1","","html-keyboard-response","86","194067","0.0-1.0-110.0","0","0","91251","","null","","","null","12","","","","","","","","","","","","","","","",""
"","ISI","","html-keyboard-response","87","195084","0.0-1.0-111.0","0","0","91251","","null","","","null","12","NaN","","","","","","","","","","","","","","",""
"","S2","","html-keyboard-response","88","195365","0.0-1.0-112.0","0","0","91251","","null","","","null","12","","NaN","","","","","","","","","","","","","",""
"","response","","html-keyboard-response","89","195581","0.0-1.0-113.0-0.0","0","0","91251","","212","","","75","12","","","1","12","training","adjacent","DE","4","5","O.jpg","M.jpg","1","1","1","",""
"","feedback","","html-keyboard-response","90","196601","0.0-1.0-114.0-0.0","0","0","91251","","null","","","null","12","","","","","","","","","","","","","","","",""
"","ITI","","html-keyboard-response","91","197615","0.0-1.0-117.0","0","0","91251","","null","","","null","12","","","","","","","","","","","","","","","NaN",""
"","S1","","html-keyboard-response","92","197881","0.0-1.0-119.0","0","0","91251","","null","","","null","13","","","","","","","","","","","","","","","",""
"","ISI","","html-keyboard-response","93","198897","0.0-1.0-120.0","0","0","91251","","null","","","null","13","NaN","","","","","","","","","","","","","","",""
"","S2","","html-keyboard-response","94","199163","0.0-1.0-121.0","0","0","91251","","null","","","null","13","","NaN","","","","","","","","","","","","","",""
"","response","","html-keyboard-response","95","199420","0.0-1.0-122.0-0.0","0","0","91251","","252","","","68","13","","","1","13","training","adjacent","ED","5","4","M.jpg","O.jpg","0","0","1","",""
"","feedback","","html-keyboard-response","96","200428","0.0-1.0-123.0-0.0","0","0","91251","","null","","","null","13","","","","","","","","","","","","","","","",""
"","ITI","","html-keyboard-response","97","201443","0.0-1.0-126.0","0","0","91251","","null","","","null","13","","","","","","","","","","","","","","","NaN",""
"","S1","","html-keyboard-response","98","201725","0.0-1.0-128.0","0","0","91251","","null","","","null","14","","","","","","","","","","","","","","","",""
"","ISI","","html-keyboard-response","99","202743","0.0-1.0-129.0","0","0","91251","","null","","","null","14","NaN","","","","","","","","","","","","","","",""
"","S2","","html-keyboard-response","100","203012","0.0-1.0-130.0","0","0","91251","","null","","","null","14","","NaN","","","","","","","","","","","","","",""
"","response","","html-keyboard-response","101","203178","0.0-1.0-131.0-0.0","0","0","91251","","160","","","68","14","","","1","14","training","adjacent","CD","3","4","Q.jpg","O.jpg","0","1","0","",""
"","feedback","","html-keyboard-response","102","204190","0.0-1.0-132.0-0.0","0","0","91251","","null","","","null","14","","","","","","","","","","","","","","","",""
"","time_out","","html-keyboard-response","103","206206","0.0-1.0-134.0-0.0","0","0","91251","","null","","","null","14","","","","","","","","","","","","","","","",""
"","ITI","","html-keyboard-response","104","207222","0.0-1.0-135.0","0","0","91251","","null","","","null","14","","","","","","","","","","","","","","","NaN",""
"","S1","","html-keyboard-response","105","207488","0.0-1.0-137.0","0","0","91251","","null","","","null","15","","","","","","","","","","","","","","","",""
"","ISI","","html-keyboard-response","106","208503","0.0-1.0-138.0","0","0","91251","","42","","","75","15","k","","","","","","","","","","","","","","",""
"","S2","","html-keyboard-response","107","208769","0.0-1.0-139.0","0","0","91251","","null","","","null","15","","NaN","","","","","","","","","","","","","",""
"","response","","html-keyboard-response","108","209036","0.0-1.0-140.0-0.0","0","0","91251","","262","","","75","15","","","1","15","training","adjacent","FE","6","5","P.jpg","M.jpg","1","0","0","",""
"","feedback","","html-keyboard-response","109","210050","0.0-1.0-141.0-0.0","0","0","91251","","null","","","null","15","","","","","","","","","","","","","","","",""
"","time_out","","html-keyboard-response","110","212064","0.0-1.0-143.0-0.0","0","0","91251","","null","","","null","15","","","","","","","","","","","","","","","",""
"","ITI","","html-keyboard-response","111","213079","0.0-1.0-144.0","0","0","91251","","null","","","null","15","","","","","","","","","","","","","","","NaN",""
"","S1","","html-keyboard-response","112","213345","0.0-1.0-146.0","0","0","91251","","null","","","null","16","","","","","","","","","","","","","","","",""
"","ISI","","html-keyboard-response","113","214360","0.0-1.0-147.0","0","0","91251","","29","","","68","16","d","","","","","","","","","","","","","","",""
"","S2","","html-keyboard-response","114","214611","0.0-1.0-148.0","0","0","91251","","245","","","68","16","","d","1","16","training","adjacent","ED","5","4","M.jpg","O.jpg","0","0","1","",""
"","feedback","","html-keyboard-response","115","215624","0.0-1.0-150.0-0.0","0","0","91251","","null","","","null","16","","","","","","","","","","","","","","","",""
"","ITI","","html-keyboard-response","116","216640","0.0-1.0-153.0","0","0","91251","","null","","","null","16","","","","","","","","","","","","","","","NaN",""
"","S1","","html-keyboard-response","117","216905","0.0-1.0-155.0","0","0","91251","","null","","","null","17","","","","","","","","","","","","","","","",""
"","ISI","","html-keyboard-response","118","217921","0.0-1.0-156.0","0","0","91251","","674","","","75","17","k","","","","","","","","","","","","","","",""
"","S2","","html-keyboard-response","119","218187","0.0-1.0-157.0","0","0","91251","","null","","","null","17","","NaN","","","","","","","","","","","","","",""
"","response","","html-keyboard-response","120","218471","0.0-1.0-158.0-0.0","0","0","91251","","279","","","75","17","","","1","17","training","adjacent","EF","5","6","M.jpg","P.jpg","1","1","1","",""
"","feedback","","html-keyboard-response","121","219485","0.0-1.0-159.0-0.0","0","0","91251","","null","","","null","17","","","","","","","","","","","","","","","",""
"","ITI","","html-keyboard-response","122","220501","0.0-1.0-162.0","0","0","91251","","null","","","null","17","","","","","","","","","","","","","","","NaN",""
"","S1","","html-keyboard-response","123","220768","0.0-1.0-164.0","0","0","91251","","null","","","null","18","","","","","","","","","","","","","","","",""
"","ISI","","html-keyboard-response","124","221785","0.0-1.0-165.0","0","0","91251","","null","","","null","18","NaN","","","","","","","","","","","","","","",""
"","S2","","html-keyboard-response","125","222040","0.0-1.0-166.0","0","0","91251","","251","","","75","18","","k","1","18","training","adjacent","DE","4","5","O.jpg","M.jpg","1","1","1","",""
"","feedback","","html-keyboard-response","126","223051","0.0-1.0-168.0-0.0","0","0","91251","","null","","","null","18","","","","","","","","","","","","","","","",""
"","ITI","","html-keyboard-response","127","224066","0.0-1.0-171.0","0","0","91251","","null","","","null","18","","","","","","","","","","","","","","","NaN",""
"","S1","","html-keyboard-response","128","224332","0.0-1.0-173.0","0","0","91251","","null","","","null","19","","","","","","","","","","","","","","","",""
"","ISI","","html-keyboard-response","129","225347","0.0-1.0-174.0","0","0","91251","","524","","","75","19","k","","","","","","","","","","","","","","",""
"","S2","","html-keyboard-response","130","225613","0.0-1.0-175.0","0","0","91251","","null","","","null","19","","NaN","","","","","","","","","","","","","",""
"","response","","html-keyboard-response","131","225642","0.0-1.0-176.0-0.0","0","0","91251","","25","","","75","19","","","1","19","training","adjacent","AB","1","2","R.jpg","L.jpg","1","1","1","",""
"","feedback","","html-keyboard-response","132","226659","0.0-1.0-177.0-0.0","0","0","91251","","null","","","null","19","","","","","","","","","","","","","","","",""
"","ITI","","html-keyboard-response","133","227682","0.0-1.0-180.0","0","0","91251","","null","","","null","19","","","","","","","","","","","","","","","NaN",""
"","S1","","html-keyboard-response","134","227940","0.0-1.0-182.0","0","0","91251","","null","","","null","20","","","","","","","","","","","","","","","",""
"","ISI","","html-keyboard-response","135","228956","0.0-1.0-183.0","0","0","91251","","144","","","75","20","k","","","","","","","","","","","","","","",""
"","S2","","html-keyboard-response","136","229221","0.0-1.0-184.0","0","0","91251","","null","","","null","20","","NaN","","","","","","","","","","","","","",""
"","response","","html-keyboard-response","137","229243","0.0-1.0-185.0-0.0","0","0","91251","","18","","","68","20","","","1","20","training","adjacent","BA","2","1","L.jpg","R.jpg","0","0","1","",""
"","feedback","","html-keyboard-response","138","230279","0.0-1.0-186.0-0.0","0","0","91251","","null","","","null","20","","","","","","","","","","","","","","","",""
"","ITI","","html-keyboard-response","139","231301","0.0-1.0-189.0","0","0","91251","","null","","","null","20","","","","","","","","","","","","","","","NaN",""
"","S1","","html-keyboard-response","140","231576","0.0-1.0-191.0","0","0","91251","","null","","","null","21","","","","","","","","","","","","","","","",""
"","ISI","","html-keyboard-response","141","232627","0.0-1.0-192.0","0","0","91251","","null","","","null","21","NaN","","","","","","","","","","","","","","",""
"","S2","","html-keyboard-response","142","232922","0.0-1.0-193.0","0","0","91251","","null","","","null","21","","NaN","","","","","","","","","","","","","",""
"","response","","html-keyboard-response","143","232988","0.0-1.0-194.0-0.0","0","0","91251","","59","","","75","21","","","1","21","training","adjacent","CD","3","4","Q.jpg","O.jpg","1","1","1","",""
"","feedback","","html-keyboard-response","144","234000","0.0-1.0-195.0-0.0","0","0","91251","","null","","","null","21","","","","","","","","","","","","","","","",""
"","ITI","","html-keyboard-response","145","235016","0.0-1.0-198.0","0","0","91251","","null","","","null","21","","","","","","","","","","","","","","","NaN",""
"","S1","","html-keyboard-response","146","235282","0.0-1.0-200.0","0","0","91251","","null","","","null","22","","","","","","","","","","","","","","","",""
"","ISI","","html-keyboard-response","147","236296","0.0-1.0-201.0","0","0","91251","","null","","","null","22","NaN","","","","","","","","","","","","","","",""
"","S2","","html-keyboard-response","148","236562","0.0-1.0-202.0","0","0","91251","","null","","","null","22","","NaN","","","","","","","","","","","","","",""
"","response","","html-keyboard-response","149","236721","0.0-1.0-203.0-0.0","0","0","91251","","154","","","68","22","","","1","22","training","adjacent","CB","3","2","Q.jpg","L.jpg","0","0","1","",""
"","feedback","","html-keyboard-response","150","237734","0.0-1.0-204.0-0.0","0","0","91251","","null","","","null","22","","","","","","","","","","","","","","","",""
"","ITI","","html-keyboard-response","151","238765","0.0-1.0-207.0","0","0","91251","","null","","","null","22","","","","","","","","","","","","","","","NaN",""
"","S1","","html-keyboard-response","152","239035","0.0-1.0-209.0","0","0","91251","","null","","","null","23","","","","","","","","","","","","","","","",""
"","ISI","","html-keyboard-response","153","240067","0.0-1.0-210.0","0","0","91251","","null","","","null","23","NaN","","","","","","","","","","","","","","",""
"","S2","","html-keyboard-response","154","240367","0.0-1.0-211.0","0","0","91251","","null","","","null","23","","NaN","","","","","","","","","","","","","",""
"","response","","html-keyboard-response","155","240679","0.0-1.0-212.0-0.0","0","0","91251","","307","","","75","23","","","1","23","training","adjacent","EF","5","6","M.jpg","P.jpg","1","1","1","",""
"","feedback","","html-keyboard-response","156","241690","0.0-1.0-213.0-0.0","0","0","91251","","null","","","null","23","","","","","","","","","","","","","","","",""
"","ITI","","html-keyboard-response","157","242711","0.0-1.0-216.0","0","0","91251","","null","","","null","23","","","","","","","","","","","","","","","NaN",""
"","S1","","html-keyboard-response","158","242979","0.0-1.0-218.0","0","0","91251","","null","","","null","24","","","","","","","","","","","","","","","",""
"","ISI","","html-keyboard-response","159","243998","0.0-1.0-219.0","0","0","91251","","null","","","null","24","NaN","","","","","","","","","","","","","","",""
"","S2","","html-keyboard-response","160","244266","0.0-1.0-220.0","0","0","91251","","null","","","null","24","","NaN","","","","","","","","","","","","","",""
"","response","","html-keyboard-response","161","244406","0.0-1.0-221.0-0.0","0","0","91251","","133","","","75","24","","","1","24","training","adjacent","FE","6","5","P.jpg","M.jpg","1","0","0","",""
"","feedback","","html-keyboard-response","162","245421","0.0-1.0-222.0-0.0","0","0","91251","","null","","","null","24","","","","","","","","","","","","","","","",""
"","time_out","","html-keyboard-response","163","247436","0.0-1.0-224.0-0.0","0","0","91251","","null","","","null","24","","","","","","","","","","","","","","","",""
"","ITI","","html-keyboard-response","164","248451","0.0-1.0-225.0","0","0","91251","","34","","","68","24","","","","","","","","","","","","","","","d",""
"","S1","","html-keyboard-response","165","248718","0.0-1.0-227.0","0","0","91251","","null","","","null","25","","","","","","","","","","","","","","","",""
"","ISI","","html-keyboard-response","166","249733","0.0-1.0-228.0","0","0","91251","","1","","","68","25","d","","","","","","","","","","","","","","",""
"","S2","","html-keyboard-response","167","249964","0.0-1.0-229.0","0","0","91251","","224","","","68","25","","d","1","25","training","adjacent","CB","3","2","Q.jpg","L.jpg","0","0","1","",""
"","feedback","","html-keyboard-response","168","250982","0.0-1.0-231.0-0.0","0","0","91251","","null","","","null","25","","","","","","","","","","","","","","","",""
"","ITI","","html-keyboard-response","169","251997","0.0-1.0-234.0","0","0","91251","","null","","","null","25","","","","","","","","","","","","","","","NaN",""
"","S1","","html-keyboard-response","170","252263","0.0-1.0-236.0","0","0","91251","","null","","","null","26","","","","","","","","","","","","","","","",""
"","ISI","","html-keyboard-response","171","253277","0.0-1.0-237.0","0","0","91251","","198","","","75","26","k","","","","","","","","","","","","","","",""
"","S2","","html-keyboard-response","172","253527","0.0-1.0-238.0","0","0","91251","","244","","","68","26","","d","1","26","training","adjacent","FG","6","7","P.jpg","N.jpg","0","1","0","",""
"","feedback","","html-keyboard-response","173","254544","0.0-1.0-240.0-0.0","0","0","91251","","null","","","null","26","","","","","","","","","","","","","","","",""
"","time_out","","html-keyboard-response","174","256564","0.0-1.0-242.0-0.0","0","0","91251","","null","","","null","26","","","","","","","","","","","","","","","",""
"","ITI","","html-keyboard-response","175","257578","0.0-1.0-243.0","0","0","91251","","null","","","null","26","","","","","","","","","","","","","","","NaN",""
"","S1","","html-keyboard-response","176","257844","0.0-1.0-245.0","0","0","91251","","null","","","null","27","","","","","","","","","","","","","","","",""
"","ISI","","html-keyboard-response","177","258861","0.0-1.0-246.0","0","0","91251","","26","","","75","27","k","","","","","","","","","","","","","","",""
"","S2","","html-keyboard-response","178","259126","0.0-1.0-247.0","0","0","91251","","null","","","null","27","","NaN","","","","","","","","","","","","","",""
"","response","","html-keyboard-response","179","259190","0.0-1.0-248.0-0.0","0","0","91251","","60","","","75","27","","","1","27","training","adjacent","FG","6","7","P.jpg","N.jpg","1","1","1","",""
"","feedback","","html-keyboard-response","180","260206","0.0-1.0-249.0-0.0","0","0","91251","","null","","","null","27","","","","","","","","","","","","","","","",""
"","ITI","","html-keyboard-response","181","261223","0.0-1.0-252.0","0","0","91251","","null","","","null","27","","","","","","","","","","","","","","","NaN",""
"","S1","","html-keyboard-response","182","261489","0.0-1.0-254.0","0","0","91251","","null","","","null","28","","","","","","","","","","","","","","","",""
"","ISI","","html-keyboard-response","183","262494","0.0-1.0-255.0","0","0","91251","","null","","","null","28","NaN","","","","","","","","","","","","","","",""
"","S2","","html-keyboard-response","184","262760","0.0-1.0-256.0","0","0","91251","","null","","","null","28","","NaN","","","","","","","","","","","","","",""
"","response","","html-keyboard-response","185","263230","0.0-1.0-257.0-0.0","0","0","91251","","465","","","75","28","","","1","28","training","adjacent","FG","6","7","P.jpg","N.jpg","1","1","1","",""
"","feedback","","html-keyboard-response","186","264249","0.0-1.0-258.0-0.0","0","0","91251","","null","","","null","28","","","","","","","","","","","","","","","",""
"","ITI","","html-keyboard-response","187","265253","0.0-1.0-261.0","0","0","91251","","null","","","null","28","","","","","","","","","","","","","","","NaN",""
"","S1","","html-keyboard-response","188","265520","0.0-1.0-263.0","0","0","91251","","null","","","null","29","","","","","","","","","","","","","","","",""
"","ISI","","html-keyboard-response","189","266538","0.0-1.0-264.0","0","0","91251","","null","","","null","29","NaN","","","","","","","","","","","","","","",""
"","S2","","html-keyboard-response","190","266805","0.0-1.0-265.0","0","0","91251","","null","","","null","29","","NaN","","","","","","","","","","","","","",""
"","response","","html-keyboard-response","191","267006","0.0-1.0-266.0-0.0","0","0","91251","","196","","","68","29","","","1","29","training","adjacent","DE","4","5","O.jpg","M.jpg","0","1","0","",""
"","feedback","","html-keyboard-response","192","268024","0.0-1.0-267.0-0.0","0","0","91251","","null","","","null","29","","","","","","","","","","","","","","","",""
"","time_out","","html-keyboard-response","193","270041","0.0-1.0-269.0-0.0","0","0","91251","","null","","","null","29","","","","","","","","","","","","","","","",""
"","ITI","","html-keyboard-response","194","271061","0.0-1.0-270.0","0","0","91251","","null","","","null","29","","","","","","","","","","","","","","","NaN",""
"","S1","","html-keyboard-response","195","271327","0.0-1.0-272.0","0","0","91251","","null","","","null","30","","","","","","","","","","","","","","","",""
"","ISI","","html-keyboard-response","196","272342","0.0-1.0-273.0","0","0","91251","","122","","","75","30","k","","","","","","","","","","","","","","",""
"","S2","","html-keyboard-response","197","272608","0.0-1.0-274.0","0","0","91251","","null","","","null","30","","NaN","","","","","","","","","","","","","",""
"","response","","html-keyboard-response","198","272612","0.0-1.0-275.0-0.0","0","0","91251","","1","","","75","30","","","1","30","training","adjacent","BC","2","3","L.jpg","Q.jpg","1","1","1","",""
"","feedback","","html-keyboard-response","199","273625","0.0-1.0-276.0-0.0","0","0","91251","","null","","","null","30","","","","","","","","","","","","","","","",""
"","ITI","","html-keyboard-response","200","274640","0.0-1.0-279.0","0","0","91251","","null","","","null","30","","","","","","","","","","","","","","","NaN",""
"","S1","","html-keyboard-response","201","274921","0.0-1.0-281.0","0","0","91251","","null","","","null","31","","","","","","","","","","","","","","","",""
"","ISI","","html-keyboard-response","202","275937","0.0-1.0-282.0","0","0","91251","","null","","","null","31","NaN","","","","","","","","","","","","","","",""
"","S2","","html-keyboard-response","203","276202","0.0-1.0-283.0","0","0","91251","","null","","","null","31","","NaN","","","","","","","","","","","","","",""
"","response","","html-keyboard-response","204","276646","0.0-1.0-284.0-0.0","0","0","91251","","439","","","68","31","","","1","31","training","adjacent","EF","5","6","M.jpg","P.jpg","0","1","0","",""
"","feedback","","html-keyboard-response","205","277655","0.0-1.0-285.0-0.0","0","0","91251","","null","","","null","31","","","","","","","","","","","","","","","",""
"","time_out","","html-keyboard-response","206","279670","0.0-1.0-287.0-0.0","0","0","91251","","null","","","null","31","","","","","","","","","","","","","","","",""
"","ITI","","html-keyboard-response","207","280685","0.0-1.0-288.0","0","0","91251","","null","","","null","31","","","","","","","","","","","","","","","NaN",""
"","S1","","html-keyboard-response","208","280951","0.0-1.0-290.0","0","0","91251","","null","","","null","32","","","","","","","","","","","","","","","",""
"","ISI","","html-keyboard-response","209","281966","0.0-1.0-291.0","0","0","91251","","null","","","null","32","NaN","","","","","","","","","","","","","","",""
"","S2","","html-keyboard-response","210","282248","0.0-1.0-292.0","0","0","91251","","null","","","null","32","","NaN","","","","","","","","","","","","","",""
"","response","","html-keyboard-response","211","282636","0.0-1.0-293.0-0.0","0","0","91251","","382","","","68","32","","","1","32","training","adjacent","DC","4","3","O.jpg","Q.jpg","0","0","1","",""
"","feedback","","html-keyboard-response","212","283653","0.0-1.0-294.0-0.0","0","0","91251","","null","","","null","32","","","","","","","","","","","","","","","",""
"","ITI","","html-keyboard-response","213","284668","0.0-1.0-297.0","0","0","91251","","null","","","null","32","","","","","","","","","","","","","","","NaN",""
"","S1","","html-keyboard-response","214","284934","0.0-1.0-299.0","0","0","91251","","null","","","null","33","","","","","","","","","","","","","","","",""
"","ISI","","html-keyboard-response","215","285950","0.0-1.0-300.0","0","0","91251","","null","","","null","33","NaN","","","","","","","","","","","","","","",""
"","S2","","html-keyboard-response","216","286215","0.0-1.0-301.0","0","0","91251","","null","","","null","33","","NaN","","","","","","","","","","","","","",""
"","response","","html-keyboard-response","217","286225","0.0-1.0-302.0-0.0","0","0","91251","","5","","","68","33","","","1","33","training","adjacent","DC","4","3","O.jpg","Q.jpg","0","0","1","",""
"","feedback","","html-keyboard-response","218","287247","0.0-1.0-303.0-0.0","0","0","91251","","null","","","null","33","","","","","","","","","","","","","","","",""
"","ITI","","html-keyboard-response","219","288276","0.0-1.0-306.0","0","0","91251","","null","","","null","33","","","","","","","","","","","","","","","NaN",""
"","S1","","html-keyboard-response","220","288573","0.0-1.0-308.0","0","0","91251","","null","","","null","34","","","","","","","","","","","","","","","",""
"","ISI","","html-keyboard-response","221","289588","0.0-1.0-309.0","0","0","91251","","null","","","null","34","NaN","","","","","","","","","","","","","","",""
"","S2","","html-keyboard-response","222","289854","0.0-1.0-310.0","0","0","91251","","null","","","null","34","","NaN","","","","","","","","","","","","","",""
"","response","","html-keyboard-response","223","290035","0.0-1.0-311.0-0.0","0","0","91251","","174","","","75","34","","","1","34","training","adjacent","CB","3","2","Q.jpg","L.jpg","1","0","0","",""
"","feedback","","html-keyboard-response","224","291057","0.0-1.0-312.0-0.0","0","0","91251","","null","","","null","34","","","","","","","","","","","","","","","",""
"","time_out","","html-keyboard-response","225","293072","0.0-1.0-314.0-0.0","0","0","91251","","null","","","null","34","","","","","","","","","","","","","","","",""
"","ITI","","html-keyboard-response","226","294087","0.0-1.0-315.0","0","0","91251","","null","","","null","34","","","","","","","","","","","","","","","NaN",""
"","S1","","html-keyboard-response","227","294353","0.0-1.0-317.0","0","0","91251","","null","","","null","35","","","","","","","","","","","","","","","",""
"","ISI","","html-keyboard-response","228","295384","0.0-1.0-318.0","0","0","91251","","null","","","null","35","NaN","","","","","","","","","","","","","","",""
"","S2","","html-keyboard-response","229","295649","0.0-1.0-319.0","0","0","91251","","null","","","null","35","","NaN","","","","","","","","","","","","","",""
"","response","","html-keyboard-response","230","296334","0.0-1.0-320.0-0.0","0","0","91251","","678","","","75","35","","","1","35","training","adjacent","DE","4","5","O.jpg","M.jpg","1","1","1","",""
"","feedback","","html-keyboard-response","231","297352","0.0-1.0-321.0-0.0","0","0","91251","","null","","","null","35","","","","","","","","","","","","","","","",""
"","ITI","","html-keyboard-response","232","298367","0.0-1.0-324.0","0","0","91251","","null","","","null","35","","","","","","","","","","","","","","","NaN",""
"","S1","","html-keyboard-response","233","298633","0.0-1.0-326.0","0","0","91251","","null","","","null","36","","","","","","","","","","","","","","","",""
"","ISI","","html-keyboard-response","234","299648","0.0-1.0-327.0","0","0","91251","","null","","","null","36","NaN","","","","","","","","","","","","","","",""
"","S2","","html-keyboard-response","235","299914","0.0-1.0-328.0","0","0","91251","","null","","","null","36","","NaN","","","","","","","","","","","","","",""
"","response","","html-keyboard-response","236","300782","0.0-1.0-329.0-0.0","0","0","91251","","862","","","75","36","","","1","36","training","adjacent","FG","6","7","P.jpg","N.jpg","1","1","1","",""
"","feedback","","html-keyboard-response","237","301804","0.0-1.0-330.0-0.0","0","0","91251","","null","","","null","36","","","","","","","","","","","","","","","",""
"","ITI","","html-keyboard-response","238","302819","0.0-1.0-333.0","0","0","91251","","null","","","null","36","","","","","","","","","","","","","","","NaN",""
"","S1","","html-keyboard-response","239","303085","0.0-1.0-335.0","0","0","91251","","null","","","null","37","","","","","","","","","","","","","","","",""
"","ISI","","html-keyboard-response","240","304105","0.0-1.0-336.0","0","0","91251","","null","","","null","37","NaN","","","","","","","","","","","","","","",""
"","S2","","html-keyboard-response","241","304364","0.0-1.0-337.0","0","0","91251","","252","","","75","37","","k","1","37","training","adjacent","CB","3","2","Q.jpg","L.jpg","1","0","0","",""
"","feedback","","html-keyboard-response","242","305380","0.0-1.0-339.0-0.0","0","0","91251","","null","","","null","37","","","","","","","","","","","","","","","",""
"","time_out","","html-keyboard-response","243","307396","0.0-1.0-341.0-0.0","0","0","91251","","null","","","null","37","","","","","","","","","","","","","","","",""
"","ITI","","html-keyboard-response","244","308411","0.0-1.0-342.0","0","0","91251","","null","","","null","37","","","","","","","","","","","","","","","NaN",""
"","S1","","html-keyboard-response","245","308676","0.0-1.0-344.0","0","0","91251","","null","","","null","38","","","","","","","","","","","","","","","",""
"","ISI","","html-keyboard-response","246","309691","0.0-1.0-345.0","0","0","91251","","69","","","68","38","d","","","","","","","","","","","","","","",""
"","S2","","html-keyboard-response","247","309942","0.0-1.0-346.0","0","0","91251","","245","","","68","38","","d","1","38","training","adjacent","GF","7","6","N.jpg","P.jpg","0","0","1","",""
"","feedback","","html-keyboard-response","248","310956","0.0-1.0-348.0-0.0","0","0","91251","","null","","","null","38","","","","","","","","","","","","","","","",""
"","ITI","","html-keyboard-response","249","311971","0.0-1.0-351.0","0","0","91251","","null","","","null","38","","","","","","","","","","","","","","","NaN",""
"","S1","","html-keyboard-response","250","312237","0.0-1.0-353.0","0","0","91251","","null","","","null","39","","","","","","","","","","","","","","","",""
"","ISI","","html-keyboard-response","251","313252","0.0-1.0-354.0","0","0","91251","","null","","","null","39","NaN","","","","","","","","","","","","","","",""
"","S2","","html-keyboard-response","252","313518","0.0-1.0-355.0","0","0","91251","","null","","","null","39","","NaN","","","","","","","","","","","","","",""
"","response","","html-keyboard-response","253","313784","0.0-1.0-356.0-0.0","0","0","91251","","261","","","75","39","","","1","39","training","adjacent","CD","3","4","Q.jpg","O.jpg","1","1","1","",""
"","feedback","","html-keyboard-response","254","314799","0.0-1.0-357.0-0.0","0","0","91251","","null","","","null","39","","","","","","","","","","","","","","","",""
"","ITI","","html-keyboard-response","255","315846","0.0-1.0-360.0","0","0","91251","","null","","","null","39","","","","","","","","","","","","","","","NaN",""
"","S1","","html-keyboard-response","256","316142","0.0-1.0-362.0","0","0","91251","","null","","","null","40","","","","","","","","","","","","","","","",""
"","ISI","","html-keyboard-response","257","317157","0.0-1.0-363.0","0","0","91251","","197","","","75","40","k","","","","","","","","","","","","","","",""
"","S2","","html-keyboard-response","258","317423","0.0-1.0-364.0","0","0","91251","","null","","","null","40","","NaN","","","","","","","","","","","","","",""
"","response","","html-keyboard-response","259","317830","0.0-1.0-365.0-0.0","0","0","91251","","400","","","68","40","","","1","40","training","adjacent","EF","5","6","M.jpg","P.jpg","0","1","0","",""
"","feedback","","html-keyboard-response","260","318845","0.0-1.0-366.0-0.0","0","0","91251","","null","","","null","40","","","","","","","","","","","","","","","",""
"","time_out","","html-keyboard-response","261","320860","0.0-1.0-368.0-0.0","0","0","91251","","null","","","null","40","","","","","","","","","","","","","","","",""
"","ITI","","html-keyboard-response","262","321906","0.0-1.0-369.0","0","0","91251","","null","","","null","40","","","","","","","","","","","","","","","NaN",""
"","S1","","html-keyboard-response","263","322203","0.0-1.0-371.0","0","0","91251","","null","","","null","41","","","","","","","","","","","","","","","",""
"","ISI","","html-keyboard-response","264","323218","0.0-1.0-372.0","0","0","91251","","111","","","75","41","k","","","","","","","","","","","","","","",""
"","S2","","html-keyboard-response","265","323484","0.0-1.0-373.0","0","0","91251","","null","","","null","41","","NaN","","","","","","","","","","","","","",""
"","response","","html-keyboard-response","266","323693","0.0-1.0-374.0-0.0","0","0","91251","","204","","","68","41","","","1","41","training","adjacent","FE","6","5","P.jpg","M.jpg","0","0","1","",""
"","feedback","","html-keyboard-response","267","324702","0.0-1.0-375.0-0.0","0","0","91251","","null","","","null","41","","","","","","","","","","","","","","","",""
"","ITI","","html-keyboard-response","268","325717","0.0-1.0-378.0","0","0","91251","","null","","","null","41","","","","","","","","","","","","","","","NaN",""
"","S1","","html-keyboard-response","269","325983","0.0-1.0-380.0","0","0","91251","","null","","","null","42","","","","","","","","","","","","","","","",""
"","ISI","","html-keyboard-response","270","326998","0.0-1.0-381.0","0","0","91251","","null","","","null","42","NaN","","","","","","","","","","","","","","",""
"","S2","","html-keyboard-response","271","327264","0.0-1.0-382.0","0","0","91251","","null","","","null","42","","NaN","","","","","","","","","","","","","",""
"","response","","html-keyboard-response","272","327955","0.0-1.0-383.0-0.0","0","0","91251","","686","","","68","42","","","1","42","training","adjacent","BC","2","3","L.jpg","Q.jpg","0","1","0","",""
"","feedback","","html-keyboard-response","273","328966","0.0-1.0-384.0-0.0","0","0","91251","","null","","","null","42","","","","","","","","","","","","","","","",""
"","time_out","","html-keyboard-response","274","330981","0.0-1.0-386.0-0.0","0","0","91251","","null","","","null","42","","","","","","","","","","","","","","","",""
"","ITI","","html-keyboard-response","275","331996","0.0-1.0-387.0","0","0","91251","","null","","","null","42","","","","","","","","","","","","","","","NaN",""
"","S1","","html-keyboard-response","276","332262","0.0-1.0-389.0","0","0","91251","","null","","","null","43","","","","","","","","","","","","","","","",""
"","ISI","","html-keyboard-response","277","333294","0.0-1.0-390.0","0","0","91251","","null","","","null","43","NaN","","","","","","","","","","","","","","",""
"","S2","","html-keyboard-response","278","333574","0.0-1.0-391.0","0","0","91251","","null","","","null","43","","NaN","","","","","","","","","","","","","",""
"","response","","html-keyboard-response","279","333778","0.0-1.0-392.0-0.0","0","0","91251","","199","","","75","43","","","1","43","training","adjacent","BA","2","1","L.jpg","R.jpg","1","0","0","",""
"","feedback","","html-keyboard-response","280","334792","0.0-1.0-393.0-0.0","0","0","91251","","null","","","null","43","","","","","","","","","","","","","","","",""
"","time_out","","html-keyboard-response","281","336807","0.0-1.0-395.0-0.0","0","0","91251","","null","","","null","43","","","","","","","","","","","","","","","",""
"","ITI","","html-keyboard-response","282","337822","0.0-1.0-396.0","0","0","91251","","null","","","null","43","","","","","","","","","","","","","","","NaN",""
"","S1","","html-keyboard-response","283","338088","0.0-1.0-398.0","0","0","91251","","null","","","null","44","","","","","","","","","","","","","","","",""
"","ISI","","html-keyboard-response","284","339119","0.0-1.0-399.0","0","0","91251","","null","","","null","44","NaN","","","","","","","","","","","","","","",""
"","S2","","html-keyboard-response","285","339385","0.0-1.0-400.0","0","0","91251","","null","","","null","44","","NaN","","","","","","","","","","","","","",""
"","response","","html-keyboard-response","286","339402","0.0-1.0-401.0-0.0","0","0","91251","","12","","","68","44","","","1","44","training","adjacent","ED","5","4","M.jpg","O.jpg","0","0","1","",""
"","feedback","","html-keyboard-response","287","340415","0.0-1.0-402.0-0.0","0","0","91251","","null","","","null","44","","","","","","","","","","","","","","","",""
"","ITI","","html-keyboard-response","288","341431","0.0-1.0-405.0","0","0","91251","","null","","","null","44","","","","","","","","","","","","","","","NaN",""
"","S1","","html-keyboard-response","289","341696","0.0-1.0-407.0","0","0","91251","","null","","","null","45","","","","","","","","","","","","","","","",""
"","ISI","","html-keyboard-response","290","342712","0.0-1.0-408.0","0","0","91251","","null","","","null","45","NaN","","","","","","","","","","","","","","",""
"","S2","","html-keyboard-response","291","342978","0.0-1.0-409.0","0","0","91251","","null","","","null","45","","NaN","","","","","","","","","","","","","",""
"","response","","html-keyboard-response","292","343131","0.0-1.0-410.0-0.0","0","0","91251","","146","","","68","45","","","1","45","training","adjacent","GF","7","6","N.jpg","P.jpg","0","0","1","",""
"","feedback","","html-keyboard-response","293","344148","0.0-1.0-411.0-0.0","0","0","91251","","null","","","null","45","","","","","","","","","","","","","","","",""
"","ITI","","html-keyboard-response","294","345182","0.0-1.0-414.0","0","0","91251","","null","","","null","45","","","","","","","","","","","","","","","NaN",""
"","S1","","html-keyboard-response","295","345446","0.0-1.0-416.0","0","0","91251","","null","","","null","46","","","","","","","","","","","","","","","",""
"","ISI","","html-keyboard-response","296","346477","0.0-1.0-417.0","0","0","91251","","null","","","null","46","NaN","","","","","","","","","","","","","","",""
"","S2","","html-keyboard-response","297","346774","0.0-1.0-418.0","0","0","91251","","null","","","null","46","","NaN","","","","","","","","","","","","","",""
"","response","","html-keyboard-response","298","346788","0.0-1.0-419.0-0.0","0","0","91251","","8","","","68","46","","","1","46","training","adjacent","BC","2","3","L.jpg","Q.jpg","0","1","0","",""
"","feedback","","html-keyboard-response","299","347804","0.0-1.0-420.0-0.0","0","0","91251","","null","","","null","46","","","","","","","","","","","","","","","",""
"","time_out","","html-keyboard-response","300","349819","0.0-1.0-422.0-0.0","0","0","91251","","null","","","null","46","","","","","","","","","","","","","","","",""
"","ITI","","html-keyboard-response","301","350834","0.0-1.0-423.0","0","0","91251","","null","","","null","46","","","","","","","","","","","","","","","NaN",""
"","S1","","html-keyboard-response","302","351100","0.0-1.0-425.0","0","0","91251","","null","","","null","47","","","","","","","","","","","","","","","",""
"","ISI","","html-keyboard-response","303","352115","0.0-1.0-426.0","0","0","91251","","14","","","75","47","k","","","","","","","","","","","","","","",""
"","S2","","html-keyboard-response","304","352381","0.0-1.0-427.0","0","0","91251","","null","","","null","47","","NaN","","","","","","","","","","","","","",""
"","response","","html-keyboard-response","305","352435","0.0-1.0-428.0-0.0","0","0","91251","","48","","","75","47","","","1","47","training","adjacent","BC","2","3","L.jpg","Q.jpg","1","1","1","",""
"","feedback","","html-keyboard-response","306","353444","0.0-1.0-429.0-0.0","0","0","91251","","null","","","null","47","","","","","","","","","","","","","","","",""
"","ITI","","html-keyboard-response","307","354458","0.0-1.0-432.0","0","0","91251","","null","","","null","47","","","","","","","","","","","","","","","NaN",""
"","block_over","","html-keyboard-response","308","358264","0.0-1.0-433.0-0.0","0","0","91251","","3797","","","32","47","","","","","","","","","","","","","","","",""
"","S1","","html-keyboard-response","309","358533","0.0-1.0-434.0","0","0","91251","","null","","","null","48","","","","","","","","","","","","","","","",""
"","ISI","","html-keyboard-response","310","359548","0.0-1.0-435.0","0","0","91251","","null","","","null","48","NaN","","","","","","","","","","","","","","",""
"","S2","","html-keyboard-response","311","359814","0.0-1.0-436.0","0","0","91251","","null","","","null","48","","NaN","","","","","","","","","","","","","",""
"","response","","html-keyboard-response","312","360470","0.0-1.0-437.0-0.0","0","0","91251","","650","","","68","48","","","2","48","training","adjacent","FE","6","5","P.jpg","M.jpg","0","0","1","",""
"","feedback","","html-keyboard-response","313","361485","0.0-1.0-438.0-0.0","0","0","91251","","null","","","null","48","","","","","","","","","","","","","","","",""
"","ITI","","html-keyboard-response","314","362500","0.0-1.0-441.0","0","0","91251","","null","","","null","48","","","","","","","","","","","","","","","NaN",""
"","S1","","html-keyboard-response","315","362766","0.0-1.0-443.0","0","0","91251","","null","","","null","49","","","","","","","","","","","","","","","",""
"","ISI","","html-keyboard-response","316","363812","0.0-1.0-444.0","0","0","91251","","null","","","null","49","NaN","","","","","","","","","","","","","","",""
"","S2","","html-keyboard-response","317","364110","0.0-1.0-445.0","0","0","91251","","null","","","null","49","","NaN","","","","","","","","","","","","","",""
"","response","","html-keyboard-response","318","364489","0.0-1.0-446.0-0.0","0","0","91251","","373","","","68","49","","","2","49","training","adjacent","BA","2","1","L.jpg","R.jpg","0","0","1","",""
"","feedback","","html-keyboard-response","319","365510","0.0-1.0-447.0-0.0","0","0","91251","","null","","","null","49","","","","","","","","","","","","","","","",""
"","ITI","","html-keyboard-response","320","366526","0.0-1.0-450.0","0","0","91251","","null","","","null","49","","","","","","","","","","","","","","","NaN",""
"","S1","","html-keyboard-response","321","366792","0.0-1.0-452.0","0","0","91251","","null","","","null","50","","","","","","","","","","","","","","","",""
"","ISI","","html-keyboard-response","322","367808","0.0-1.0-453.0","0","0","91251","","null","","","null","50","NaN","","","","","","","","","","","","","","",""
"","S2","","html-keyboard-response","323","368073","0.0-1.0-454.0","0","0","91251","","null","","","null","50","","NaN","","","","","","","","","","","","","",""
"","response","","html-keyboard-response","324","368226","0.0-1.0-455.0-0.0","0","0","91251","","145","","","75","50","","","2","50","training","adjacent","DE","4","5","O.jpg","M.jpg","1","1","1","",""
"","feedback","","html-keyboard-response","325","369244","0.0-1.0-456.0-0.0","0","0","91251","","null","","","null","50","","","","","","","","","","","","","","","",""
"","ITI","","html-keyboard-response","326","370291","0.0-1.0-459.0","0","0","91251","","null","","","null","50","","","","","","","","","","","","","","","NaN",""
"","S1","","html-keyboard-response","327","370557","0.0-1.0-461.0","0","0","91251","","null","","","null","51","","","","","","","","","","","","","","","",""
"","ISI","","html-keyboard-response","328","371571","0.0-1.0-462.0","0","0","91251","","null","","","null","51","NaN","","","","","","","","","","","","","","",""
"","S2","","html-keyboard-response","329","371852","0.0-1.0-463.0","0","0","91251","","null","","","null","51","","NaN","","","","","","","","","","","","","",""
"","response","","html-keyboard-response","330","372312","0.0-1.0-464.0-0.0","0","0","91251","","454","","","75","51","","","2","51","training","adjacent","BA","2","1","L.jpg","R.jpg","1","0","0","",""
"","feedback","","html-keyboard-response","331","373322","0.0-1.0-465.0-0.0","0","0","91251","","null","","","null","51","","","","","","","","","","","","","","","",""
"","time_out","","html-keyboard-response","332","375335","0.0-1.0-467.0-0.0","0","0","91251","","null","","","null","51","","","","","","","","","","","","","","","",""
"","ITI","","html-keyboard-response","333","376351","0.0-1.0-468.0","0","0","91251","","null","","","null","51","","","","","","","","","","","","","","","NaN",""
"","S1","","html-keyboard-response","334","376616","0.0-1.0-470.0","0","0","91251","","null","","","null","52","","","","","","","","","","","","","","","",""
"","ISI","","html-keyboard-response","335","377632","0.0-1.0-471.0","0","0","91251","","107","","","68","52","d","","","","","","","","","","","","","","",""
"","S2","","html-keyboard-response","336","377861","0.0-1.0-472.0","0","0","91251","","222","","","68","52","","d","2","52","training","adjacent","BA","2","1","L.jpg","R.jpg","0","0","1","",""
"","feedback","","html-keyboard-response","337","378881","0.0-1.0-474.0-0.0","0","0","91251","","null","","","null","52","","","","","","","","","","","","","","","",""
"","ITI","","html-keyboard-response","338","379896","0.0-1.0-477.0","0","0","91251","","null","","","null","52","","","","","","","","","","","","","","","NaN",""
"","S1","","html-keyboard-response","339","380162","0.0-1.0-479.0","0","0","91251","","null","","","null","53","","","","","","","","","","","","","","","",""
"","ISI","","html-keyboard-response","340","381177","0.0-1.0-480.0","0","0","91251","","375","","","68","53","d","","","","","","","","","","","","","","",""
"","S2","","html-keyboard-response","341","381443","0.0-1.0-481.0","0","0","91251","","null","","","null","53","","NaN","","","","","","","","","","","","","",""
"","response","","html-keyboard-response","342","381607","0.0-1.0-482.0-0.0","0","0","91251","","156","","","68","53","","","2","53","training","adjacent","AB","1","2","R.jpg","L.jpg","0","1","0","",""
"","feedback","","html-keyboard-response","343","382614","0.0-1.0-483.0-0.0","0","0","91251","","null","","","null","53","","","","","","","","","","","","","","","",""
"","time_out","","html-keyboard-response","344","384660","0.0-1.0-485.0-0.0","0","0","91251","","null","","","null","53","","","","","","","","","","","","","","","",""
"","ITI","","html-keyboard-response","345","385685","0.0-1.0-486.0","0","0","91251","","null","","","null","53","","","","","","","","","","","","","","","NaN",""
"","S1","","html-keyboard-response","346","385975","0.0-1.0-488.0","0","0","91251","","null","","","null","54","","","","","","","","","","","","","","","",""
"","ISI","","html-keyboard-response","347","386995","0.0-1.0-489.0","0","0","91251","","169","","","75","54","k","","","","","","","","","","","","","","",""
"","S2","","html-keyboard-response","348","387261","0.0-1.0-490.0","0","0","91251","","null","","","null","54","","NaN","","","","","","","","","","","","","",""
"","response","","html-keyboard-response","349","387346","0.0-1.0-491.0-0.0","0","0","91251","","79","","","75","54","","","2","54","training","adjacent","FE","6","5","P.jpg","M.jpg","1","0","0","",""
"","feedback","","html-keyboard-response","350","388355","0.0-1.0-492.0-0.0","0","0","91251","","null","","","null","54","","","","","","","","","","","","","","","",""
"","time_out","","html-keyboard-response","351","390369","0.0-1.0-494.0-0.0","0","0","91251","","null","","","null","54","","","","","","","","","","","","","","","",""
"","ITI","","html-keyboard-response","352","391400","0.0-1.0-495.0","0","0","91251","","null","","","null","54","","","","","","","","","","","","","","","NaN",""
"","S1","","html-keyboard-response","353","391681","0.0-1.0-497.0","0","0","91251","","null","","","null","55","","","","","","","","","","","","","","","",""
"","ISI","","html-keyboard-response","354","392697","0.0-1.0-498.0","0","0","91251","","null","","","null","55","NaN","","","","","","","","","","","","","","",""
"","S2","","html-keyboard-response","355","392962","0.0-1.0-499.0","0","0","91251","","null","","","null","55","","NaN","","","","","","","","","","","","","",""
"","response","","html-keyboard-response","356","393346","0.0-1.0-500.0-0.0","0","0","91251","","377","","","75","55","","","2","55","training","adjacent","CB","3","2","Q.jpg","L.jpg","1","0","0","",""
"","feedback","","html-keyboard-response","357","394368","0.0-1.0-501.0-0.0","0","0","91251","","null","","","null","55","","","","","","","","","","","","","","","",""
"","time_out","","html-keyboard-response","358","396383","0.0-1.0-503.0-0.0","0","0","91251","","null","","","null","55","","","","","","","","","","","","","","","",""
"","ITI","","html-keyboard-response","359","397398","0.0-1.0-504.0","0","0","91251","","null","","","null","55","","","","","","","","","","","","","","","NaN",""
"","S1","","html-keyboard-response","360","397664","0.0-1.0-506.0","0","0","91251","","null","","","null","56","","","","","","","","","","","","","","","",""
"","ISI","","html-keyboard-response","361","398695","0.0-1.0-507.0","0","0","91251","","31","","","68","56","d","","","","","","","","","","","","","","",""
"","S2","","html-keyboard-response","362","398950","0.0-1.0-508.0","0","0","91251","","248","","","68","56","","d","2","56","training","adjacent","AB","1","2","R.jpg","L.jpg","0","1","0","",""
"","feedback","","html-keyboard-response","363","399960","0.0-1.0-510.0-0.0","0","0","91251","","null","","","null","56","","","","","","","","","","","","","","","",""
"","time_out","","html-keyboard-response","364","401975","0.0-1.0-512.0-0.0","0","0","91251","","null","","","null","56","","","","","","","","","","","","","","","",""
"","ITI","","html-keyboard-response","365","402990","0.0-1.0-513.0","0","0","91251","","null","","","null","56","","","","","","","","","","","","","","","NaN",""
"","S1","","html-keyboard-response","366","403257","0.0-1.0-515.0","0","0","91251","","null","","","null","57","","","","","","","","","","","","","","","",""
"","ISI","","html-keyboard-response","367","404272","0.0-1.0-516.0","0","0","91251","","null","","","null","57","NaN","","","","","","","","","","","","","","",""
"","S2","","html-keyboard-response","368","404550","0.0-1.0-517.0","0","0","91251","","271","","","68","57","","d","2","57","training","adjacent","CB","3","2","Q.jpg","L.jpg","0","0","1","",""
"","feedback","","html-keyboard-response","369","405568","0.0-1.0-519.0-0.0","0","0","91251","","null","","","null","57","","","","","","","","","","","","","","","",""
"","ITI","","html-keyboard-response","370","406583","0.0-1.0-522.0","0","0","91251","","null","","","null","57","","","","","","","","","","","","","","","NaN",""
"","S1","","html-keyboard-response","371","406848","0.0-1.0-524.0","0","0","91251","","null","","","null","58","","","","","","","","","","","","","","","",""
"","ISI","","html-keyboard-response","372","407864","0.0-1.0-525.0","0","0","91251","","null","","","null","58","NaN","","","","","","","","","","","","","","",""
"","S2","","html-keyboard-response","373","408099","0.0-1.0-526.0","0","0","91251","","228","","","75","58","","k","2","58","training","adjacent","EF","5","6","M.jpg","P.jpg","1","1","1","",""
"","feedback","","html-keyboard-response","374","409113","0.0-1.0-528.0-0.0","0","0","91251","","null","","","null","58","","","","","","","","","","","","","","","",""
"","ITI","","html-keyboard-response","375","410160","0.0-1.0-531.0","0","0","91251","","null","","","null","58","","","","","","","","","","","","","","","NaN",""
"","S1","","html-keyboard-response","376","410426","0.0-1.0-533.0","0","0","91251","","null","","","null","59","","","","","","","","","","","","","","","",""
"","ISI","","html-keyboard-response","377","411441","0.0-1.0-534.0","0","0","91251","","null","","","null","59","NaN","","","","","","","","","","","","","","",""
"","S2","","html-keyboard-response","378","411724","0.0-1.0-535.0","0","0","91251","","null","","","null","59","","NaN","","","","","","","","","","","","","",""
"","response","","html-keyboard-response","379","412412","0.0-1.0-536.0-0.0","0","0","91251","","683","","","75","59","","","2","59","training","adjacent","DC","4","3","O.jpg","Q.jpg","1","0","0","",""
"","feedback","","html-keyboard-response","380","413424","0.0-1.0-537.0-0.0","0","0","91251","","null","","","null","59","","","","","","","","","","","","","","","",""
"","time_out","","html-keyboard-response","381","415442","0.0-1.0-539.0-0.0","0","0","91251","","null","","","null","59","","","","","","","","","","","","","","","",""
"","ITI","","html-keyboard-response","382","416458","0.0-1.0-540.0","0","0","91251","","null","","","null","59","","","","","","","","","","","","","","","NaN",""
"","S1","","html-keyboard-response","383","416725","0.0-1.0-542.0","0","0","91251","","null","","","null","60","","","","","","","","","","","","","","","",""
"","ISI","","html-keyboard-response","384","417753","0.0-1.0-543.0","0","0","91251","","null","","","null","60","NaN","","","","","","","","","","","","","","",""
"","S2","","html-keyboard-response","385","418019","0.0-1.0-544.0","0","0","91251","","null","","","null","60","","NaN","","","","","","","","","","","","","",""
"","response","","html-keyboard-response","386","419784","0.0-1.0-545.0-0.0","0","0","91251","","null","","","null","60","","","2","60","training","adjacent","FG","6","7","P.jpg","N.jpg","NaN","1","0","",""
"","too_slow_prompt","","html-keyboard-response","387","420799","0.0-1.0-547.0-0.0","1","0","91251","","null","","","null","","","","","","","","","","","","","","","","",""
"","time_out","","html-keyboard-response","388","422814","0.0-1.0-548.0-0.0","0","0","91251","","null","","","null","60","","","","","","","","","","","","","","","",""
"","ITI","","html-keyboard-response","389","423830","0.0-1.0-549.0","0","0","91251","","874","","","68","60","","","","","","","","","","","","","","","d",""
"","S1","","html-keyboard-response","390","424095","0.0-1.0-551.0","0","0","91251","","null","","","null","61","","","","","","","","","","","","","","","",""
"","ISI","","html-keyboard-response","391","425110","0.0-1.0-552.0","0","0","91251","","346","","","68","61","d","","","","","","","","","","","","","","",""
"","S2","","html-keyboard-response","392","425408","0.0-1.0-553.0","0","0","91251","","null","","","null","61","","NaN","","","","","","","","","","","","","",""
"","response","","html-keyboard-response","393","425434","0.0-1.0-554.0-0.0","0","0","91251","","21","","","68","61","","","2","61","training","adjacent","AB","1","2","R.jpg","L.jpg","0","1","0","",""
"","feedback","","html-keyboard-response","394","426454","0.0-1.0-555.0-0.0","0","0","91251","","null","","","null","61","","","","","","","","","","","","","","","",""
"","time_out","","html-keyboard-response","395","428469","0.0-1.0-557.0-0.0","0","0","91251","","null","","","null","61","","","","","","","","","","","","","","","",""
"","ITI","","html-keyboard-response","396","429484","0.0-1.0-558.0","0","0","91251","","null","","","null","61","","","","","","","","","","","","","","","NaN",""
"","S1","","html-keyboard-response","397","429750","0.0-1.0-560.0","0","0","91251","","null","","","null","62","","","","","","","","","","","","","","","",""
"","ISI","","html-keyboard-response","398","430765","0.0-1.0-561.0","0","0","91251","","31","","","75","62","k","","","","","","","","","","","","","","",""
"","S2","","html-keyboard-response","399","430964","0.0-1.0-562.0","0","0","91251","","192","","","75","62","","k","2","62","training","adjacent","AB","1","2","R.jpg","L.jpg","1","1","1","",""
"","feedback","","html-keyboard-response","400","431983","0.0-1.0-564.0-0.0","0","0","91251","","null","","","null","62","","","","","","","","","","","","","","","",""
"","ITI","","html-keyboard-response","401","432999","0.0-1.0-567.0","0","0","91251","","null","","","null","62","","","","","","","","","","","","","","","NaN",""
"","S1","","html-keyboard-response","402","433264","0.0-1.0-569.0","0","0","91251","","null","","","null","63","","","","","","","","","","","","","","","",""
"","ISI","","html-keyboard-response","403","434279","0.0-1.0-570.0","0","0","91251","","null","","","null","63","NaN","","","","","","","","","","","","","","",""
"","S2","","html-keyboard-response","404","434546","0.0-1.0-571.0","0","0","91251","","null","","","null","63","","NaN","","","","","","","","","","","","","",""
"","response","","html-keyboard-response","405","434552","0.0-1.0-572.0-0.0","0","0","91251","","1","","","75","63","","","2","63","training","adjacent","FE","6","5","P.jpg","M.jpg","1","0","0","",""
"","feedback","","html-keyboard-response","406","435576","0.0-1.0-573.0-0.0","0","0","91251","","null","","","null","63","","","","","","","","","","","","","","","",""
"","time_out","","html-keyboard-response","407","437607","0.0-1.0-575.0-0.0","0","0","91251","","null","","","null","63","","","","","","","","","","","","","","","",""
"","ITI","","html-keyboard-response","408","438623","0.0-1.0-576.0","0","0","91251","","null","","","null","63","","","","","","","","","","","","","","","NaN",""
"","S1","","html-keyboard-response","409","438903","0.0-1.0-578.0","0","0","91251","","null","","","null","64","","","","","","","","","","","","","","","",""
"","ISI","","html-keyboard-response","410","439918","0.0-1.0-579.0","0","0","91251","","null","","","null","64","NaN","","","","","","","","","","","","","","",""
"","S2","","html-keyboard-response","411","440185","0.0-1.0-580.0","0","0","91251","","null","","","null","64","","NaN","","","","","","","","","","","","","",""
"","response","","html-keyboard-response","412","440192","0.0-1.0-581.0-0.0","0","0","91251","","0","","","68","64","","","2","64","training","adjacent","BC","2","3","L.jpg","Q.jpg","0","1","0","",""
"","feedback","","html-keyboard-response","413","441215","0.0-1.0-582.0-0.0","0","0","91251","","null","","","null","64","","","","","","","","","","","","","","","",""
"","time_out","","html-keyboard-response","414","443230","0.0-1.0-584.0-0.0","0","0","91251","","null","","","null","64","","","","","","","","","","","","","","","",""
"","ITI","","html-keyboard-response","415","444245","0.0-1.0-585.0","0","0","91251","","null","","","null","64","","","","","","","","","","","","","","","NaN",""
"","S1","","html-keyboard-response","416","444511","0.0-1.0-587.0","0","0","91251","","null","","","null","65","","","","","","","","","","","","","","","",""
"","ISI","","html-keyboard-response","417","445526","0.0-1.0-588.0","0","0","91251","","null","","","null","65","NaN","","","","","","","","","","","","","","",""
"","S2","","html-keyboard-response","418","445792","0.0-1.0-589.0","0","0","91251","","null","","","null","65","","NaN","","","","","","","","","","","","","",""
"","response","","html-keyboard-response","419","446069","0.0-1.0-590.0-0.0","0","0","91251","","271","","","75","65","","","2","65","training","adjacent","DC","4","3","O.jpg","Q.jpg","1","0","0","",""
"","feedback","","html-keyboard-response","420","447089","0.0-1.0-591.0-0.0","0","0","91251","","null","","","null","65","","","","","","","","","","","","","","","",""
"","time_out","","html-keyboard-response","421","449103","0.0-1.0-593.0-0.0","0","0","91251","","null","","","null","65","","","","","","","","","","","","","","","",""
"","ITI","","html-keyboard-response","422","450118","0.0-1.0-594.0","0","0","91251","","null","","","null","65","","","","","","","","","","","","","","","NaN",""
"","S1","","html-keyboard-response","423","450383","0.0-1.0-596.0","0","0","91251","","null","","","null","66","","","","","","","","","","","","","","","",""
"","ISI","","html-keyboard-response","424","451415","0.0-1.0-597.0","0","0","91251","","null","","","null","66","NaN","","","","","","","","","","","","","","",""
"","S2","","html-keyboard-response","425","451650","0.0-1.0-598.0","0","0","91251","","229","","","68","66","","d","2","66","training","adjacent","BC","2","3","L.jpg","Q.jpg","0","1","0","",""
"","feedback","","html-keyboard-response","426","452664","0.0-1.0-600.0-0.0","0","0","91251","","null","","","null","66","","","","","","","","","","","","","","","",""
"","time_out","","html-keyboard-response","427","454679","0.0-1.0-602.0-0.0","0","0","91251","","null","","","null","66","","","","","","","","","","","","","","","",""
"","ITI","","html-keyboard-response","428","455694","0.0-1.0-603.0","0","0","91251","","null","","","null","66","","","","","","","","","","","","","","","NaN",""
"","S1","","html-keyboard-response","429","455959","0.0-1.0-605.0","0","0","91251","","null","","","null","67","","","","","","","","","","","","","","","",""
"","ISI","","html-keyboard-response","430","456991","0.0-1.0-606.0","0","0","91251","","null","","","null","67","NaN","","","","","","","","","","","","","","",""
"","S2","","html-keyboard-response","431","457257","0.0-1.0-607.0","0","0","91251","","null","","","null","67","","NaN","","","","","","","","","","","","","",""
"","response","","html-keyboard-response","432","457401","0.0-1.0-608.0-0.0","0","0","91251","","138","","","68","67","","","2","67","training","adjacent","DE","4","5","O.jpg","M.jpg","0","1","0","",""
"","feedback","","html-keyboard-response","433","458412","0.0-1.0-609.0-0.0","0","0","91251","","null","","","null","67","","","","","","","","","","","","","","","",""
"","time_out","","html-keyboard-response","434","460427","0.0-1.0-611.0-0.0","0","0","91251","","null","","","null","67","","","","","","","","","","","","","","","",""
"","ITI","","html-keyboard-response","435","461442","0.0-1.0-612.0","0","0","91251","","null","","","null","67","","","","","","","","","","","","","","","NaN",""
"","S1","","html-keyboard-response","436","461708","0.0-1.0-614.0","0","0","91251","","null","","","null","68","","","","","","","","","","","","","","","",""
"","ISI","","html-keyboard-response","437","462756","0.0-1.0-615.0","0","0","91251","","null","","","null","68","NaN","","","","","","","","","","","","","","",""
"","S2","","html-keyboard-response","438","462949","0.0-1.0-616.0","0","0","91251","","186","","","75","68","","k","2","68","training","adjacent","ED","5","4","M.jpg","O.jpg","1","0","0","",""
"","feedback","","html-keyboard-response","439","463958","0.0-1.0-618.0-0.0","0","0","91251","","null","","","null","68","","","","","","","","","","","","","","","",""
"","time_out","","html-keyboard-response","440","465972","0.0-1.0-620.0-0.0","0","0","91251","","null","","","null","68","","","","","","","","","","","","","","","",""
"","ITI","","html-keyboard-response","441","466989","0.0-1.0-621.0","0","0","91251","","null","","","null","68","","","","","","","","","","","","","","","NaN",""
"","S1","","html-keyboard-response","442","467254","0.0-1.0-623.0","0","0","91251","","null","","","null","69","","","","","","","","","","","","","","","",""
"","ISI","","html-keyboard-response","443","468268","0.0-1.0-624.0","0","0","91251","","null","","","null","69","NaN","","","","","","","","","","","","","","",""
"","S2","","html-keyboard-response","444","468534","0.0-1.0-625.0","0","0","91251","","null","","","null","69","","NaN","","","","","","","","","","","","","",""
"","response","","html-keyboard-response","445","468631","0.0-1.0-626.0-0.0","0","0","91251","","91","","","75","69","","","2","69","training","adjacent","FG","6","7","P.jpg","N.jpg","1","1","1","",""
"","feedback","","html-keyboard-response","446","469643","0.0-1.0-627.0-0.0","0","0","91251","","null","","","null","69","","","","","","","","","","","","","","","",""
"","ITI","","html-keyboard-response","447","470658","0.0-1.0-630.0","0","0","91251","","null","","","null","69","","","","","","","","","","","","","","","NaN",""
"","S1","","html-keyboard-response","448","470924","0.0-1.0-632.0","0","0","91251","","null","","","null","70","","","","","","","","","","","","","","","",""
"","ISI","","html-keyboard-response","449","471939","0.0-1.0-633.0","0","0","91251","","null","","","null","70","NaN","","","","","","","","","","","","","","",""
"","S2","","html-keyboard-response","450","472206","0.0-1.0-634.0","0","0","91251","","null","","","null","70","","NaN","","","","","","","","","","","","","",""
"","response","","html-keyboard-response","451","472212","0.0-1.0-635.0-0.0","0","0","91251","","1","","","75","70","","","2","70","training","adjacent","CB","3","2","Q.jpg","L.jpg","1","0","0","",""
"","feedback","","html-keyboard-response","452","473221","0.0-1.0-636.0-0.0","0","0","91251","","null","","","null","70","","","","","","","","","","","","","","","",""
"","time_out","","html-keyboard-response","453","475267","0.0-1.0-638.0-0.0","0","0","91251","","null","","","null","70","","","","","","","","","","","","","","","",""
"","ITI","","html-keyboard-response","454","476313","0.0-1.0-639.0","0","0","91251","","null","","","null","70","","","","","","","","","","","","","","","NaN",""
"","S1","","html-keyboard-response","455","476578","0.0-1.0-641.0","0","0","91251","","null","","","null","71","","","","","","","","","","","","","","","",""
"","ISI","","html-keyboard-response","456","477593","0.0-1.0-642.0","0","0","91251","","null","","","null","71","NaN","","","","","","","","","","","","","","",""
"","S2","","html-keyboard-response","457","477830","0.0-1.0-643.0","0","0","91251","","231","","","68","71","","d","2","71","training","adjacent","DC","4","3","O.jpg","Q.jpg","0","0","1","",""
"","feedback","","html-keyboard-response","458","478843","0.0-1.0-645.0-0.0","0","0","91251","","null","","","null","71","","","","","","","","","","","","","","","",""
"","ITI","","html-keyboard-response","459","479859","0.0-1.0-648.0","0","0","91251","","null","","","null","71","","","","","","","","","","","","","","","NaN",""
"","S1","","html-keyboard-response","460","480123","0.0-1.0-650.0","0","0","91251","","null","","","null","72","","","","","","","","","","","","","","","",""
"","ISI","","html-keyboard-response","461","481130","0.0-1.0-651.0","0","0","91251","","260","","","75","72","k","","","","","","","","","","","","","","",""
"","S2","","html-keyboard-response","462","481391","0.0-1.0-652.0","0","0","91251","","null","","","null","72","","NaN","","","","","","","","","","","","","",""
"","response","","html-keyboard-response","463","481741","0.0-1.0-653.0-0.0","0","0","91251","","344","","","75","72","","","2","72","training","adjacent","BC","2","3","L.jpg","Q.jpg","1","1","1","",""
"","feedback","","html-keyboard-response","464","482750","0.0-1.0-654.0-0.0","0","0","91251","","null","","","null","72","","","","","","","","","","","","","","","",""
"","ITI","","html-keyboard-response","465","483781","0.0-1.0-657.0","0","0","91251","","null","","","null","72","","","","","","","","","","","","","","","NaN",""
"","S1","","html-keyboard-response","466","484046","0.0-1.0-659.0","0","0","91251","","null","","","null","73","","","","","","","","","","","","","","","",""
"","ISI","","html-keyboard-response","467","485062","0.0-1.0-660.0","0","0","91251","","null","","","null","73","NaN","","","","","","","","","","","","","","",""
"","S2","","html-keyboard-response","468","485314","0.0-1.0-661.0","0","0","91251","","248","","","75","73","","k","2","73","training","adjacent","EF","5","6","M.jpg","P.jpg","1","1","1","",""
"","feedback","","html-keyboard-response","469","486330","0.0-1.0-663.0-0.0","0","0","91251","","null","","","null","73","","","","","","","","","","","","","","","",""
"","ITI","","html-keyboard-response","470","487344","0.0-1.0-666.0","0","0","91251","","null","","","null","73","","","","","","","","","","","","","","","NaN",""
"","S1","","html-keyboard-response","471","487611","0.0-1.0-668.0","0","0","91251","","null","","","null","74","","","","","","","","","","","","","","","",""
"","ISI","","html-keyboard-response","472","488625","0.0-1.0-669.0","0","0","91251","","null","","","null","74","NaN","","","","","","","","","","","","","","",""
"","S2","","html-keyboard-response","473","488864","0.0-1.0-670.0","0","0","91251","","232","","","75","74","","k","2","74","training","adjacent","DE","4","5","O.jpg","M.jpg","1","1","1","",""
"","feedback","","html-keyboard-response","474","489875","0.0-1.0-672.0-0.0","0","0","91251","","null","","","null","74","","","","","","","","","","","","","","","",""
"","ITI","","html-keyboard-response","475","490922","0.0-1.0-675.0","0","0","91251","","null","","","null","74","","","","","","","","","","","","","","","NaN",""
"","S1","","html-keyboard-response","476","491188","0.0-1.0-677.0","0","0","91251","","null","","","null","75","","","","","","","","","","","","","","","",""
"","ISI","","html-keyboard-response","477","492203","0.0-1.0-678.0","0","0","91251","","null","","","null","75","NaN","","","","","","","","","","","","","","",""
"","S2","","html-keyboard-response","478","492483","0.0-1.0-679.0","0","0","91251","","null","","","null","75","","NaN","","","","","","","","","","","","","",""
"","response","","html-keyboard-response","479","492679","0.0-1.0-680.0-0.0","0","0","91251","","189","","","75","75","","","2","75","training","adjacent","CB","3","2","Q.jpg","L.jpg","1","0","0","",""
"","feedback","","html-keyboard-response","480","493687","0.0-1.0-681.0-0.0","0","0","91251","","null","","","null","75","","","","","","","","","","","","","","","",""
"","time_out","","html-keyboard-response","481","495701","0.0-1.0-683.0-0.0","0","0","91251","","null","","","null","75","","","","","","","","","","","","","","","",""
"","ITI","","html-keyboard-response","482","496717","0.0-1.0-684.0","0","0","91251","","15","","","68","75","","","","","","","","","","","","","","","d",""
"","S1","","html-keyboard-response","483","496984","0.0-1.0-686.0","0","0","91251","","null","","","null","76","","","","","","","","","","","","","","","",""
"","ISI","","html-keyboard-response","484","497997","0.0-1.0-687.0","0","0","91251","","2","","","68","76","d","","","","","","","","","","","","","","",""
"","S2","","html-keyboard-response","485","498200","0.0-1.0-688.0","0","0","91251","","196","","","68","76","","d","2","76","training","adjacent","GF","7","6","N.jpg","P.jpg","0","0","1","",""
"","feedback","","html-keyboard-response","486","499216","0.0-1.0-690.0-0.0","0","0","91251","","null","","","null","76","","","","","","","","","","","","","","","",""
"","ITI","","html-keyboard-response","487","500231","0.0-1.0-693.0","0","0","91251","","null","","","null","76","","","","","","","","","","","","","","","NaN",""
"","S1","","html-keyboard-response","488","500496","0.0-1.0-695.0","0","0","91251","","null","","","null","77","","","","","","","","","","","","","","","",""
"","ISI","","html-keyboard-response","489","501512","0.0-1.0-696.0","0","0","91251","","null","","","null","77","NaN","","","","","","","","","","","","","","",""
"","S2","","html-keyboard-response","490","501778","0.0-1.0-697.0","0","0","91251","","null","","","null","77","","NaN","","","","","","","","","","","","","",""
"","response","","html-keyboard-response","491","502015","0.0-1.0-698.0-0.0","0","0","91251","","230","","","75","77","","","2","77","training","adjacent","ED","5","4","M.jpg","O.jpg","1","0","0","",""
"","feedback","","html-keyboard-response","492","503043","0.0-1.0-699.0-0.0","0","0","91251","","null","","","null","77","","","","","","","","","","","","","","","",""
"","time_out","","html-keyboard-response","493","505073","0.0-1.0-701.0-0.0","0","0","91251","","null","","","null","77","","","","","","","","","","","","","","","",""
"","ITI","","html-keyboard-response","494","506104","0.0-1.0-702.0","0","0","91251","","null","","","null","77","","","","","","","","","","","","","","","NaN",""
"","S1","","html-keyboard-response","495","506371","0.0-1.0-704.0","0","0","91251","","null","","","null","78","","","","","","","","","","","","","","","",""
"","ISI","","html-keyboard-response","496","507386","0.0-1.0-705.0","0","0","91251","","100","","","68","78","d","","","","","","","","","","","","","","",""
"","S2","","html-keyboard-response","497","507650","0.0-1.0-706.0","0","0","91251","","257","","","68","78","","d","2","78","training","adjacent","BA","2","1","L.jpg","R.jpg","0","0","1","",""
"","feedback","","html-keyboard-response","498","508666","0.0-1.0-708.0-0.0","0","0","91251","","null","","","null","78","","","","","","","","","","","","","","","",""
"","ITI","","html-keyboard-response","499","509681","0.0-1.0-711.0","0","0","91251","","null","","","null","78","","","","","","","","","","","","","","","NaN",""
"","S1","","html-keyboard-response","500","509947","0.0-1.0-713.0","0","0","91251","","null","","","null","79","","","","","","","","","","","","","","","",""
"","ISI","","html-keyboard-response","501","510961","0.0-1.0-714.0","0","0","91251","","296","","","75","79","k","","","","","","","","","","","","","","",""
"","S2","","html-keyboard-response","502","511147","0.0-1.0-715.0","0","0","91251","","179","","","75","79","","k","2","79","training","adjacent","EF","5","6","M.jpg","P.jpg","1","1","1","",""
"","feedback","","html-keyboard-response","503","512196","0.0-1.0-717.0-0.0","0","0","91251","","null","","","null","79","","","","","","","","","","","","","","","",""
"","ITI","","html-keyboard-response","504","513243","0.0-1.0-720.0","0","0","91251","","null","","","null","79","","","","","","","","","","","","","","","NaN",""
"","S1","","html-keyboard-response","505","513508","0.0-1.0-722.0","0","0","91251","","null","","","null","80","","","","","","","","","","","","","","","",""
"","ISI","","html-keyboard-response","506","514524","0.0-1.0-723.0","0","0","91251","","null","","","null","80","NaN","","","","","","","","","","","","","","",""
"","S2","","html-keyboard-response","507","514809","0.0-1.0-724.0","0","0","91251","","null","","","null","80","","NaN","","","","","","","","","","","","","",""
"","response","","html-keyboard-response","508","514835","0.0-1.0-725.0-0.0","0","0","91251","","19","","","68","80","","","2","80","training","adjacent","BC","2","3","L.jpg","Q.jpg","0","1","0","",""
"","feedback","","html-keyboard-response","509","515853","0.0-1.0-726.0-0.0","0","0","91251","","null","","","null","80","","","","","","","","","","","","","","","",""
"","time_out","","html-keyboard-response","510","517867","0.0-1.0-728.0-0.0","0","0","91251","","null","","","null","80","","","","","","","","","","","","","","","",""
"","ITI","","html-keyboard-response","511","518883","0.0-1.0-729.0","0","0","91251","","null","","","null","80","","","","","","","","","","","","","","","NaN",""
"","S1","","html-keyboard-response","512","519148","0.0-1.0-731.0","0","0","91251","","null","","","null","81","","","","","","","","","","","","","","","",""
"","ISI","","html-keyboard-response","513","520163","0.0-1.0-732.0","0","0","91251","","47","","","75","81","k","","","","","","","","","","","","","","",""
"","S2","","html-keyboard-response","514","520355","0.0-1.0-733.0","0","0","91251","","186","","","75","81","","k","2","81","training","adjacent","ED","5","4","M.jpg","O.jpg","1","0","0","",""
"","feedback","","html-keyboard-response","515","521366","0.0-1.0-735.0-0.0","0","0","91251","","null","","","null","81","","","","","","","","","","","","","","","",""
"","time_out","","html-keyboard-response","516","523381","0.0-1.0-737.0-0.0","0","0","91251","","null","","","null","81","","","","","","","","","","","","","","","",""
"","ITI","","html-keyboard-response","517","524397","0.0-1.0-738.0","0","0","91251","","651","","","68","81","","","","","","","","","","","","","","","d",""
"","S1","","html-keyboard-response","518","524663","0.0-1.0-740.0","0","0","91251","","null","","","null","82","","","","","","","","","","","","","","","",""
"","ISI","","html-keyboard-response","519","525693","0.0-1.0-741.0","0","0","91251","","132","","","68","82","d","","","","","","","","","","","","","","",""
"","S2","","html-keyboard-response","520","525714","0.0-1.0-742.0","0","0","91251","","15","","","68","82","","d","2","82","training","adjacent","CD","3","4","Q.jpg","O.jpg","0","1","0","",""
"","feedback","","html-keyboard-response","521","526725","0.0-1.0-744.0-0.0","0","0","91251","","null","","","null","82","","","","","","","","","","","","","","","",""
"","time_out","","html-keyboard-response","522","528740","0.0-1.0-746.0-0.0","0","0","91251","","null","","","null","82","","","","","","","","","","","","","","","",""
"","ITI","","html-keyboard-response","523","529754","0.0-1.0-747.0","0","0","91251","","null","","","null","82","","","","","","","","","","","","","","","NaN",""
"","S1","","html-keyboard-response","524","530014","0.0-1.0-749.0","0","0","91251","","null","","","null","83","","","","","","","","","","","","","","","",""
"","ISI","","html-keyboard-response","525","531036","0.0-1.0-750.0","0","0","91251","","null","","","null","83","NaN","","","","","","","","","","","","","","",""
"","S2","","html-keyboard-response","526","531332","0.0-1.0-751.0","0","0","91251","","null","","","null","83","","NaN","","","","","","","","","","","","","",""
"","response","","html-keyboard-response","527","531454","0.0-1.0-752.0-0.0","0","0","91251","","115","","","75","83","","","2","83","training","adjacent","CD","3","4","Q.jpg","O.jpg","1","1","1","",""
"","feedback","","html-keyboard-response","528","532472","0.0-1.0-753.0-0.0","0","0","91251","","null","","","null","83","","","","","","","","","","","","","","","",""
"","ITI","","html-keyboard-response","529","533488","0.0-1.0-756.0","0","0","91251","","null","","","null","83","","","","","","","","","","","","","","","NaN",""
"","S1","","html-keyboard-response","530","533753","0.0-1.0-758.0","0","0","91251","","null","","","null","84","","","","","","","","","","","","","","","",""
"","ISI","","html-keyboard-response","531","534769","0.0-1.0-759.0","0","0","91251","","null","","","null","84","NaN","","","","","","","","","","","","","","",""
"","S2","","html-keyboard-response","532","535035","0.0-1.0-760.0","0","0","91251","","null","","","null","84","","NaN","","","","","","","","","","","","","",""
"","response","","html-keyboard-response","533","535630","0.0-1.0-761.0-0.0","0","0","91251","","589","","","75","84","","","2","84","training","adjacent","GF","7","6","N.jpg","P.jpg","1","0","0","",""
"","feedback","","html-keyboard-response","534","536674","0.0-1.0-762.0-0.0","0","0","91251","","null","","","null","84","","","","","","","","","","","","","","","",""
"","time_out","","html-keyboard-response","535","538705","0.0-1.0-764.0-0.0","0","0","91251","","null","","","null","84","","","","","","","","","","","","","","","",""
"","ITI","","html-keyboard-response","536","539737","0.0-1.0-765.0","0","0","91251","","null","","","null","84","","","","","","","","","","","","","","","NaN",""
"","S1","","html-keyboard-response","537","540032","0.0-1.0-767.0","0","0","91251","","null","","","null","85","","","","","","","","","","","","","","","",""
"","ISI","","html-keyboard-response","538","541048","0.0-1.0-768.0","0","0","91251","","null","","","null","85","NaN","","","","","","","","","","","","","","",""
"","S2","","html-keyboard-response","539","541313","0.0-1.0-769.0","0","0","91251","","null","","","null","85","","NaN","","","","","","","","","","","","","",""
"","response","","html-keyboard-response","540","541756","0.0-1.0-770.0-0.0","0","0","91251","","437","","","68","85","","","2","85","training","adjacent","EF","5","6","M.jpg","P.jpg","0","1","0","",""
"","feedback","","html-keyboard-response","541","542767","0.0-1.0-771.0-0.0","0","0","91251","","null","","","null","85","","","","","","","","","","","","","","","",""
"","time_out","","html-keyboard-response","542","544781","0.0-1.0-773.0-0.0","0","0","91251","","null","","","null","85","","","","","","","","","","","","","","","",""
"","ITI","","html-keyboard-response","543","545797","0.0-1.0-774.0","0","0","91251","","null","","","null","85","","","","","","","","","","","","","","","NaN",""
"","S1","","html-keyboard-response","544","546063","0.0-1.0-776.0","0","0","91251","","null","","","null","86","","","","","","","","","","","","","","","",""
"","ISI","","html-keyboard-response","545","547078","0.0-1.0-777.0","0","0","91251","","null","","","null","86","NaN","","","","","","","","","","","","","","",""
"","S2","","html-keyboard-response","546","547344","0.0-1.0-778.0","0","0","91251","","null","","","null","86","","NaN","","","","","","","","","","","","","",""
"","response","","html-keyboard-response","547","547844","0.0-1.0-779.0-0.0","0","0","91251","","494","","","75","86","","","2","86","training","adjacent","FG","6","7","P.jpg","N.jpg","1","1","1","",""
"","feedback","","html-keyboard-response","548","548860","0.0-1.0-780.0-0.0","0","0","91251","","null","","","null","86","","","","","","","","","","","","","","","",""
"","ITI","","html-keyboard-response","549","549875","0.0-1.0-783.0","0","0","91251","","null","","","null","86","","","","","","","","","","","","","","","NaN",""
"","S1","","html-keyboard-response","550","550140","0.0-1.0-785.0","0","0","91251","","null","","","null","87","","","","","","","","","","","","","","","",""
"","ISI","","html-keyboard-response","551","551155","0.0-1.0-786.0","0","0","91251","","915","","","75","87","k","","","","","","","","","","","","","","",""
"","S2","","html-keyboard-response","552","551421","0.0-1.0-787.0","0","0","91251","","null","","","null","87","","NaN","","","","","","","","","","","","","",""
"","response","","html-keyboard-response","553","551455","0.0-1.0-788.0-0.0","0","0","91251","","28","","","75","87","","","2","87","training","adjacent","DE","4","5","O.jpg","M.jpg","1","1","1","",""
"","feedback","","html-keyboard-response","554","552469","0.0-1.0-789.0-0.0","0","0","91251","","null","","","null","87","","","","","","","","","","","","","","","",""
"","ITI","","html-keyboard-response","555","553498","0.0-1.0-792.0","0","0","91251","","null","","","null","87","","","","","","","","","","","","","","","NaN",""
"","S1","","html-keyboard-response","556","553764","0.0-1.0-794.0","0","0","91251","","null","","","null","88","","","","","","","","","","","","","","","",""
"","ISI","","html-keyboard-response","557","554795","0.0-1.0-795.0","0","0","91251","","null","","","null","88","NaN","","","","","","","","","","","","","","",""
"","S2","","html-keyboard-response","558","555092","0.0-1.0-796.0","0","0","91251","","null","","","null","88","","NaN","","","","","","","","","","","","","",""
"","response","","html-keyboard-response","559","555470","0.0-1.0-797.0-0.0","0","0","91251","","373","","","68","88","","","2","88","training","adjacent","GF","7","6","N.jpg","P.jpg","0","0","1","",""
"","feedback","","html-keyboard-response","560","556483","0.0-1.0-798.0-0.0","0","0","91251","","null","","","null","88","","","","","","","","","","","","","","","",""
"","ITI","","html-keyboard-response","561","557497","0.0-1.0-801.0","0","0","91251","","null","","","null","88","","","","","","","","","","","","","","","NaN",""
"","S1","","html-keyboard-response","562","557763","0.0-1.0-803.0","0","0","91251","","null","","","null","89","","","","","","","","","","","","","","","",""
"","ISI","","html-keyboard-response","563","558778","0.0-1.0-804.0","0","0","91251","","null","","","null","89","NaN","","","","","","","","","","","","","","",""
"","S2","","html-keyboard-response","564","559044","0.0-1.0-805.0","0","0","91251","","null","","","null","89","","NaN","","","","","","","","","","","","","",""
"","response","","html-keyboard-response","565","559122","0.0-1.0-806.0-0.0","0","0","91251","","72","","","75","89","","","2","89","training","adjacent","ED","5","4","M.jpg","O.jpg","1","0","0","",""
"","feedback","","html-keyboard-response","566","560137","0.0-1.0-807.0-0.0","0","0","91251","","null","","","null","89","","","","","","","","","","","","","","","",""
"","time_out","","html-keyboard-response","567","562170","0.0-1.0-809.0-0.0","0","0","91251","","null","","","null","89","","","","","","","","","","","","","","","",""
"","ITI","","html-keyboard-response","568","563185","0.0-1.0-810.0","0","0","91251","","null","","","null","89","","","","","","","","","","","","","","","NaN",""
"","S1","","html-keyboard-response","569","563467","0.0-1.0-812.0","0","0","91251","","null","","","null","90","","","","","","","","","","","","","","","",""
"","ISI","","html-keyboard-response","570","564481","0.0-1.0-813.0","0","0","91251","","265","","","75","90","k","","","","","","","","","","","","","","",""
"","S2","","html-keyboard-response","571","564747","0.0-1.0-814.0","0","0","91251","","259","","","75","90","","k","2","90","training","adjacent","CD","3","4","Q.jpg","O.jpg","1","1","1","",""
"","feedback","","html-keyboard-response","572","565762","0.0-1.0-816.0-0.0","0","0","91251","","null","","","null","90","","","","","","","","","","","","","","","",""
"","ITI","","html-keyboard-response","573","566778","0.0-1.0-819.0","0","0","91251","","null","","","null","90","","","","","","","","","","","","","","","NaN",""
"","S1","","html-keyboard-response","574","567043","0.0-1.0-821.0","0","0","91251","","null","","","null","91","","","","","","","","","","","","","","","",""
"","ISI","","html-keyboard-response","575","568058","0.0-1.0-822.0","0","0","91251","","null","","","null","91","NaN","","","","","","","","","","","","","","",""
"","S2","","html-keyboard-response","576","568324","0.0-1.0-823.0","0","0","91251","","null","","","null","91","","NaN","","","","","","","","","","","","","",""
"","response","","html-keyboard-response","577","570089","0.0-1.0-824.0-0.0","0","0","91251","","null","","","null","91","","","2","91","training","adjacent","FG","6","7","P.jpg","N.jpg","NaN","1","0","",""
"","too_slow_prompt","","html-keyboard-response","578","571104","0.0-1.0-826.0-0.0","1","0","91251","","null","","","null","","","","","","","","","","","","","","","","",""
"","time_out","","html-keyboard-response","579","573119","0.0-1.0-827.0-0.0","0","0","91251","","null","","","null","91","","","","","","","","","","","","","","","",""
"","ITI","","html-keyboard-response","580","574136","0.0-1.0-828.0","0","0","91251","","null","","","null","91","","","","","","","","","","","","","","","NaN",""
"","S1","","html-keyboard-response","581","574400","0.0-1.0-830.0","0","0","91251","","null","","","null","92","","","","","","","","","","","","","","","",""
