"success","ttype","start_time","trial_type","trial_index","time_elapsed","internal_node_id","warning","missed_checkup","PID","view_history","rt","responses","repeat_instructions","key_press","index","keypress_isi","keypress_S2","block","trial_num","phase","group_type","pair_type","S1_stim","S2_stim","S1_img","S2_img","S1_chosen","S1_higher","accuracy","keypress_iti","total_bonus_tally"
"true","full_screen","d04132023hr1444","fullscreen","0","15005","0.0-0.0","0","0","27885","","","","","","","","","","","","","","","","","","","","","",""
"","instructions","","instructions","1","93262","0.0-1.0-0.0-0.0","0","0","27885","[{""page_index"":0,""viewing_time"":5453},{""page_index"":1,""viewing_time"":55138},{""page_index"":2,""viewing_time"":13955},{""page_index"":3,""viewing_time"":3705}]","78253","","","","","","","","","","","","","","","","","","","",""
"","comprehension_check","","survey-multi-choice","2","138269","0.0-1.0-0.0-1.0","0","0","27885","","44997","{""Q0"":""True"",""Q1"":""K"",""Q2"":""Only when the screen 'MAKE A CHOICE' is shown"",""Q3"":""Green mark"",""Q4"":""either D or K""}","1","","","","","","","","","","","","","","","","","",""
"","missed_instruction_checkup","","html-keyboard-response","3","141582","0.0-1.0-0.0-2.0-0.0","0","1","27885","","3306","","","32","","","","","","","","","","","","","","","","",""
"","instructions","","instructions","4","162293","0.0-1.0-0.1-0.1","0","0","27885","[{""page_index"":0,""viewing_time"":4608},{""page_index"":1,""viewing_time"":14142},{""page_index"":2,""viewing_time"":781},{""page_index"":3,""viewing_time"":1176}]","20708","","","","","","","","","","","","","","","","","","","",""
"","comprehension_check","","survey-multi-choice","5","187933","0.0-1.0-0.1-1.1","0","0","27885","","25632","{""Q0"":""True"",""Q1"":""K"",""Q2"":""Only while the second image is shown"",""Q3"":""Green mark"",""Q4"":""either D or K""}","1","","","","","","","","","","","","","","","","","",""
"","missed_instruction_checkup","","html-keyboard-response","6","190218","0.0-1.0-0.1-2.1-0.1","0","1","27885","","2282","","","32","","","","","","","","","","","","","","","","",""
"","instructions","","instructions","7","244464","0.0-1.0-0.2-0.2","0","0","27885","[{""page_index"":0,""viewing_time"":1706},{""page_index"":1,""viewing_time"":48905},{""page_index"":2,""viewing_time"":761},{""page_index"":3,""viewing_time"":2871}]","54243","","","","","","","","","","","","","","","","","","","",""
"","comprehension_check","","survey-multi-choice","8","260606","0.0-1.0-0.2-1.2","0","0","27885","","16135","{""Q0"":""False"",""Q1"":""K"",""Q2"":""Once the second image appears and while the screen 'MAKE A CHOICE' is shown"",""Q3"":""Green mark"",""Q4"":""either D or K""}","1","","","","","","","","","","","","","","","","","",""
"","missed_instruction_checkup","","html-keyboard-response","9","263033","0.0-1.0-0.2-2.2-0.2","0","1","27885","","2422","","","32","","","","","","","","","","","","","","","","",""
"","instructions","","instructions","10","306735","0.0-1.0-0.3-0.3","0","0","27885","[{""page_index"":0,""viewing_time"":1397},{""page_index"":1,""viewing_time"":35429},{""page_index"":2,""viewing_time"":6091},{""page_index"":3,""viewing_time"":782}]","43700","","","","","","","","","","","","","","","","","","","",""
"","comprehension_check","","survey-multi-choice","11","322476","0.0-1.0-0.3-1.3","0","0","27885","","15732","{""Q0"":""True"",""Q1"":""K"",""Q2"":""Once the second image appears and while the screen 'MAKE A CHOICE' is shown"",""Q3"":""Green mark"",""Q4"":""either D or K""}","0","","","","","","","","","","","","","","","","","",""
"","start_exp","","html-keyboard-response","12","326670","0.0-1.0-1.0","0","0","27885","","4189","","","32","","","","","","","","","","","","","","","","",""
"","S1","","html-keyboard-response","13","326925","0.0-1.0-2.0","0","0","27885","","null","","","null","0","","","","","","","","","","","","","","","",""
"","ISI","","html-keyboard-response","14","327928","0.0-1.0-3.0","0","0","27885","","null","","","null","0","NaN","","","","","","","","","","","","","","",""
"","S2","","html-keyboard-response","15","328183","0.0-1.0-4.0","0","0","27885","","null","","","null","0","","NaN","","","","","","","","","","","","","",""
"","response","","html-keyboard-response","16","329693","0.0-1.0-5.0-0.0","0","0","27885","","1507","","","75","0","","","1","0","training","adjacent","FE","6","5","L.jpg","R.jpg","1","0","0","",""
"","feedback","","html-keyboard-response","17","330697","0.0-1.0-6.0-0.0","0","0","27885","","null","","","null","0","","","","","","","","","","","","","","","",""
"","time_out","","html-keyboard-response","18","332701","0.0-1.0-8.0-0.0","0","0","27885","","null","","","null","0","","","","","","","","","","","","","","","",""
"","ITI","","html-keyboard-response","19","333705","0.0-1.0-9.0","0","0","27885","","null","","","null","0","","","","","","","","","","","","","","","NaN",""
"","S1","","html-keyboard-response","20","333960","0.0-1.0-11.0","0","0","27885","","null","","","null","1","","","","","","","","","","","","","","","",""
"","ISI","","html-keyboard-response","21","334963","0.0-1.0-12.0","0","0","27885","","null","","","null","1","NaN","","","","","","","","","","","","","","",""
"","S2","","html-keyboard-response","22","335217","0.0-1.0-13.0","0","0","27885","","null","","","null","1","","NaN","","","","","","","","","","","","","",""
"","response","","html-keyboard-response","23","336174","0.0-1.0-14.0-0.0","0","0","27885","","955","","","68","1","","","1","1","training","adjacent","AB","1","2","O.jpg","N.jpg","0","1","0","",""
"","feedback","","html-keyboard-response","24","337178","0.0-1.0-15.0-0.0","0","0","27885","","null","","","null","1","","","","","","","","","","","","","","","",""
"","time_out","","html-keyboard-response","25","339182","0.0-1.0-17.0-0.0","0","0","27885","","null","","","null","1","","","","","","","","","","","","","","","",""
"","ITI","","html-keyboard-response","26","340186","0.0-1.0-18.0","0","0","27885","","null","","","null","1","","","","","","","","","","","","","","","NaN",""
"","S1","","html-keyboard-response","27","340440","0.0-1.0-20.0","0","0","27885","","null","","","null","2","","","","","","","","","","","","","","","",""
"","ISI","","html-keyboard-response","28","341443","0.0-1.0-21.0","0","0","27885","","null","","","null","2","NaN","","","","","","","","","","","","","","",""
"","S2","","html-keyboard-response","29","341696","0.0-1.0-22.0","0","0","27885","","null","","","null","2","","NaN","","","","","","","","","","","","","",""
"","response","","html-keyboard-response","30","342243","0.0-1.0-23.0-0.0","0","0","27885","","544","","","75","2","","","1","2","training","adjacent","AB","1","2","O.jpg","N.jpg","1","1","1","",""
"","feedback","","html-keyboard-response","31","343246","0.0-1.0-24.0-0.0","0","0","27885","","null","","","null","2","","","","","","","","","","","","","","","",""
"","ITI","","html-keyboard-response","32","344250","0.0-1.0-27.0","0","0","27885","","null","","","null","2","","","","","","","","","","","","","","","NaN",""
"","S1","","html-keyboard-response","33","344504","0.0-1.0-29.0","0","0","27885","","null","","","null","3","","","","","","","","","","","","","","","",""
"","ISI","","html-keyboard-response","34","345507","0.0-1.0-30.0","0","0","27885","","null","","","null","3","NaN","","","","","","","","","","","","","","",""
"","S2","","html-keyboard-response","35","345761","0.0-1.0-31.0","0","0","27885","","null","","","null","3","","NaN","","","","","","","","","","","","","",""
"","response","","html-keyboard-response","36","347483","0.0-1.0-32.0-0.0","0","0","27885","","1718","","","68","3","","","1","3","training","adjacent","BC","2","3","N.jpg","P.jpg","0","1","0","",""
"","feedback","","html-keyboard-response","37","348489","0.0-1.0-33.0-0.0","0","0","27885","","null","","","null","3","","","","","","","","","","","","","","","",""
"","time_out","","html-keyboard-response","38","350492","0.0-1.0-35.0-0.0","0","0","27885","","null","","","null","3","","","","","","","","","","","","","","","",""
"","ITI","","html-keyboard-response","39","351496","0.0-1.0-36.0","0","0","27885","","null","","","null","3","","","","","","","","","","","","","","","NaN",""
"","S1","","html-keyboard-response","40","351750","0.0-1.0-38.0","0","0","27885","","null","","","null","4","","","","","","","","","","","","","","","",""
"","ISI","","html-keyboard-response","41","352753","0.0-1.0-39.0","0","0","27885","","null","","","null","4","NaN","","","","","","","","","","","","","","",""
"","S2","","html-keyboard-response","42","353008","0.0-1.0-40.0","0","0","27885","","null","","","null","4","","NaN","","","","","","","","","","","","","",""
"","response","","html-keyboard-response","43","353608","0.0-1.0-41.0-0.0","0","0","27885","","598","","","75","4","","","1","4","training","adjacent","CD","3","4","P.jpg","M.jpg","1","1","1","",""
"","feedback","","html-keyboard-response","44","354612","0.0-1.0-42.0-0.0","0","0","27885","","null","","","null","4","","","","","","","","","","","","","","","",""
"","ITI","","html-keyboard-response","45","355616","0.0-1.0-45.0","0","0","27885","","535","","","75","4","","","","","","","","","","","","","","","k",""
"","S1","","html-keyboard-response","46","355870","0.0-1.0-47.0","0","0","27885","","null","","","null","5","","","","","","","","","","","","","","","",""
"","ISI","","html-keyboard-response","47","356874","0.0-1.0-48.0","0","0","27885","","null","","","null","5","NaN","","","","","","","","","","","","","","",""
"","S2","","html-keyboard-response","48","357132","0.0-1.0-49.0","0","0","27885","","null","","","null","5","","NaN","","","","","","","","","","","","","",""
"","response","","html-keyboard-response","49","357736","0.0-1.0-50.0-0.0","0","0","27885","","600","","","75","5","","","1","5","training","adjacent","FG","6","7","L.jpg","Q.jpg","1","1","1","",""
"","feedback","","html-keyboard-response","50","358740","0.0-1.0-51.0-0.0","0","0","27885","","null","","","null","5","","","","","","","","","","","","","","","",""
"","ITI","","html-keyboard-response","51","359742","0.0-1.0-54.0","0","0","27885","","null","","","null","5","","","","","","","","","","","","","","","NaN",""
"","S1","","html-keyboard-response","52","359996","0.0-1.0-56.0","0","0","27885","","null","","","null","6","","","","","","","","","","","","","","","",""
"","ISI","","html-keyboard-response","53","360999","0.0-1.0-57.0","0","0","27885","","null","","","null","6","NaN","","","","","","","","","","","","","","",""
"","S2","","html-keyboard-response","54","361252","0.0-1.0-58.0","0","0","27885","","null","","","null","6","","NaN","","","","","","","","","","","","","",""
"","response","","html-keyboard-response","55","361827","0.0-1.0-59.0-0.0","0","0","27885","","571","","","75","6","","","1","6","training","adjacent","DC","4","3","M.jpg","P.jpg","1","0","0","",""
"","feedback","","html-keyboard-response","56","362831","0.0-1.0-60.0-0.0","0","0","27885","","null","","","null","6","","","","","","","","","","","","","","","",""
"","time_out","","html-keyboard-response","57","364834","0.0-1.0-62.0-0.0","0","0","27885","","null","","","null","6","","","","","","","","","","","","","","","",""
"","ITI","","html-keyboard-response","58","365839","0.0-1.0-63.0","0","0","27885","","null","","","null","6","","","","","","","","","","","","","","","NaN",""
"","S1","","html-keyboard-response","59","366092","0.0-1.0-65.0","0","0","27885","","null","","","null","7","","","","","","","","","","","","","","","",""
"","ISI","","html-keyboard-response","60","367098","0.0-1.0-66.0","0","0","27885","","null","","","null","7","NaN","","","","","","","","","","","","","","",""
"","S2","","html-keyboard-response","61","367352","0.0-1.0-67.0","0","0","27885","","null","","","null","7","","NaN","","","","","","","","","","","","","",""
"","response","","html-keyboard-response","62","368065","0.0-1.0-68.0-0.0","0","0","27885","","710","","","68","7","","","1","7","training","adjacent","CB","3","2","P.jpg","N.jpg","0","0","1","",""
"","feedback","","html-keyboard-response","63","369069","0.0-1.0-69.0-0.0","0","0","27885","","null","","","null","7","","","","","","","","","","","","","","","",""
"","ITI","","html-keyboard-response","64","370073","0.0-1.0-72.0","0","0","27885","","null","","","null","7","","","","","","","","","","","","","","","NaN",""
"","S1","","html-keyboard-response","65","370327","0.0-1.0-74.0","0","0","27885","","null","","","null","8","","","","","","","","","","","","","","","",""
"","ISI","","html-keyboard-response","66","371331","0.0-1.0-75.0","0","0","27885","","null","","","null","8","NaN","","","","","","","","","","","","","","",""
"","S2","","html-keyboard-response","67","371585","0.0-1.0-76.0","0","0","27885","","null","","","null","8","","NaN","","","","","","","","","","","","","",""
"","response","","html-keyboard-response","68","373339","0.0-1.0-77.0-0.0","0","0","27885","","null","","","null","8","","","1","8","training","adjacent","BA","2","1","N.jpg","O.jpg","NaN","0","0","",""
"","too_slow_prompt","","html-keyboard-response","69","374344","0.0-1.0-79.0-0.0","1","0","27885","","null","","","null","","","","","","","","","","","","","","","","",""
"","time_out","","html-keyboard-response","70","376349","0.0-1.0-80.0-0.0","0","0","27885","","null","","","null","8","","","","","","","","","","","","","","","",""
"","ITI","","html-keyboard-response","71","377352","0.0-1.0-81.0","0","0","27885","","null","","","null","8","","","","","","","","","","","","","","","NaN",""
"","S1","","html-keyboard-response","72","377606","0.0-1.0-83.0","0","0","27885","","null","","","null","9","","","","","","","","","","","","","","","",""
"","ISI","","html-keyboard-response","73","378610","0.0-1.0-84.0","0","0","27885","","null","","","null","9","NaN","","","","","","","","","","","","","","",""
"","S2","","html-keyboard-response","74","378864","0.0-1.0-85.0","0","0","27885","","null","","","null","9","","NaN","","","","","","","","","","","","","",""
"","response","","html-keyboard-response","75","379371","0.0-1.0-86.0-0.0","0","0","27885","","505","","","68","9","","","1","9","training","adjacent","CD","3","4","P.jpg","M.jpg","0","1","0","",""
"","feedback","","html-keyboard-response","76","380374","0.0-1.0-87.0-0.0","0","0","27885","","null","","","null","9","","","","","","","","","","","","","","","",""
"","time_out","","html-keyboard-response","77","382377","0.0-1.0-89.0-0.0","0","0","27885","","null","","","null","9","","","","","","","","","","","","","","","",""
"","ITI","","html-keyboard-response","78","383381","0.0-1.0-90.0","0","0","27885","","null","","","null","9","","","","","","","","","","","","","","","NaN",""
"","S1","","html-keyboard-response","79","383639","0.0-1.0-92.0","0","0","27885","","null","","","null","10","","","","","","","","","","","","","","","",""
"","ISI","","html-keyboard-response","80","384642","0.0-1.0-93.0","0","0","27885","","null","","","null","10","NaN","","","","","","","","","","","","","","",""
"","S2","","html-keyboard-response","81","384896","0.0-1.0-94.0","0","0","27885","","null","","","null","10","","NaN","","","","","","","","","","","","","",""
"","response","","html-keyboard-response","82","385301","0.0-1.0-95.0-0.0","0","0","27885","","402","","","75","10","","","1","10","training","adjacent","ED","5","4","R.jpg","M.jpg","1","0","0","",""
"","feedback","","html-keyboard-response","83","386305","0.0-1.0-96.0-0.0","0","0","27885","","null","","","null","10","","","","","","","","","","","","","","","",""
"","time_out","","html-keyboard-response","84","388309","0.0-1.0-98.0-0.0","0","0","27885","","null","","","null","10","","","","","","","","","","","","","","","",""
"","ITI","","html-keyboard-response","85","389313","0.0-1.0-99.0","0","0","27885","","null","","","null","10","","","","","","","","","","","","","","","NaN",""
"","S1","","html-keyboard-response","86","389568","0.0-1.0-101.0","0","0","27885","","null","","","null","11","","","","","","","","","","","","","","","",""
"","ISI","","html-keyboard-response","87","390571","0.0-1.0-102.0","0","0","27885","","513","","","68","11","d","","","","","","","","","","","","","","",""
"","S2","","html-keyboard-response","88","390646","0.0-1.0-103.0","0","0","27885","","72","","","68","11","","d","1","11","training","adjacent","BC","2","3","N.jpg","P.jpg","0","1","0","",""
"","feedback","","html-keyboard-response","89","391651","0.0-1.0-105.0-0.0","0","0","27885","","null","","","null","11","","","","","","","","","","","","","","","",""
"","time_out","","html-keyboard-response","90","393654","0.0-1.0-107.0-0.0","0","0","27885","","null","","","null","11","","","","","","","","","","","","","","","",""
"","ITI","","html-keyboard-response","91","394657","0.0-1.0-108.0","0","0","27885","","null","","","null","11","","","","","","","","","","","","","","","NaN",""
"","S1","","html-keyboard-response","92","394911","0.0-1.0-110.0","0","0","27885","","null","","","null","12","","","","","","","","","","","","","","","",""
"","ISI","","html-keyboard-response","93","395915","0.0-1.0-111.0","0","0","27885","","null","","","null","12","NaN","","","","","","","","","","","","","","",""
"","S2","","html-keyboard-response","94","396170","0.0-1.0-112.0","0","0","27885","","null","","","null","12","","NaN","","","","","","","","","","","","","",""
"","response","","html-keyboard-response","95","396758","0.0-1.0-113.0-0.0","0","0","27885","","586","","","75","12","","","1","12","training","adjacent","FE","6","5","L.jpg","R.jpg","1","0","0","",""
"","feedback","","html-keyboard-response","96","397762","0.0-1.0-114.0-0.0","0","0","27885","","null","","","null","12","","","","","","","","","","","","","","","",""
"","time_out","","html-keyboard-response","97","399766","0.0-1.0-116.0-0.0","0","0","27885","","null","","","null","12","","","","","","","","","","","","","","","",""
"","ITI","","html-keyboard-response","98","400776","0.0-1.0-117.0","0","0","27885","","null","","","null","12","","","","","","","","","","","","","","","NaN",""
"","S1","","html-keyboard-response","99","401029","0.0-1.0-119.0","0","0","27885","","null","","","null","13","","","","","","","","","","","","","","","",""
"","ISI","","html-keyboard-response","100","402032","0.0-1.0-120.0","0","0","27885","","778","","","68","13","d","","","","","","","","","","","","","","",""
"","S2","","html-keyboard-response","101","402284","0.0-1.0-121.0","0","0","27885","","249","","","68","13","","d","1","13","training","adjacent","CD","3","4","P.jpg","M.jpg","0","1","0","",""
"","feedback","","html-keyboard-response","102","403288","0.0-1.0-123.0-0.0","0","0","27885","","null","","","null","13","","","","","","","","","","","","","","","",""
"","time_out","","html-keyboard-response","103","405292","0.0-1.0-125.0-0.0","0","0","27885","","null","","","null","13","","","","","","","","","","","","","","","",""
"","ITI","","html-keyboard-response","104","406296","0.0-1.0-126.0","0","0","27885","","null","","","null","13","","","","","","","","","","","","","","","NaN",""
"","S1","","html-keyboard-response","105","406549","0.0-1.0-128.0","0","0","27885","","null","","","null","14","","","","","","","","","","","","","","","",""
"","ISI","","html-keyboard-response","106","407552","0.0-1.0-129.0","0","0","27885","","null","","","null","14","NaN","","","","","","","","","","","","","","",""
"","S2","","html-keyboard-response","107","407806","0.0-1.0-130.0","0","0","27885","","null","","","null","14","","NaN","","","","","","","","","","","","","",""
"","response","","html-keyboard-response","108","408366","0.0-1.0-131.0-0.0","0","0","27885","","557","","","68","14","","","1","14","training","adjacent","FG","6","7","L.jpg","Q.jpg","0","1","0","",""
"","feedback","","html-keyboard-response","109","409370","0.0-1.0-132.0-0.0","0","0","27885","","null","","","null","14","","","","","","","","","","","","","","","",""
"","time_out","","html-keyboard-response","110","411373","0.0-1.0-134.0-0.0","0","0","27885","","null","","","null","14","","","","","","","","","","","","","","","",""
"","ITI","","html-keyboard-response","111","412376","0.0-1.0-135.0","0","0","27885","","null","","","null","14","","","","","","","","","","","","","","","NaN",""
"","S1","","html-keyboard-response","112","412629","0.0-1.0-137.0","0","0","27885","","null","","","null","15","","","","","","","","","","","","","","","",""
"","ISI","","html-keyboard-response","113","413633","0.0-1.0-138.0","0","0","27885","","null","","","null","15","NaN","","","","","","","","","","","","","","",""
"","S2","","html-keyboard-response","114","413887","0.0-1.0-139.0","0","0","27885","","null","","","null","15","","NaN","","","","","","","","","","","","","",""
"","response","","html-keyboard-response","115","414684","0.0-1.0-140.0-0.0","0","0","27885","","794","","","68","15","","","1","15","training","adjacent","AB","1","2","O.jpg","N.jpg","0","1","0","",""
"","feedback","","html-keyboard-response","116","415688","0.0-1.0-141.0-0.0","0","0","27885","","null","","","null","15","","","","","","","","","","","","","","","",""
"","time_out","","html-keyboard-response","117","417691","0.0-1.0-143.0-0.0","0","0","27885","","null","","","null","15","","","","","","","","","","","","","","","",""
"","ITI","","html-keyboard-response","118","418695","0.0-1.0-144.0","0","0","27885","","null","","","null","15","","","","","","","","","","","","","","","NaN",""
"","S1","","html-keyboard-response","119","418949","0.0-1.0-146.0","0","0","27885","","null","","","null","16","","","","","","","","","","","","","","","",""
"","ISI","","html-keyboard-response","120","419952","0.0-1.0-147.0","0","0","27885","","null","","","null","16","NaN","","","","","","","","","","","","","","",""
"","S2","","html-keyboard-response","121","420207","0.0-1.0-148.0","0","0","27885","","null","","","null","16","","NaN","","","","","","","","","","","","","",""
"","response","","html-keyboard-response","122","421027","0.0-1.0-149.0-0.0","0","0","27885","","817","","","75","16","","","1","16","training","adjacent","BA","2","1","N.jpg","O.jpg","1","0","0","",""
"","feedback","","html-keyboard-response","123","422031","0.0-1.0-150.0-0.0","0","0","27885","","null","","","null","16","","","","","","","","","","","","","","","",""
"","time_out","","html-keyboard-response","124","424035","0.0-1.0-152.0-0.0","0","0","27885","","null","","","null","16","","","","","","","","","","","","","","","",""
"","ITI","","html-keyboard-response","125","425039","0.0-1.0-153.0","0","0","27885","","null","","","null","16","","","","","","","","","","","","","","","NaN",""
"","S1","","html-keyboard-response","126","425293","0.0-1.0-155.0","0","0","27885","","null","","","null","17","","","","","","","","","","","","","","","",""
"","ISI","","html-keyboard-response","127","426296","0.0-1.0-156.0","0","0","27885","","null","","","null","17","NaN","","","","","","","","","","","","","","",""
"","S2","","html-keyboard-response","128","426498","0.0-1.0-157.0","0","0","27885","","200","","","68","17","","d","1","17","training","adjacent","GF","7","6","Q.jpg","L.jpg","0","0","1","",""
"","feedback","","html-keyboard-response","129","427503","0.0-1.0-159.0-0.0","0","0","27885","","null","","","null","17","","","","","","","","","","","","","","","",""
"","ITI","","html-keyboard-response","130","428506","0.0-1.0-162.0","0","0","27885","","null","","","null","17","","","","","","","","","","","","","","","NaN",""
"","S1","","html-keyboard-response","131","428759","0.0-1.0-164.0","0","0","27885","","null","","","null","18","","","","","","","","","","","","","","","",""
"","ISI","","html-keyboard-response","132","429762","0.0-1.0-165.0","0","0","27885","","null","","","null","18","NaN","","","","","","","","","","","","","","",""
"","S2","","html-keyboard-response","133","430014","0.0-1.0-166.0","0","0","27885","","249","","","75","18","","k","1","18","training","adjacent","EF","5","6","R.jpg","L.jpg","1","1","1","",""
"","feedback","","html-keyboard-response","134","431031","0.0-1.0-168.0-0.0","0","0","27885","","null","","","null","18","","","","","","","","","","","","","","","",""
"","ITI","","html-keyboard-response","135","432035","0.0-1.0-171.0","0","0","27885","","null","","","null","18","","","","","","","","","","","","","","","NaN",""
"","S1","","html-keyboard-response","136","432288","0.0-1.0-173.0","0","0","27885","","null","","","null","19","","","","","","","","","","","","","","","",""
"","ISI","","html-keyboard-response","137","433292","0.0-1.0-174.0","0","0","27885","","null","","","null","19","NaN","","","","","","","","","","","","","","",""
"","S2","","html-keyboard-response","138","433546","0.0-1.0-175.0","0","0","27885","","null","","","null","19","","NaN","","","","","","","","","","","","","",""
"","response","","html-keyboard-response","139","433741","0.0-1.0-176.0-0.0","0","0","27885","","192","","","75","19","","","1","19","training","adjacent","DC","4","3","M.jpg","P.jpg","1","0","0","",""
"","feedback","","html-keyboard-response","140","434746","0.0-1.0-177.0-0.0","0","0","27885","","null","","","null","19","","","","","","","","","","","","","","","",""
"","time_out","","html-keyboard-response","141","436750","0.0-1.0-179.0-0.0","0","0","27885","","null","","","null","19","","","","","","","","","","","","","","","",""
"","ITI","","html-keyboard-response","142","437753","0.0-1.0-180.0","0","0","27885","","null","","","null","19","","","","","","","","","","","","","","","NaN",""
"","S1","","html-keyboard-response","143","438007","0.0-1.0-182.0","0","0","27885","","null","","","null","20","","","","","","","","","","","","","","","",""
"","ISI","","html-keyboard-response","144","439012","0.0-1.0-183.0","0","0","27885","","null","","","null","20","NaN","","","","","","","","","","","","","","",""
"","S2","","html-keyboard-response","145","439265","0.0-1.0-184.0","0","0","27885","","null","","","null","20","","NaN","","","","","","","","","","","","","",""
"","response","","html-keyboard-response","146","439477","0.0-1.0-185.0-0.0","0","0","27885","","209","","","68","20","","","1","20","training","adjacent","FE","6","5","L.jpg","R.jpg","0","0","1","",""
"","feedback","","html-keyboard-response","147","440481","0.0-1.0-186.0-0.0","0","0","27885","","null","","","null","20","","","","","","","","","","","","","","","",""
"","ITI","","html-keyboard-response","148","441485","0.0-1.0-189.0","0","0","27885","","null","","","null","20","","","","","","","","","","","","","","","NaN",""
"","S1","","html-keyboard-response","149","441739","0.0-1.0-191.0","0","0","27885","","null","","","null","21","","","","","","","","","","","","","","","",""
"","ISI","","html-keyboard-response","150","442743","0.0-1.0-192.0","0","0","27885","","null","","","null","21","NaN","","","","","","","","","","","","","","",""
"","S2","","html-keyboard-response","151","442997","0.0-1.0-193.0","0","0","27885","","null","","","null","21","","NaN","","","","","","","","","","","","","",""
"","response","","html-keyboard-response","152","443389","0.0-1.0-194.0-0.0","0","0","27885","","390","","","68","21","","","1","21","training","adjacent","ED","5","4","R.jpg","M.jpg","0","0","1","",""
"","feedback","","html-keyboard-response","153","444392","0.0-1.0-195.0-0.0","0","0","27885","","null","","","null","21","","","","","","","","","","","","","","","",""
"","ITI","","html-keyboard-response","154","445396","0.0-1.0-198.0","0","0","27885","","null","","","null","21","","","","","","","","","","","","","","","NaN",""
"","S1","","html-keyboard-response","155","445650","0.0-1.0-200.0","0","0","27885","","null","","","null","22","","","","","","","","","","","","","","","",""
"","ISI","","html-keyboard-response","156","446654","0.0-1.0-201.0","0","0","27885","","null","","","null","22","NaN","","","","","","","","","","","","","","",""
"","S2","","html-keyboard-response","157","446907","0.0-1.0-202.0","0","0","27885","","null","","","null","22","","NaN","","","","","","","","","","","","","",""
"","response","","html-keyboard-response","158","447302","0.0-1.0-203.0-0.0","0","0","27885","","392","","","68","22","","","1","22","training","adjacent","EF","5","6","R.jpg","L.jpg","0","1","0","",""
"","feedback","","html-keyboard-response","159","448306","0.0-1.0-204.0-0.0","0","0","27885","","null","","","null","22","","","","","","","","","","","","","","","",""
"","time_out","","html-keyboard-response","160","450310","0.0-1.0-206.0-0.0","0","0","27885","","null","","","null","22","","","","","","","","","","","","","","","",""
"","ITI","","html-keyboard-response","161","451313","0.0-1.0-207.0","0","0","27885","","null","","","null","22","","","","","","","","","","","","","","","NaN",""
"","S1","","html-keyboard-response","162","451566","0.0-1.0-209.0","0","0","27885","","null","","","null","23","","","","","","","","","","","","","","","",""
"","ISI","","html-keyboard-response","163","452574","0.0-1.0-210.0","0","0","27885","","null","","","null","23","NaN","","","","","","","","","","","","","","",""
"","S2","","html-keyboard-response","164","452829","0.0-1.0-211.0","0","0","27885","","null","","","null","23","","NaN","","","","","","","","","","","","","",""
"","response","","html-keyboard-response","165","453149","0.0-1.0-212.0-0.0","0","0","27885","","316","","","75","23","","","1","23","training","adjacent","BA","2","1","N.jpg","O.jpg","1","0","0","",""
"","feedback","","html-keyboard-response","166","454152","0.0-1.0-213.0-0.0","0","0","27885","","null","","","null","23","","","","","","","","","","","","","","","",""
"","time_out","","html-keyboard-response","167","456156","0.0-1.0-215.0-0.0","0","0","27885","","null","","","null","23","","","","","","","","","","","","","","","",""
"","ITI","","html-keyboard-response","168","457168","0.0-1.0-216.0","0","0","27885","","null","","","null","23","","","","","","","","","","","","","","","NaN",""
"","S1","","html-keyboard-response","169","457421","0.0-1.0-218.0","0","0","27885","","null","","","null","24","","","","","","","","","","","","","","","",""
"","ISI","","html-keyboard-response","170","458425","0.0-1.0-219.0","0","0","27885","","null","","","null","24","NaN","","","","","","","","","","","","","","",""
"","S2","","html-keyboard-response","171","458679","0.0-1.0-220.0","0","0","27885","","null","","","null","24","","NaN","","","","","","","","","","","","","",""
"","response","","html-keyboard-response","172","458753","0.0-1.0-221.0-0.0","0","0","27885","","71","","","68","24","","","1","24","training","adjacent","AB","1","2","O.jpg","N.jpg","0","1","0","",""
"","feedback","","html-keyboard-response","173","459758","0.0-1.0-222.0-0.0","0","0","27885","","null","","","null","24","","","","","","","","","","","","","","","",""
"","time_out","","html-keyboard-response","174","461761","0.0-1.0-224.0-0.0","0","0","27885","","null","","","null","24","","","","","","","","","","","","","","","",""
"","ITI","","html-keyboard-response","175","462765","0.0-1.0-225.0","0","0","27885","","null","","","null","24","","","","","","","","","","","","","","","NaN",""
"","S1","","html-keyboard-response","176","463020","0.0-1.0-227.0","0","0","27885","","null","","","null","25","","","","","","","","","","","","","","","",""
"","ISI","","html-keyboard-response","177","464023","0.0-1.0-228.0","0","0","27885","","261","","","75","25","k","","","","","","","","","","","","","","",""
"","S2","","html-keyboard-response","178","464277","0.0-1.0-229.0","0","0","27885","","null","","","null","25","","NaN","","","","","","","","","","","","","",""
"","response","","html-keyboard-response","179","465189","0.0-1.0-230.0-0.0","0","0","27885","","909","","","75","25","","","1","25","training","adjacent","FG","6","7","L.jpg","Q.jpg","1","1","1","",""
"","feedback","","html-keyboard-response","180","466193","0.0-1.0-231.0-0.0","0","0","27885","","null","","","null","25","","","","","","","","","","","","","","","",""
"","ITI","","html-keyboard-response","181","467197","0.0-1.0-234.0","0","0","27885","","null","","","null","25","","","","","","","","","","","","","","","NaN",""
"","S1","","html-keyboard-response","182","467450","0.0-1.0-236.0","0","0","27885","","null","","","null","26","","","","","","","","","","","","","","","",""
"","ISI","","html-keyboard-response","183","468454","0.0-1.0-237.0","0","0","27885","","null","","","null","26","NaN","","","","","","","","","","","","","","",""
"","S2","","html-keyboard-response","184","468708","0.0-1.0-238.0","0","0","27885","","null","","","null","26","","NaN","","","","","","","","","","","","","",""
"","response","","html-keyboard-response","185","469333","0.0-1.0-239.0-0.0","0","0","27885","","621","","","68","26","","","1","26","training","adjacent","ED","5","4","R.jpg","M.jpg","0","0","1","",""
"","feedback","","html-keyboard-response","186","470336","0.0-1.0-240.0-0.0","0","0","27885","","null","","","null","26","","","","","","","","","","","","","","","",""
"","ITI","","html-keyboard-response","187","471340","0.0-1.0-243.0","0","0","27885","","null","","","null","26","","","","","","","","","","","","","","","NaN",""
"","S1","","html-keyboard-response","188","471593","0.0-1.0-245.0","0","0","27885","","null","","","null","27","","","","","","","","","","","","","","","",""
"","ISI","","html-keyboard-response","189","472596","0.0-1.0-246.0","0","0","27885","","null","","","null","27","NaN","","","","","","","","","","","","","","",""
"","S2","","html-keyboard-response","190","472850","0.0-1.0-247.0","0","0","27885","","null","","","null","27","","NaN","","","","","","","","","","","","","",""
"","response","","html-keyboard-response","191","473280","0.0-1.0-248.0-0.0","0","0","27885","","427","","","75","27","","","1","27","training","adjacent","DE","4","5","M.jpg","R.jpg","1","1","1","",""
"","feedback","","html-keyboard-response","192","474284","0.0-1.0-249.0-0.0","0","0","27885","","null","","","null","27","","","","","","","","","","","","","","","",""
"","ITI","","html-keyboard-response","193","475288","0.0-1.0-252.0","0","0","27885","","null","","","null","27","","","","","","","","","","","","","","","NaN",""
"","S1","","html-keyboard-response","194","475542","0.0-1.0-254.0","0","0","27885","","null","","","null","28","","","","","","","","","","","","","","","",""
"","ISI","","html-keyboard-response","195","476545","0.0-1.0-255.0","0","0","27885","","null","","","null","28","NaN","","","","","","","","","","","","","","",""
"","S2","","html-keyboard-response","196","476799","0.0-1.0-256.0","0","0","27885","","null","","","null","28","","NaN","","","","","","","","","","","","","",""
"","response","","html-keyboard-response","197","477296","0.0-1.0-257.0-0.0","0","0","27885","","494","","","68","28","","","1","28","training","adjacent","DE","4","5","M.jpg","R.jpg","0","1","0","",""
"","feedback","","html-keyboard-response","198","478301","0.0-1.0-258.0-0.0","0","0","27885","","null","","","null","28","","","","","","","","","","","","","","","",""
"","time_out","","html-keyboard-response","199","480304","0.0-1.0-260.0-0.0","0","0","27885","","null","","","null","28","","","","","","","","","","","","","","","",""
"","ITI","","html-keyboard-response","200","481307","0.0-1.0-261.0","0","0","27885","","null","","","null","28","","","","","","","","","","","","","","","NaN",""
"","S1","","html-keyboard-response","201","481561","0.0-1.0-263.0","0","0","27885","","null","","","null","29","","","","","","","","","","","","","","","",""
"","ISI","","html-keyboard-response","202","482573","0.0-1.0-264.0","0","0","27885","","null","","","null","29","NaN","","","","","","","","","","","","","","",""
"","S2","","html-keyboard-response","203","482827","0.0-1.0-265.0","0","0","27885","","null","","","null","29","","NaN","","","","","","","","","","","","","",""
"","response","","html-keyboard-response","204","483090","0.0-1.0-266.0-0.0","0","0","27885","","260","","","75","29","","","1","29","training","adjacent","FE","6","5","L.jpg","R.jpg","1","0","0","",""
"","feedback","","html-keyboard-response","205","484094","0.0-1.0-267.0-0.0","0","0","27885","","null","","","null","29","","","","","","","","","","","","","","","",""
"","time_out","","html-keyboard-response","206","486098","0.0-1.0-269.0-0.0","0","0","27885","","null","","","null","29","","","","","","","","","","","","","","","",""
"","ITI","","html-keyboard-response","207","487102","0.0-1.0-270.0","0","0","27885","","null","","","null","29","","","","","","","","","","","","","","","NaN",""
"","S1","","html-keyboard-response","208","487356","0.0-1.0-272.0","0","0","27885","","null","","","null","30","","","","","","","","","","","","","","","",""
"","ISI","","html-keyboard-response","209","488359","0.0-1.0-273.0","0","0","27885","","649","","","68","30","d","","","","","","","","","","","","","","",""
"","S2","","html-keyboard-response","210","488494","0.0-1.0-274.0","0","0","27885","","132","","","68","30","","d","1","30","training","adjacent","GF","7","6","Q.jpg","L.jpg","0","0","1","",""
"","feedback","","html-keyboard-response","211","489498","0.0-1.0-276.0-0.0","0","0","27885","","null","","","null","30","","","","","","","","","","","","","","","",""
"","ITI","","html-keyboard-response","212","490501","0.0-1.0-279.0","0","0","27885","","null","","","null","30","","","","","","","","","","","","","","","NaN",""
"","S1","","html-keyboard-response","213","490754","0.0-1.0-281.0","0","0","27885","","null","","","null","31","","","","","","","","","","","","","","","",""
"","ISI","","html-keyboard-response","214","491757","0.0-1.0-282.0","0","0","27885","","786","","","75","31","k","","","","","","","","","","","","","","",""
"","S2","","html-keyboard-response","215","492010","0.0-1.0-283.0","0","0","27885","","null","","","null","31","","NaN","","","","","","","","","","","","","",""
"","response","","html-keyboard-response","216","492171","0.0-1.0-284.0-0.0","0","0","27885","","158","","","75","31","","","1","31","training","adjacent","CD","3","4","P.jpg","M.jpg","1","1","1","",""
"","feedback","","html-keyboard-response","217","493174","0.0-1.0-285.0-0.0","0","0","27885","","null","","","null","31","","","","","","","","","","","","","","","",""
"","ITI","","html-keyboard-response","218","494178","0.0-1.0-288.0","0","0","27885","","null","","","null","31","","","","","","","","","","","","","","","NaN",""
"","S1","","html-keyboard-response","219","494432","0.0-1.0-290.0","0","0","27885","","null","","","null","32","","","","","","","","","","","","","","","",""
"","ISI","","html-keyboard-response","220","495436","0.0-1.0-291.0","0","0","27885","","null","","","null","32","NaN","","","","","","","","","","","","","","",""
"","S2","","html-keyboard-response","221","495690","0.0-1.0-292.0","0","0","27885","","null","","","null","32","","NaN","","","","","","","","","","","","","",""
"","response","","html-keyboard-response","222","496206","0.0-1.0-293.0-0.0","0","0","27885","","512","","","68","32","","","1","32","training","adjacent","FG","6","7","L.jpg","Q.jpg","0","1","0","",""
"","feedback","","html-keyboard-response","223","497210","0.0-1.0-294.0-0.0","0","0","27885","","null","","","null","32","","","","","","","","","","","","","","","",""
"","time_out","","html-keyboard-response","224","499214","0.0-1.0-296.0-0.0","0","0","27885","","null","","","null","32","","","","","","","","","","","","","","","",""
"","ITI","","html-keyboard-response","225","500217","0.0-1.0-297.0","0","0","27885","","null","","","null","32","","","","","","","","","","","","","","","NaN",""
"","S1","","html-keyboard-response","226","500470","0.0-1.0-299.0","0","0","27885","","null","","","null","33","","","","","","","","","","","","","","","",""
"","ISI","","html-keyboard-response","227","501474","0.0-1.0-300.0","0","0","27885","","null","","","null","33","NaN","","","","","","","","","","","","","","",""
"","S2","","html-keyboard-response","228","501727","0.0-1.0-301.0","0","0","27885","","null","","","null","33","","NaN","","","","","","","","","","","","","",""
"","response","","html-keyboard-response","229","502584","0.0-1.0-302.0-0.0","0","0","27885","","854","","","75","33","","","1","33","training","adjacent","CB","3","2","P.jpg","N.jpg","1","0","0","",""
"","feedback","","html-keyboard-response","230","503588","0.0-1.0-303.0-0.0","0","0","27885","","null","","","null","33","","","","","","","","","","","","","","","",""
"","time_out","","html-keyboard-response","231","505592","0.0-1.0-305.0-0.0","0","0","27885","","null","","","null","33","","","","","","","","","","","","","","","",""
"","ITI","","html-keyboard-response","232","506596","0.0-1.0-306.0","0","0","27885","","null","","","null","33","","","","","","","","","","","","","","","NaN",""
"","S1","","html-keyboard-response","233","506848","0.0-1.0-308.0","0","0","27885","","null","","","null","34","","","","","","","","","","","","","","","",""
"","ISI","","html-keyboard-response","234","507852","0.0-1.0-309.0","0","0","27885","","null","","","null","34","NaN","","","","","","","","","","","","","","",""
"","S2","","html-keyboard-response","235","508106","0.0-1.0-310.0","0","0","27885","","null","","","null","34","","NaN","","","","","","","","","","","","","",""
"","response","","html-keyboard-response","236","508898","0.0-1.0-311.0-0.0","0","0","27885","","790","","","68","34","","","1","34","training","adjacent","CB","3","2","P.jpg","N.jpg","0","0","1","",""
"","feedback","","html-keyboard-response","237","509901","0.0-1.0-312.0-0.0","0","0","27885","","null","","","null","34","","","","","","","","","","","","","","","",""
"","ITI","","html-keyboard-response","238","510904","0.0-1.0-315.0","0","0","27885","","null","","","null","34","","","","","","","","","","","","","","","NaN",""
"","S1","","html-keyboard-response","239","511157","0.0-1.0-317.0","0","0","27885","","null","","","null","35","","","","","","","","","","","","","","","",""
"","ISI","","html-keyboard-response","240","512161","0.0-1.0-318.0","0","0","27885","","null","","","null","35","NaN","","","","","","","","","","","","","","",""
"","S2","","html-keyboard-response","241","512414","0.0-1.0-319.0","0","0","27885","","null","","","null","35","","NaN","","","","","","","","","","","","","",""
"","response","","html-keyboard-response","242","513474","0.0-1.0-320.0-0.0","0","0","27885","","1057","","","68","35","","","1","35","training","adjacent","DC","4","3","M.jpg","P.jpg","0","0","1","",""
"","feedback","","html-keyboard-response","243","514479","0.0-1.0-321.0-0.0","0","0","27885","","null","","","null","35","","","","","","","","","","","","","","","",""
"","ITI","","html-keyboard-response","244","515483","0.0-1.0-324.0","0","0","27885","","null","","","null","35","","","","","","","","","","","","","","","NaN",""
"","S1","","html-keyboard-response","245","515737","0.0-1.0-326.0","0","0","27885","","null","","","null","36","","","","","","","","","","","","","","","",""
"","ISI","","html-keyboard-response","246","516740","0.0-1.0-327.0","0","0","27885","","null","","","null","36","NaN","","","","","","","","","","","","","","",""
"","S2","","html-keyboard-response","247","516994","0.0-1.0-328.0","0","0","27885","","null","","","null","36","","NaN","","","","","","","","","","","","","",""
"","response","","html-keyboard-response","248","517911","0.0-1.0-329.0-0.0","0","0","27885","","914","","","75","36","","","1","36","training","adjacent","ED","5","4","R.jpg","M.jpg","1","0","0","",""
"","feedback","","html-keyboard-response","249","518925","0.0-1.0-330.0-0.0","0","0","27885","","null","","","null","36","","","","","","","","","","","","","","","",""
"","time_out","","html-keyboard-response","250","520929","0.0-1.0-332.0-0.0","0","0","27885","","null","","","null","36","","","","","","","","","","","","","","","",""
"","ITI","","html-keyboard-response","251","521932","0.0-1.0-333.0","0","0","27885","","null","","","null","36","","","","","","","","","","","","","","","NaN",""
"","S1","","html-keyboard-response","252","522185","0.0-1.0-335.0","0","0","27885","","null","","","null","37","","","","","","","","","","","","","","","",""
"","ISI","","html-keyboard-response","253","523189","0.0-1.0-336.0","0","0","27885","","null","","","null","37","NaN","","","","","","","","","","","","","","",""
"","S2","","html-keyboard-response","254","523443","0.0-1.0-337.0","0","0","27885","","null","","","null","37","","NaN","","","","","","","","","","","","","",""
"","response","","html-keyboard-response","255","524352","0.0-1.0-338.0-0.0","0","0","27885","","907","","","68","37","","","1","37","training","adjacent","GF","7","6","Q.jpg","L.jpg","0","0","1","",""
"","feedback","","html-keyboard-response","256","525355","0.0-1.0-339.0-0.0","0","0","27885","","null","","","null","37","","","","","","","","","","","","","","","",""
"","ITI","","html-keyboard-response","257","526359","0.0-1.0-342.0","0","0","27885","","null","","","null","37","","","","","","","","","","","","","","","NaN",""
"","S1","","html-keyboard-response","258","526613","0.0-1.0-344.0","0","0","27885","","null","","","null","38","","","","","","","","","","","","","","","",""
"","ISI","","html-keyboard-response","259","527616","0.0-1.0-345.0","0","0","27885","","null","","","null","38","NaN","","","","","","","","","","","","","","",""
"","S2","","html-keyboard-response","260","527869","0.0-1.0-346.0","0","0","27885","","null","","","null","38","","NaN","","","","","","","","","","","","","",""
"","response","","html-keyboard-response","261","528545","0.0-1.0-347.0-0.0","0","0","27885","","674","","","68","38","","","1","38","training","adjacent","GF","7","6","Q.jpg","L.jpg","0","0","1","",""
"","feedback","","html-keyboard-response","262","529549","0.0-1.0-348.0-0.0","0","0","27885","","null","","","null","38","","","","","","","","","","","","","","","",""
"","ITI","","html-keyboard-response","263","530552","0.0-1.0-351.0","0","0","27885","","null","","","null","38","","","","","","","","","","","","","","","NaN",""
"","S1","","html-keyboard-response","264","530806","0.0-1.0-353.0","0","0","27885","","null","","","null","39","","","","","","","","","","","","","","","",""
"","ISI","","html-keyboard-response","265","531809","0.0-1.0-354.0","0","0","27885","","null","","","null","39","NaN","","","","","","","","","","","","","","",""
"","S2","","html-keyboard-response","266","532064","0.0-1.0-355.0","0","0","27885","","null","","","null","39","","NaN","","","","","","","","","","","","","",""
"","response","","html-keyboard-response","267","533316","0.0-1.0-356.0-0.0","0","0","27885","","1250","","","68","39","","","1","39","training","adjacent","DE","4","5","M.jpg","R.jpg","0","1","0","",""
"","feedback","","html-keyboard-response","268","534320","0.0-1.0-357.0-0.0","0","0","27885","","null","","","null","39","","","","","","","","","","","","","","","",""
"","time_out","","html-keyboard-response","269","536324","0.0-1.0-359.0-0.0","0","0","27885","","null","","","null","39","","","","","","","","","","","","","","","",""
"","ITI","","html-keyboard-response","270","537328","0.0-1.0-360.0","0","0","27885","","null","","","null","39","","","","","","","","","","","","","","","NaN",""
"","S1","","html-keyboard-response","271","537581","0.0-1.0-362.0","0","0","27885","","null","","","null","40","","","","","","","","","","","","","","","",""
"","ISI","","html-keyboard-response","272","538587","0.0-1.0-363.0","0","0","27885","","null","","","null","40","NaN","","","","","","","","","","","","","","",""
"","S2","","html-keyboard-response","273","538840","0.0-1.0-364.0","0","0","27885","","null","","","null","40","","NaN","","","","","","","","","","","","","",""
"","response","","html-keyboard-response","274","539873","0.0-1.0-365.0-0.0","0","0","27885","","1029","","","75","40","","","1","40","training","adjacent","DC","4","3","M.jpg","P.jpg","1","0","0","",""
"","feedback","","html-keyboard-response","275","540880","0.0-1.0-366.0-0.0","0","0","27885","","null","","","null","40","","","","","","","","","","","","","","","",""
"","time_out","","html-keyboard-response","276","542884","0.0-1.0-368.0-0.0","0","0","27885","","null","","","null","40","","","","","","","","","","","","","","","",""
"","ITI","","html-keyboard-response","277","543888","0.0-1.0-369.0","0","0","27885","","null","","","null","40","","","","","","","","","","","","","","","NaN",""
"","S1","","html-keyboard-response","278","544142","0.0-1.0-371.0","0","0","27885","","null","","","null","41","","","","","","","","","","","","","","","",""
"","ISI","","html-keyboard-response","279","545145","0.0-1.0-372.0","0","0","27885","","null","","","null","41","NaN","","","","","","","","","","","","","","",""
"","S2","","html-keyboard-response","280","545148","0.0-1.0-373.0","0","0","27885","","0","","","68","41","","d","1","41","training","adjacent","EF","5","6","R.jpg","L.jpg","0","1","0","",""
"","feedback","","html-keyboard-response","281","546152","0.0-1.0-375.0-0.0","0","0","27885","","null","","","null","41","","","","","","","","","","","","","","","",""
"","time_out","","html-keyboard-response","282","548155","0.0-1.0-377.0-0.0","0","0","27885","","null","","","null","41","","","","","","","","","","","","","","","",""
"","ITI","","html-keyboard-response","283","549158","0.0-1.0-378.0","0","0","27885","","843","","","75","41","","","","","","","","","","","","","","","k",""
"","S1","","html-keyboard-response","284","549412","0.0-1.0-380.0","0","0","27885","","null","","","null","42","","","","","","","","","","","","","","","",""
"","ISI","","html-keyboard-response","285","550415","0.0-1.0-381.0","0","0","27885","","435","","","75","42","k","","","","","","","","","","","","","","",""
"","S2","","html-keyboard-response","286","550669","0.0-1.0-382.0","0","0","27885","","null","","","null","42","","NaN","","","","","","","","","","","","","",""
"","response","","html-keyboard-response","287","551262","0.0-1.0-383.0-0.0","0","0","27885","","589","","","75","42","","","1","42","training","adjacent","BC","2","3","N.jpg","P.jpg","1","1","1","",""
"","feedback","","html-keyboard-response","288","552265","0.0-1.0-384.0-0.0","0","0","27885","","null","","","null","42","","","","","","","","","","","","","","","",""
"","ITI","","html-keyboard-response","289","553268","0.0-1.0-387.0","0","0","27885","","null","","","null","42","","","","","","","","","","","","","","","NaN",""
"","S1","","html-keyboard-response","290","553522","0.0-1.0-389.0","0","0","27885","","null","","","null","43","","","","","","","","","","","","","","","",""
"","ISI","","html-keyboard-response","291","554525","0.0-1.0-390.0","0","0","27885","","null","","","null","43","NaN","","","","","","","","","","","","","","",""
"","S2","","html-keyboard-response","292","554778","0.0-1.0-391.0","0","0","27885","","null","","","null","43","","NaN","","","","","","","","","","","","","",""
"","response","","html-keyboard-response","293","556227","0.0-1.0-392.0-0.0","0","0","27885","","1447","","","68","43","","","1","43","training","adjacent","EF","5","6","R.jpg","L.jpg","0","1","0","",""
"","feedback","","html-keyboard-response","294","557231","0.0-1.0-393.0-0.0","0","0","27885","","null","","","null","43","","","","","","","","","","","","","","","",""
"","time_out","","html-keyboard-response","295","559235","0.0-1.0-395.0-0.0","0","0","27885","","null","","","null","43","","","","","","","","","","","","","","","",""
"","ITI","","html-keyboard-response","296","560239","0.0-1.0-396.0","0","0","27885","","null","","","null","43","","","","","","","","","","","","","","","NaN",""
"","S1","","html-keyboard-response","297","560492","0.0-1.0-398.0","0","0","27885","","null","","","null","44","","","","","","","","","","","","","","","",""
"","ISI","","html-keyboard-response","298","561496","0.0-1.0-399.0","0","0","27885","","null","","","null","44","NaN","","","","","","","","","","","","","","",""
"","S2","","html-keyboard-response","299","561749","0.0-1.0-400.0","0","0","27885","","null","","","null","44","","NaN","","","","","","","","","","","","","",""
"","response","","html-keyboard-response","300","562726","0.0-1.0-401.0-0.0","0","0","27885","","974","","","75","44","","","1","44","training","adjacent","BC","2","3","N.jpg","P.jpg","1","1","1","",""
"","feedback","","html-keyboard-response","301","563730","0.0-1.0-402.0-0.0","0","0","27885","","null","","","null","44","","","","","","","","","","","","","","","",""
"","ITI","","html-keyboard-response","302","564733","0.0-1.0-405.0","0","0","27885","","null","","","null","44","","","","","","","","","","","","","","","NaN",""
"","S1","","html-keyboard-response","303","564986","0.0-1.0-407.0","0","0","27885","","null","","","null","45","","","","","","","","","","","","","","","",""
"","ISI","","html-keyboard-response","304","565990","0.0-1.0-408.0","0","0","27885","","null","","","null","45","NaN","","","","","","","","","","","","","","",""
"","S2","","html-keyboard-response","305","566243","0.0-1.0-409.0","0","0","27885","","null","","","null","45","","NaN","","","","","","","","","","","","","",""
"","response","","html-keyboard-response","306","567340","0.0-1.0-410.0-0.0","0","0","27885","","1094","","","68","45","","","1","45","training","adjacent","DE","4","5","M.jpg","R.jpg","0","1","0","",""
"","feedback","","html-keyboard-response","307","568344","0.0-1.0-411.0-0.0","0","0","27885","","null","","","null","45","","","","","","","","","","","","","","","",""
"","time_out","","html-keyboard-response","308","570346","0.0-1.0-413.0-0.0","0","0","27885","","null","","","null","45","","","","","","","","","","","","","","","",""
"","ITI","","html-keyboard-response","309","571350","0.0-1.0-414.0","0","0","27885","","null","","","null","45","","","","","","","","","","","","","","","NaN",""
"","S1","","html-keyboard-response","310","571602","0.0-1.0-416.0","0","0","27885","","null","","","null","46","","","","","","","","","","","","","","","",""
"","ISI","","html-keyboard-response","311","572606","0.0-1.0-417.0","0","0","27885","","396","","","75","46","k","","","","","","","","","","","","","","",""
"","S2","","html-keyboard-response","312","572626","0.0-1.0-418.0","0","0","27885","","17","","","75","46","","k","1","46","training","adjacent","BA","2","1","N.jpg","O.jpg","1","0","0","",""
"","feedback","","html-keyboard-response","313","573630","0.0-1.0-420.0-0.0","0","0","27885","","null","","","null","46","","","","","","","","","","","","","","","",""
"","time_out","","html-keyboard-response","314","575632","0.0-1.0-422.0-0.0","0","0","27885","","null","","","null","46","","","","","","","","","","","","","","","",""
"","ITI","","html-keyboard-response","315","576635","0.0-1.0-423.0","0","0","27885","","null","","","null","46","","","","","","","","","","","","","","","NaN",""
"","S1","","html-keyboard-response","316","576888","0.0-1.0-425.0","0","0","27885","","null","","","null","47","","","","","","","","","","","","","","","",""
"","ISI","","html-keyboard-response","317","577891","0.0-1.0-426.0","0","0","27885","","null","","","null","47","NaN","","","","","","","","","","","","","","",""
"","S2","","html-keyboard-response","318","578144","0.0-1.0-427.0","0","0","27885","","null","","","null","47","","NaN","","","","","","","","","","","","","",""
"","response","","html-keyboard-response","319","579591","0.0-1.0-428.0-0.0","0","0","27885","","1444","","","68","47","","","1","47","training","adjacent","CB","3","2","P.jpg","N.jpg","0","0","1","",""
"","feedback","","html-keyboard-response","320","580594","0.0-1.0-429.0-0.0","0","0","27885","","null","","","null","47","","","","","","","","","","","","","","","",""
"","ITI","","html-keyboard-response","321","581598","0.0-1.0-432.0","0","0","27885","","null","","","null","47","","","","","","","","","","","","","","","NaN",""
"","block_over","","html-keyboard-response","322","608208","0.0-1.0-433.0-0.0","0","0","27885","","26606","","","32","47","","","","","","","","","","","","","","","",""
"","S1","","html-keyboard-response","323","608462","0.0-1.0-434.0","0","0","27885","","null","","","null","48","","","","","","","","","","","","","","","",""
"","ISI","","html-keyboard-response","324","609465","0.0-1.0-435.0","0","0","27885","","null","","","null","48","NaN","","","","","","","","","","","","","","",""
"","S2","","html-keyboard-response","325","609718","0.0-1.0-436.0","0","0","27885","","null","","","null","48","","NaN","","","","","","","","","","","","","",""
"","response","","html-keyboard-response","326","610123","0.0-1.0-437.0-0.0","0","0","27885","","403","","","75","48","","","2","48","training","adjacent","BA","2","1","N.jpg","O.jpg","1","0","0","",""
"","feedback","","html-keyboard-response","327","611126","0.0-1.0-438.0-0.0","0","0","27885","","null","","","null","48","","","","","","","","","","","","","","","",""
"","time_out","","html-keyboard-response","328","613129","0.0-1.0-440.0-0.0","0","0","27885","","null","","","null","48","","","","","","","","","","","","","","","",""
"","ITI","","html-keyboard-response","329","614133","0.0-1.0-441.0","0","0","27885","","null","","","null","48","","","","","","","","","","","","","","","NaN",""
"","S1","","html-keyboard-response","330","614386","0.0-1.0-443.0","0","0","27885","","null","","","null","49","","","","","","","","","","","","","","","",""
"","ISI","","html-keyboard-response","331","615389","0.0-1.0-444.0","0","0","27885","","null","","","null","49","NaN","","","","","","","","","","","","","","",""
"","S2","","html-keyboard-response","332","615644","0.0-1.0-445.0","0","0","27885","","null","","","null","49","","NaN","","","","","","","","","","","","","",""
"","response","","html-keyboard-response","333","615996","0.0-1.0-446.0-0.0","0","0","27885","","349","","","68","49","","","2","49","training","adjacent","DC","4","3","M.jpg","P.jpg","0","0","1","",""
"","feedback","","html-keyboard-response","334","617001","0.0-1.0-447.0-0.0","0","0","27885","","null","","","null","49","","","","","","","","","","","","","","","",""
"","ITI","","html-keyboard-response","335","618004","0.0-1.0-450.0","0","0","27885","","null","","","null","49","","","","","","","","","","","","","","","NaN",""
"","S1","","html-keyboard-response","336","618257","0.0-1.0-452.0","0","0","27885","","null","","","null","50","","","","","","","","","","","","","","","",""
"","ISI","","html-keyboard-response","337","619261","0.0-1.0-453.0","0","0","27885","","null","","","null","50","NaN","","","","","","","","","","","","","","",""
"","S2","","html-keyboard-response","338","619515","0.0-1.0-454.0","0","0","27885","","null","","","null","50","","NaN","","","","","","","","","","","","","",""
"","response","","html-keyboard-response","339","620161","0.0-1.0-455.0-0.0","0","0","27885","","643","","","68","50","","","2","50","training","adjacent","DC","4","3","M.jpg","P.jpg","0","0","1","",""
"","feedback","","html-keyboard-response","340","621164","0.0-1.0-456.0-0.0","0","0","27885","","null","","","null","50","","","","","","","","","","","","","","","",""
"","ITI","","html-keyboard-response","341","622168","0.0-1.0-459.0","0","0","27885","","null","","","null","50","","","","","","","","","","","","","","","NaN",""
"","S1","","html-keyboard-response","342","622421","0.0-1.0-461.0","0","0","27885","","null","","","null","51","","","","","","","","","","","","","","","",""
"","ISI","","html-keyboard-response","343","623425","0.0-1.0-462.0","0","0","27885","","null","","","null","51","NaN","","","","","","","","","","","","","","",""
"","S2","","html-keyboard-response","344","623679","0.0-1.0-463.0","0","0","27885","","null","","","null","51","","NaN","","","","","","","","","","","","","",""
"","response","","html-keyboard-response","345","624381","0.0-1.0-464.0-0.0","0","0","27885","","699","","","75","51","","","2","51","training","adjacent","DC","4","3","M.jpg","P.jpg","1","0","0","",""
"","feedback","","html-keyboard-response","346","625385","0.0-1.0-465.0-0.0","0","0","27885","","null","","","null","51","","","","","","","","","","","","","","","",""
"","time_out","","html-keyboard-response","347","627389","0.0-1.0-467.0-0.0","0","0","27885","","null","","","null","51","","","","","","","","","","","","","","","",""
"","ITI","","html-keyboard-response","348","628392","0.0-1.0-468.0","0","0","27885","","null","","","null","51","","","","","","","","","","","","","","","NaN",""
"","S1","","html-keyboard-response","349","628645","0.0-1.0-470.0","0","0","27885","","null","","","null","52","","","","","","","","","","","","","","","",""
"","ISI","","html-keyboard-response","350","629649","0.0-1.0-471.0","0","0","27885","","null","","","null","52","NaN","","","","","","","","","","","","","","",""
"","S2","","html-keyboard-response","351","629903","0.0-1.0-472.0","0","0","27885","","null","","","null","52","","NaN","","","","","","","","","","","","","",""
"","response","","html-keyboard-response","352","630607","0.0-1.0-473.0-0.0","0","0","27885","","701","","","68","52","","","2","52","training","adjacent","BC","2","3","N.jpg","P.jpg","0","1","0","",""
"","feedback","","html-keyboard-response","353","631611","0.0-1.0-474.0-0.0","0","0","27885","","null","","","null","52","","","","","","","","","","","","","","","",""
"","time_out","","html-keyboard-response","354","633616","0.0-1.0-476.0-0.0","0","0","27885","","null","","","null","52","","","","","","","","","","","","","","","",""
"","ITI","","html-keyboard-response","355","634620","0.0-1.0-477.0","0","0","27885","","null","","","null","52","","","","","","","","","","","","","","","NaN",""
"","S1","","html-keyboard-response","356","634873","0.0-1.0-479.0","0","0","27885","","null","","","null","53","","","","","","","","","","","","","","","",""
"","ISI","","html-keyboard-response","357","635877","0.0-1.0-480.0","0","0","27885","","null","","","null","53","NaN","","","","","","","","","","","","","","",""
"","S2","","html-keyboard-response","358","636132","0.0-1.0-481.0","0","0","27885","","null","","","null","53","","NaN","","","","","","","","","","","","","",""
"","response","","html-keyboard-response","359","636754","0.0-1.0-482.0-0.0","0","0","27885","","619","","","75","53","","","2","53","training","adjacent","EF","5","6","R.jpg","L.jpg","1","1","1","",""
"","feedback","","html-keyboard-response","360","637757","0.0-1.0-483.0-0.0","0","0","27885","","null","","","null","53","","","","","","","","","","","","","","","",""
"","ITI","","html-keyboard-response","361","638760","0.0-1.0-486.0","0","0","27885","","null","","","null","53","","","","","","","","","","","","","","","NaN",""
"","S1","","html-keyboard-response","362","639013","0.0-1.0-488.0","0","0","27885","","null","","","null","54","","","","","","","","","","","","","","","",""
"","ISI","","html-keyboard-response","363","640016","0.0-1.0-489.0","0","0","27885","","null","","","null","54","NaN","","","","","","","","","","","","","","",""
"","S2","","html-keyboard-response","364","640270","0.0-1.0-490.0","0","0","27885","","null","","","null","54","","NaN","","","","","","","","","","","","","",""
"","response","","html-keyboard-response","365","641346","0.0-1.0-491.0-0.0","0","0","27885","","1073","","","75","54","","","2","54","training","adjacent","GF","7","6","Q.jpg","L.jpg","1","0","0","",""
"","feedback","","html-keyboard-response","366","642351","0.0-1.0-492.0-0.0","0","0","27885","","null","","","null","54","","","","","","","","","","","","","","","",""
"","time_out","","html-keyboard-response","367","644355","0.0-1.0-494.0-0.0","0","0","27885","","null","","","null","54","","","","","","","","","","","","","","","",""
"","ITI","","html-keyboard-response","368","645359","0.0-1.0-495.0","0","0","27885","","null","","","null","54","","","","","","","","","","","","","","","NaN",""
"","S1","","html-keyboard-response","369","645612","0.0-1.0-497.0","0","0","27885","","null","","","null","55","","","","","","","","","","","","","","","",""
"","ISI","","html-keyboard-response","370","646616","0.0-1.0-498.0","0","0","27885","","null","","","null","55","NaN","","","","","","","","","","","","","","",""
"","S2","","html-keyboard-response","371","646870","0.0-1.0-499.0","0","0","27885","","null","","","null","55","","NaN","","","","","","","","","","","","","",""
"","response","","html-keyboard-response","372","647807","0.0-1.0-500.0-0.0","0","0","27885","","932","","","68","55","","","2","55","training","adjacent","DE","4","5","M.jpg","R.jpg","0","1","0","",""
"","feedback","","html-keyboard-response","373","648810","0.0-1.0-501.0-0.0","0","0","27885","","null","","","null","55","","","","","","","","","","","","","","","",""
"","time_out","","html-keyboard-response","374","650813","0.0-1.0-503.0-0.0","0","0","27885","","null","","","null","55","","","","","","","","","","","","","","","",""
"","ITI","","html-keyboard-response","375","651817","0.0-1.0-504.0","0","0","27885","","null","","","null","55","","","","","","","","","","","","","","","NaN",""
"","S1","","html-keyboard-response","376","652075","0.0-1.0-506.0","0","0","27885","","null","","","null","56","","","","","","","","","","","","","","","",""
"","ISI","","html-keyboard-response","377","653079","0.0-1.0-507.0","0","0","27885","","null","","","null","56","NaN","","","","","","","","","","","","","","",""
"","S2","","html-keyboard-response","378","653333","0.0-1.0-508.0","0","0","27885","","null","","","null","56","","NaN","","","","","","","","","","","","","",""
"","response","","html-keyboard-response","379","653798","0.0-1.0-509.0-0.0","0","0","27885","","463","","","75","56","","","2","56","training","adjacent","AB","1","2","O.jpg","N.jpg","1","1","1","",""
"","feedback","","html-keyboard-response","380","654802","0.0-1.0-510.0-0.0","0","0","27885","","null","","","null","56","","","","","","","","","","","","","","","",""
"","ITI","","html-keyboard-response","381","655806","0.0-1.0-513.0","0","0","27885","","null","","","null","56","","","","","","","","","","","","","","","NaN",""
"","S1","","html-keyboard-response","382","656060","0.0-1.0-515.0","0","0","27885","","null","","","null","57","","","","","","","","","","","","","","","",""
"","ISI","","html-keyboard-response","383","657063","0.0-1.0-516.0","0","0","27885","","null","","","null","57","NaN","","","","","","","","","","","","","","",""
"","S2","","html-keyboard-response","384","657317","0.0-1.0-517.0","0","0","27885","","null","","","null","57","","NaN","","","","","","","","","","","","","",""
"","response","","html-keyboard-response","385","658412","0.0-1.0-518.0-0.0","0","0","27885","","1093","","","68","57","","","2","57","training","adjacent","FE","6","5","L.jpg","R.jpg","0","0","1","",""
"","feedback","","html-keyboard-response","386","659417","0.0-1.0-519.0-0.0","0","0","27885","","null","","","null","57","","","","","","","","","","","","","","","",""
"","ITI","","html-keyboard-response","387","660421","0.0-1.0-522.0","0","0","27885","","null","","","null","57","","","","","","","","","","","","","","","NaN",""
"","S1","","html-keyboard-response","388","660675","0.0-1.0-524.0","0","0","27885","","null","","","null","58","","","","","","","","","","","","","","","",""
"","ISI","","html-keyboard-response","389","661679","0.0-1.0-525.0","0","0","27885","","null","","","null","58","NaN","","","","","","","","","","","","","","",""
"","S2","","html-keyboard-response","390","661932","0.0-1.0-526.0","0","0","27885","","null","","","null","58","","NaN","","","","","","","","","","","","","",""
"","response","","html-keyboard-response","391","662902","0.0-1.0-527.0-0.0","0","0","27885","","967","","","75","58","","","2","58","training","adjacent","FG","6","7","L.jpg","Q.jpg","1","1","1","",""
"","feedback","","html-keyboard-response","392","663906","0.0-1.0-528.0-0.0","0","0","27885","","null","","","null","58","","","","","","","","","","","","","","","",""
"","ITI","","html-keyboard-response","393","664909","0.0-1.0-531.0","0","0","27885","","null","","","null","58","","","","","","","","","","","","","","","NaN",""
"","S1","","html-keyboard-response","394","665163","0.0-1.0-533.0","0","0","27885","","null","","","null","59","","","","","","","","","","","","","","","",""
"","ISI","","html-keyboard-response","395","666166","0.0-1.0-534.0","0","0","27885","","null","","","null","59","NaN","","","","","","","","","","","","","","",""
"","S2","","html-keyboard-response","396","666420","0.0-1.0-535.0","0","0","27885","","null","","","null","59","","NaN","","","","","","","","","","","","","",""
"","response","","html-keyboard-response","397","667600","0.0-1.0-536.0-0.0","0","0","27885","","1177","","","68","59","","","2","59","training","adjacent","CB","3","2","P.jpg","N.jpg","0","0","1","",""
"","feedback","","html-keyboard-response","398","668606","0.0-1.0-537.0-0.0","0","0","27885","","null","","","null","59","","","","","","","","","","","","","","","",""
"","ITI","","html-keyboard-response","399","669610","0.0-1.0-540.0","0","0","27885","","null","","","null","59","","","","","","","","","","","","","","","NaN",""
"","S1","","html-keyboard-response","400","669863","0.0-1.0-542.0","0","0","27885","","null","","","null","60","","","","","","","","","","","","","","","",""
"","ISI","","html-keyboard-response","401","670867","0.0-1.0-543.0","0","0","27885","","null","","","null","60","NaN","","","","","","","","","","","","","","",""
"","S2","","html-keyboard-response","402","671121","0.0-1.0-544.0","0","0","27885","","null","","","null","60","","NaN","","","","","","","","","","","","","",""
"","response","","html-keyboard-response","403","672001","0.0-1.0-545.0-0.0","0","0","27885","","878","","","75","60","","","2","60","training","adjacent","ED","5","4","R.jpg","M.jpg","1","0","0","",""
"","feedback","","html-keyboard-response","404","673004","0.0-1.0-546.0-0.0","0","0","27885","","null","","","null","60","","","","","","","","","","","","","","","",""
"","time_out","","html-keyboard-response","405","675009","0.0-1.0-548.0-0.0","0","0","27885","","null","","","null","60","","","","","","","","","","","","","","","",""
"","ITI","","html-keyboard-response","406","676012","0.0-1.0-549.0","0","0","27885","","null","","","null","60","","","","","","","","","","","","","","","NaN",""
"","S1","","html-keyboard-response","407","676265","0.0-1.0-551.0","0","0","27885","","null","","","null","61","","","","","","","","","","","","","","","",""
"","ISI","","html-keyboard-response","408","677267","0.0-1.0-552.0","0","0","27885","","294","","","68","61","d","","","","","","","","","","","","","","",""
"","S2","","html-keyboard-response","409","677521","0.0-1.0-553.0","0","0","27885","","null","","","null","61","","NaN","","","","","","","","","","","","","",""
"","response","","html-keyboard-response","410","677643","0.0-1.0-554.0-0.0","0","0","27885","","119","","","68","61","","","2","61","training","adjacent","CB","3","2","P.jpg","N.jpg","0","0","1","",""
"","feedback","","html-keyboard-response","411","678647","0.0-1.0-555.0-0.0","0","0","27885","","null","","","null","61","","","","","","","","","","","","","","","",""
"","ITI","","html-keyboard-response","412","679652","0.0-1.0-558.0","0","0","27885","","null","","","null","61","","","","","","","","","","","","","","","NaN",""
"","S1","","html-keyboard-response","413","679906","0.0-1.0-560.0","0","0","27885","","null","","","null","62","","","","","","","","","","","","","","","",""
"","ISI","","html-keyboard-response","414","680909","0.0-1.0-561.0","0","0","27885","","null","","","null","62","NaN","","","","","","","","","","","","","","",""
"","S2","","html-keyboard-response","415","681164","0.0-1.0-562.0","0","0","27885","","null","","","null","62","","NaN","","","","","","","","","","","","","",""
"","response","","html-keyboard-response","416","681982","0.0-1.0-563.0-0.0","0","0","27885","","816","","","75","62","","","2","62","training","adjacent","ED","5","4","R.jpg","M.jpg","1","0","0","",""
"","feedback","","html-keyboard-response","417","682986","0.0-1.0-564.0-0.0","0","0","27885","","null","","","null","62","","","","","","","","","","","","","","","",""
"","time_out","","html-keyboard-response","418","684989","0.0-1.0-566.0-0.0","0","0","27885","","null","","","null","62","","","","","","","","","","","","","","","",""
"","ITI","","html-keyboard-response","419","685993","0.0-1.0-567.0","0","0","27885","","null","","","null","62","","","","","","","","","","","","","","","NaN",""
"","S1","","html-keyboard-response","420","686247","0.0-1.0-569.0","0","0","27885","","null","","","null","63","","","","","","","","","","","","","","","",""
"","ISI","","html-keyboard-response","421","687250","0.0-1.0-570.0","0","0","27885","","null","","","null","63","NaN","","","","","","","","","","","","","","",""
"","S2","","html-keyboard-response","422","687504","0.0-1.0-571.0","0","0","27885","","null","","","null","63","","NaN","","","","","","","","","","","","","",""
"","response","","html-keyboard-response","423","688153","0.0-1.0-572.0-0.0","0","0","27885","","646","","","68","63","","","2","63","training","adjacent","BC","2","3","N.jpg","P.jpg","0","1","0","",""
"","feedback","","html-keyboard-response","424","689158","0.0-1.0-573.0-0.0","0","0","27885","","null","","","null","63","","","","","","","","","","","","","","","",""
"","time_out","","html-keyboard-response","425","691161","0.0-1.0-575.0-0.0","0","0","27885","","null","","","null","63","","","","","","","","","","","","","","","",""
"","ITI","","html-keyboard-response","426","692166","0.0-1.0-576.0","0","0","27885","","null","","","null","63","","","","","","","","","","","","","","","NaN",""
"","S1","","html-keyboard-response","427","692420","0.0-1.0-578.0","0","0","27885","","null","","","null","64","","","","","","","","","","","","","","","",""
"","ISI","","html-keyboard-response","428","693424","0.0-1.0-579.0","0","0","27885","","null","","","null","64","NaN","","","","","","","","","","","","","","",""
"","S2","","html-keyboard-response","429","693678","0.0-1.0-580.0","0","0","27885","","null","","","null","64","","NaN","","","","","","","","","","","","","",""
"","response","","html-keyboard-response","430","694025","0.0-1.0-581.0-0.0","0","0","27885","","345","","","75","64","","","2","64","training","adjacent","EF","5","6","R.jpg","L.jpg","1","1","1","",""
"","feedback","","html-keyboard-response","431","695030","0.0-1.0-582.0-0.0","0","0","27885","","null","","","null","64","","","","","","","","","","","","","","","",""
"","ITI","","html-keyboard-response","432","696034","0.0-1.0-585.0","0","0","27885","","null","","","null","64","","","","","","","","","","","","","","","NaN",""
"","S1","","html-keyboard-response","433","696288","0.0-1.0-587.0","0","0","27885","","null","","","null","65","","","","","","","","","","","","","","","",""
"","ISI","","html-keyboard-response","434","697292","0.0-1.0-588.0","0","0","27885","","null","","","null","65","NaN","","","","","","","","","","","","","","",""
"","S2","","html-keyboard-response","435","697546","0.0-1.0-589.0","0","0","27885","","null","","","null","65","","NaN","","","","","","","","","","","","","",""
"","response","","html-keyboard-response","436","699300","0.0-1.0-590.0-0.0","0","0","27885","","null","","","null","65","","","2","65","training","adjacent","FG","6","7","L.jpg","Q.jpg","NaN","1","0","",""
"","too_slow_prompt","","html-keyboard-response","437","700303","0.0-1.0-592.0-0.0","1","0","27885","","null","","","null","","","","","","","","","","","","","","","","",""
"","time_out","","html-keyboard-response","438","702306","0.0-1.0-593.0-0.0","0","0","27885","","null","","","null","65","","","","","","","","","","","","","","","",""
"","ITI","","html-keyboard-response","439","703310","0.0-1.0-594.0","0","0","27885","","null","","","null","65","","","","","","","","","","","","","","","NaN",""
"","S1","","html-keyboard-response","440","703563","0.0-1.0-596.0","0","0","27885","","null","","","null","66","","","","","","","","","","","","","","","",""
"","ISI","","html-keyboard-response","441","704567","0.0-1.0-597.0","0","0","27885","","null","","","null","66","NaN","","","","","","","","","","","","","","",""
"","S2","","html-keyboard-response","442","704822","0.0-1.0-598.0","0","0","27885","","null","","","null","66","","NaN","","","","","","","","","","","","","",""
"","response","","html-keyboard-response","443","705123","0.0-1.0-599.0-0.0","0","0","27885","","298","","","75","66","","","2","66","training","adjacent","ED","5","4","R.jpg","M.jpg","1","0","0","",""
"","feedback","","html-keyboard-response","444","706126","0.0-1.0-600.0-0.0","0","0","27885","","null","","","null","66","","","","","","","","","","","","","","","",""
"","time_out","","html-keyboard-response","445","708130","0.0-1.0-602.0-0.0","0","0","27885","","null","","","null","66","","","","","","","","","","","","","","","",""
"","ITI","","html-keyboard-response","446","709133","0.0-1.0-603.0","0","0","27885","","null","","","null","66","","","","","","","","","","","","","","","NaN",""
"","S1","","html-keyboard-response","447","709386","0.0-1.0-605.0","0","0","27885","","null","","","null","67","","","","","","","","","","","","","","","",""
"","ISI","","html-keyboard-response","448","710390","0.0-1.0-606.0","0","0","27885","","null","","","null","67","NaN","","","","","","","","","","","","","","",""
"","S2","","html-keyboard-response","449","710643","0.0-1.0-607.0","0","0","27885","","null","","","null","67","","NaN","","","","","","","","","","","","","",""
"","response","","html-keyboard-response","450","711067","0.0-1.0-608.0-0.0","0","0","27885","","422","","","68","67","","","2","67","training","adjacent","CB","3","2","P.jpg","N.jpg","0","0","1","",""
"","feedback","","html-keyboard-response","451","712072","0.0-1.0-609.0-0.0","0","0","27885","","null","","","null","67","","","","","","","","","","","","","","","",""
"","ITI","","html-keyboard-response","452","713076","0.0-1.0-612.0","0","0","27885","","null","","","null","67","","","","","","","","","","","","","","","NaN",""
"","S1","","html-keyboard-response","453","713331","0.0-1.0-614.0","0","0","27885","","null","","","null","68","","","","","","","","","","","","","","","",""
"","ISI","","html-keyboard-response","454","714335","0.0-1.0-615.0","0","0","27885","","null","","","null","68","NaN","","","","","","","","","","","","","","",""
"","S2","","html-keyboard-response","455","714590","0.0-1.0-616.0","0","0","27885","","null","","","null","68","","NaN","","","","","","","","","","","","","",""
"","response","","html-keyboard-response","456","715258","0.0-1.0-617.0-0.0","0","0","27885","","665","","","75","68","","","2","68","training","adjacent","GF","7","6","Q.jpg","L.jpg","1","0","0","",""
"","feedback","","html-keyboard-response","457","716261","0.0-1.0-618.0-0.0","0","0","27885","","null","","","null","68","","","","","","","","","","","","","","","",""
"","time_out","","html-keyboard-response","458","718264","0.0-1.0-620.0-0.0","0","0","27885","","null","","","null","68","","","","","","","","","","","","","","","",""
"","ITI","","html-keyboard-response","459","719268","0.0-1.0-621.0","0","0","27885","","null","","","null","68","","","","","","","","","","","","","","","NaN",""
"","S1","","html-keyboard-response","460","719521","0.0-1.0-623.0","0","0","27885","","null","","","null","69","","","","","","","","","","","","","","","",""
"","ISI","","html-keyboard-response","461","720525","0.0-1.0-624.0","0","0","27885","","null","","","null","69","NaN","","","","","","","","","","","","","","",""
"","S2","","html-keyboard-response","462","720778","0.0-1.0-625.0","0","0","27885","","null","","","null","69","","NaN","","","","","","","","","","","","","",""
"","response","","html-keyboard-response","463","721192","0.0-1.0-626.0-0.0","0","0","27885","","411","","","68","69","","","2","69","training","adjacent","BC","2","3","N.jpg","P.jpg","0","1","0","",""
"","feedback","","html-keyboard-response","464","722196","0.0-1.0-627.0-0.0","0","0","27885","","null","","","null","69","","","","","","","","","","","","","","","",""
"","time_out","","html-keyboard-response","465","724200","0.0-1.0-629.0-0.0","0","0","27885","","null","","","null","69","","","","","","","","","","","","","","","",""
"","ITI","","html-keyboard-response","466","725203","0.0-1.0-630.0","0","0","27885","","null","","","null","69","","","","","","","","","","","","","","","NaN",""
"","S1","","html-keyboard-response","467","725457","0.0-1.0-632.0","0","0","27885","","null","","","null","70","","","","","","","","","","","","","","","",""
"","ISI","","html-keyboard-response","468","726461","0.0-1.0-633.0","0","0","27885","","null","","","null","70","NaN","","","","","","","","","","","","","","",""
"","S2","","html-keyboard-response","469","726713","0.0-1.0-634.0","0","0","27885","","null","","","null","70","","NaN","","","","","","","","","","","","","",""
"","response","","html-keyboard-response","470","726973","0.0-1.0-635.0-0.0","0","0","27885","","257","","","75","70","","","2","70","training","adjacent","DE","4","5","M.jpg","R.jpg","1","1","1","",""
"","feedback","","html-keyboard-response","471","727977","0.0-1.0-636.0-0.0","0","0","27885","","null","","","null","70","","","","","","","","","","","","","","","",""
"","ITI","","html-keyboard-response","472","728982","0.0-1.0-639.0","0","0","27885","","null","","","null","70","","","","","","","","","","","","","","","NaN",""
"","S1","","html-keyboard-response","473","729235","0.0-1.0-641.0","0","0","27885","","null","","","null","71","","","","","","","","","","","","","","","",""
"","ISI","","html-keyboard-response","474","730238","0.0-1.0-642.0","0","0","27885","","null","","","null","71","NaN","","","","","","","","","","","","","","",""
"","S2","","html-keyboard-response","475","730491","0.0-1.0-643.0","0","0","27885","","null","","","null","71","","NaN","","","","","","","","","","","","","",""
"","response","","html-keyboard-response","476","731271","0.0-1.0-644.0-0.0","0","0","27885","","777","","","68","71","","","2","71","training","adjacent","BA","2","1","N.jpg","O.jpg","0","0","1","",""
"","feedback","","html-keyboard-response","477","732275","0.0-1.0-645.0-0.0","0","0","27885","","null","","","null","71","","","","","","","","","","","","","","","",""
"","ITI","","html-keyboard-response","478","733279","0.0-1.0-648.0","0","0","27885","","null","","","null","71","","","","","","","","","","","","","","","NaN",""
"","S1","","html-keyboard-response","479","733536","0.0-1.0-650.0","0","0","27885","","null","","","null","72","","","","","","","","","","","","","","","",""
"","ISI","","html-keyboard-response","480","734540","0.0-1.0-651.0","0","0","27885","","null","","","null","72","NaN","","","","","","","","","","","","","","",""
"","S2","","html-keyboard-response","481","734793","0.0-1.0-652.0","0","0","27885","","null","","","null","72","","NaN","","","","","","","","","","","","","",""
"","response","","html-keyboard-response","482","735451","0.0-1.0-653.0-0.0","0","0","27885","","655","","","75","72","","","2","72","training","adjacent","FE","6","5","L.jpg","R.jpg","1","0","0","",""
"","feedback","","html-keyboard-response","483","736455","0.0-1.0-654.0-0.0","0","0","27885","","null","","","null","72","","","","","","","","","","","","","","","",""
"","time_out","","html-keyboard-response","484","738459","0.0-1.0-656.0-0.0","0","0","27885","","null","","","null","72","","","","","","","","","","","","","","","",""
"","ITI","","html-keyboard-response","485","739464","0.0-1.0-657.0","0","0","27885","","null","","","null","72","","","","","","","","","","","","","","","NaN",""
"","S1","","html-keyboard-response","486","739718","0.0-1.0-659.0","0","0","27885","","null","","","null","73","","","","","","","","","","","","","","","",""
"","ISI","","html-keyboard-response","487","740722","0.0-1.0-660.0","0","0","27885","","null","","","null","73","NaN","","","","","","","","","","","","","","",""
"","S2","","html-keyboard-response","488","740976","0.0-1.0-661.0","0","0","27885","","null","","","null","73","","NaN","","","","","","","","","","","","","",""
"","response","","html-keyboard-response","489","741626","0.0-1.0-662.0-0.0","0","0","27885","","647","","","68","73","","","2","73","training","adjacent","AB","1","2","O.jpg","N.jpg","0","1","0","",""
"","feedback","","html-keyboard-response","490","742631","0.0-1.0-663.0-0.0","0","0","27885","","null","","","null","73","","","","","","","","","","","","","","","",""
"","time_out","","html-keyboard-response","491","744636","0.0-1.0-665.0-0.0","0","0","27885","","null","","","null","73","","","","","","","","","","","","","","","",""
"","ITI","","html-keyboard-response","492","745640","0.0-1.0-666.0","0","0","27885","","null","","","null","73","","","","","","","","","","","","","","","NaN",""
"","S1","","html-keyboard-response","493","745894","0.0-1.0-668.0","0","0","27885","","null","","","null","74","","","","","","","","","","","","","","","",""
"","ISI","","html-keyboard-response","494","746898","0.0-1.0-669.0","0","0","27885","","null","","","null","74","NaN","","","","","","","","","","","","","","",""
"","S2","","html-keyboard-response","495","747153","0.0-1.0-670.0","0","0","27885","","null","","","null","74","","NaN","","","","","","","","","","","","","",""
"","response","","html-keyboard-response","496","747568","0.0-1.0-671.0-0.0","0","0","27885","","413","","","75","74","","","2","74","training","adjacent","FE","6","5","L.jpg","R.jpg","1","0","0","",""
"","feedback","","html-keyboard-response","497","748572","0.0-1.0-672.0-0.0","0","0","27885","","null","","","null","74","","","","","","","","","","","","","","","",""
"","time_out","","html-keyboard-response","498","750584","0.0-1.0-674.0-0.0","0","0","27885","","null","","","null","74","","","","","","","","","","","","","","","",""
"","ITI","","html-keyboard-response","499","751587","0.0-1.0-675.0","0","0","27885","","null","","","null","74","","","","","","","","","","","","","","","NaN",""
"","S1","","html-keyboard-response","500","751842","0.0-1.0-677.0","0","0","27885","","null","","","null","75","","","","","","","","","","","","","","","",""
"","ISI","","html-keyboard-response","501","752845","0.0-1.0-678.0","0","0","27885","","null","","","null","75","NaN","","","","","","","","","","","","","","",""
"","S2","","html-keyboard-response","502","753100","0.0-1.0-679.0","0","0","27885","","null","","","null","75","","NaN","","","","","","","","","","","","","",""
"","response","","html-keyboard-response","503","753371","0.0-1.0-680.0-0.0","0","0","27885","","268","","","68","75","","","2","75","training","adjacent","BA","2","1","N.jpg","O.jpg","0","0","1","",""
"","feedback","","html-keyboard-response","504","754375","0.0-1.0-681.0-0.0","0","0","27885","","null","","","null","75","","","","","","","","","","","","","","","",""
"","ITI","","html-keyboard-response","505","755379","0.0-1.0-684.0","0","0","27885","","null","","","null","75","","","","","","","","","","","","","","","NaN",""
"","S1","","html-keyboard-response","506","755633","0.0-1.0-686.0","0","0","27885","","null","","","null","76","","","","","","","","","","","","","","","",""
"","ISI","","html-keyboard-response","507","756641","0.0-1.0-687.0","0","0","27885","","null","","","null","76","NaN","","","","","","","","","","","","","","",""
"","S2","","html-keyboard-response","508","756895","0.0-1.0-688.0","0","0","27885","","null","","","null","76","","NaN","","","","","","","","","","","","","",""
"","response","","html-keyboard-response","509","757289","0.0-1.0-689.0-0.0","0","0","27885","","391","","","68","76","","","2","76","training","adjacent","BC","2","3","N.jpg","P.jpg","0","1","0","",""
"","feedback","","html-keyboard-response","510","758295","0.0-1.0-690.0-0.0","0","0","27885","","null","","","null","76","","","","","","","","","","","","","","","",""
"","time_out","","html-keyboard-response","511","760299","0.0-1.0-692.0-0.0","0","0","27885","","null","","","null","76","","","","","","","","","","","","","","","",""
"","ITI","","html-keyboard-response","512","761304","0.0-1.0-693.0","0","0","27885","","null","","","null","76","","","","","","","","","","","","","","","NaN",""
"","S1","","html-keyboard-response","513","761560","0.0-1.0-695.0","0","0","27885","","null","","","null","77","","","","","","","","","","","","","","","",""
"","ISI","","html-keyboard-response","514","762574","0.0-1.0-696.0","0","0","27885","","null","","","null","77","NaN","","","","","","","","","","","","","","",""
"","S2","","html-keyboard-response","515","762828","0.0-1.0-697.0","0","0","27885","","null","","","null","77","","NaN","","","","","","","","","","","","","",""
"","response","","html-keyboard-response","516","763906","0.0-1.0-698.0-0.0","0","0","27885","","1075","","","75","77","","","2","77","training","adjacent","AB","1","2","O.jpg","N.jpg","1","1","1","",""
"","feedback","","html-keyboard-response","517","764911","0.0-1.0-699.0-0.0","0","0","27885","","null","","","null","77","","","","","","","","","","","","","","","",""
"","ITI","","html-keyboard-response","518","765915","0.0-1.0-702.0","0","0","27885","","null","","","null","77","","","","","","","","","","","","","","","NaN",""
"","S1","","html-keyboard-response","519","766170","0.0-1.0-704.0","0","0","27885","","null","","","null","78","","","","","","","","","","","","","","","",""
"","ISI","","html-keyboard-response","520","767174","0.0-1.0-705.0","0","0","27885","","null","","","null","78","NaN","","","","","","","","","","","","","","",""
"","S2","","html-keyboard-response","521","767428","0.0-1.0-706.0","0","0","27885","","null","","","null","78","","NaN","","","","","","","","","","","","","",""
"","response","","html-keyboard-response","522","768246","0.0-1.0-707.0-0.0","0","0","27885","","815","","","68","78","","","2","78","training","adjacent","CB","3","2","P.jpg","N.jpg","0","0","1","",""
"","feedback","","html-keyboard-response","523","769251","0.0-1.0-708.0-0.0","0","0","27885","","null","","","null","78","","","","","","","","","","","","","","","",""
"","ITI","","html-keyboard-response","524","770254","0.0-1.0-711.0","0","0","27885","","null","","","null","78","","","","","","","","","","","","","","","NaN",""
"","S1","","html-keyboard-response","525","770508","0.0-1.0-713.0","0","0","27885","","null","","","null","79","","","","","","","","","","","","","","","",""
"","ISI","","html-keyboard-response","526","771511","0.0-1.0-714.0","0","0","27885","","null","","","null","79","NaN","","","","","","","","","","","","","","",""
"","S2","","html-keyboard-response","527","771765","0.0-1.0-715.0","0","0","27885","","null","","","null","79","","NaN","","","","","","","","","","","","","",""
"","response","","html-keyboard-response","528","772638","0.0-1.0-716.0-0.0","0","0","27885","","870","","","75","79","","","2","79","training","adjacent","DE","4","5","M.jpg","R.jpg","1","1","1","",""
"","feedback","","html-keyboard-response","529","773642","0.0-1.0-717.0-0.0","0","0","27885","","null","","","null","79","","","","","","","","","","","","","","","",""
"","ITI","","html-keyboard-response","530","774645","0.0-1.0-720.0","0","0","27885","","null","","","null","79","","","","","","","","","","","","","","","NaN",""
"","S1","","html-keyboard-response","531","774899","0.0-1.0-722.0","0","0","27885","","null","","","null","80","","","","","","","","","","","","","","","",""
"","ISI","","html-keyboard-response","532","775902","0.0-1.0-723.0","0","0","27885","","null","","","null","80","NaN","","","","","","","","","","","","","","",""
"","S2","","html-keyboard-response","533","776157","0.0-1.0-724.0","0","0","27885","","null","","","null","80","","NaN","","","","","","","","","","","","","",""
"","response","","html-keyboard-response","534","776458","0.0-1.0-725.0-0.0","0","0","27885","","298","","","68","80","","","2","80","training","adjacent","CD","3","4","P.jpg","M.jpg","0","1","0","",""
"","feedback","","html-keyboard-response","535","777472","0.0-1.0-726.0-0.0","0","0","27885","","null","","","null","80","","","","","","","","","","","","","","","",""
"","time_out","","html-keyboard-response","536","779477","0.0-1.0-728.0-0.0","0","0","27885","","null","","","null","80","","","","","","","","","","","","","","","",""
"","ITI","","html-keyboard-response","537","780481","0.0-1.0-729.0","0","0","27885","","null","","","null","80","","","","","","","","","","","","","","","NaN",""
"","S1","","html-keyboard-response","538","780736","0.0-1.0-731.0","0","0","27885","","null","","","null","81","","","","","","","","","","","","","","","",""
"","ISI","","html-keyboard-response","539","781740","0.0-1.0-732.0","0","0","27885","","null","","","null","81","NaN","","","","","","","","","","","","","","",""
"","S2","","html-keyboard-response","540","781995","0.0-1.0-733.0","0","0","27885","","null","","","null","81","","NaN","","","","","","","","","","","","","",""
"","response","","html-keyboard-response","541","782359","0.0-1.0-734.0-0.0","0","0","27885","","361","","","75","81","","","2","81","training","adjacent","CD","3","4","P.jpg","M.jpg","1","1","1","",""
"","feedback","","html-keyboard-response","542","783364","0.0-1.0-735.0-0.0","0","0","27885","","null","","","null","81","","","","","","","","","","","","","","","",""
"","ITI","","html-keyboard-response","543","784368","0.0-1.0-738.0","0","0","27885","","null","","","null","81","","","","","","","","","","","","","","","NaN",""
"","S1","","html-keyboard-response","544","784622","0.0-1.0-740.0","0","0","27885","","null","","","null","82","","","","","","","","","","","","","","","",""
"","ISI","","html-keyboard-response","545","785639","0.0-1.0-741.0","0","0","27885","","null","","","null","82","NaN","","","","","","","","","","","","","","",""
"","S2","","html-keyboard-response","546","785894","0.0-1.0-742.0","0","0","27885","","null","","","null","82","","NaN","","","","","","","","","","","","","",""
"","response","","html-keyboard-response","547","786835","0.0-1.0-743.0-0.0","0","0","27885","","939","","","68","82","","","2","82","training","adjacent","GF","7","6","Q.jpg","L.jpg","0","0","1","",""
"","feedback","","html-keyboard-response","548","787839","0.0-1.0-744.0-0.0","0","0","27885","","null","","","null","82","","","","","","","","","","","","","","","",""
"","ITI","","html-keyboard-response","549","788843","0.0-1.0-747.0","0","0","27885","","null","","","null","82","","","","","","","","","","","","","","","NaN",""
"","S1","","html-keyboard-response","550","789098","0.0-1.0-749.0","0","0","27885","","null","","","null","83","","","","","","","","","","","","","","","",""
"","ISI","","html-keyboard-response","551","790102","0.0-1.0-750.0","0","0","27885","","null","","","null","83","NaN","","","","","","","","","","","","","","",""
"","S2","","html-keyboard-response","552","790355","0.0-1.0-751.0","0","0","27885","","null","","","null","83","","NaN","","","","","","","","","","","","","",""
"","response","","html-keyboard-response","553","791541","0.0-1.0-752.0-0.0","0","0","27885","","1184","","","75","83","","","2","83","training","adjacent","DE","4","5","M.jpg","R.jpg","1","1","1","",""
"","feedback","","html-keyboard-response","554","792545","0.0-1.0-753.0-0.0","0","0","27885","","null","","","null","83","","","","","","","","","","","","","","","",""
"","ITI","","html-keyboard-response","555","793548","0.0-1.0-756.0","0","0","27885","","null","","","null","83","","","","","","","","","","","","","","","NaN",""
"","S1","","html-keyboard-response","556","793801","0.0-1.0-758.0","0","0","27885","","null","","","null","84","","","","","","","","","","","","","","","",""
"","ISI","","html-keyboard-response","557","794804","0.0-1.0-759.0","0","0","27885","","null","","","null","84","NaN","","","","","","","","","","","","","","",""
"","S2","","html-keyboard-response","558","795072","0.0-1.0-760.0","0","0","27885","","null","","","null","84","","NaN","","","","","","","","","","","","","",""
"","response","","html-keyboard-response","559","796527","0.0-1.0-761.0-0.0","0","0","27885","","1452","","","68","84","","","2","84","training","adjacent","FG","6","7","L.jpg","Q.jpg","0","1","0","",""
"","feedback","","html-keyboard-response","560","797531","0.0-1.0-762.0-0.0","0","0","27885","","null","","","null","84","","","","","","","","","","","","","","","",""
"","time_out","","html-keyboard-response","561","799534","0.0-1.0-764.0-0.0","0","0","27885","","null","","","null","84","","","","","","","","","","","","","","","",""
"","ITI","","html-keyboard-response","562","800537","0.0-1.0-765.0","0","0","27885","","719","","","75","84","","","","","","","","","","","","","","","k",""
"","S1","","html-keyboard-response","563","800801","0.0-1.0-767.0","0","0","27885","","null","","","null","85","","","","","","","","","","","","","","","",""
"","ISI","","html-keyboard-response","564","801803","0.0-1.0-768.0","0","0","27885","","441","","","75","85","k","","","","","","","","","","","","","","",""
"","S2","","html-keyboard-response","565","801823","0.0-1.0-769.0","0","0","27885","","15","","","75","85","","k","2","85","training","adjacent","EF","5","6","R.jpg","L.jpg","1","1","1","",""
"","feedback","","html-keyboard-response","566","802827","0.0-1.0-771.0-0.0","0","0","27885","","null","","","null","85","","","","","","","","","","","","","","","",""
"","ITI","","html-keyboard-response","567","803829","0.0-1.0-774.0","0","0","27885","","null","","","null","85","","","","","","","","","","","","","","","NaN",""
"","S1","","html-keyboard-response","568","804085","0.0-1.0-776.0","0","0","27885","","null","","","null","86","","","","","","","","","","","","","","","",""
"","ISI","","html-keyboard-response","569","805088","0.0-1.0-777.0","0","0","27885","","null","","","null","86","NaN","","","","","","","","","","","","","","",""
"","S2","","html-keyboard-response","570","805342","0.0-1.0-778.0","0","0","27885","","null","","","null","86","","NaN","","","","","","","","","","","","","",""
"","response","","html-keyboard-response","571","805861","0.0-1.0-779.0-0.0","0","0","27885","","517","","","68","86","","","2","86","training","adjacent","FG","6","7","L.jpg","Q.jpg","0","1","0","",""
"","feedback","","html-keyboard-response","572","806866","0.0-1.0-780.0-0.0","0","0","27885","","null","","","null","86","","","","","","","","","","","","","","","",""
"","time_out","","html-keyboard-response","573","808870","0.0-1.0-782.0-0.0","0","0","27885","","null","","","null","86","","","","","","","","","","","","","","","",""
"","ITI","","html-keyboard-response","574","809873","0.0-1.0-783.0","0","0","27885","","226","","","75","86","","","","","","","","","","","","","","","k",""
"","S1","","html-keyboard-response","575","810128","0.0-1.0-785.0","0","0","27885","","null","","","null","87","","","","","","","","","","","","","","","",""
"","ISI","","html-keyboard-response","576","811131","0.0-1.0-786.0","0","0","27885","","58","","","75","87","k","","","","","","","","","","","","","","",""
"","S2","","html-keyboard-response","577","811384","0.0-1.0-787.0","0","0","27885","","null","","","null","87","","NaN","","","","","","","","","","","","","",""
