"success","ttype","start_time","trial_type","trial_index","time_elapsed","internal_node_id","warning","missed_checkup","PID","view_history","rt","responses","repeat_instructions","key_press","index","keypress_isi","keypress_S2","block","trial_num","phase","group_type","pair_type","S1_stim","S2_stim","S1_img","S2_img","S1_chosen","S1_higher","accuracy","keypress_iti","total_bonus_tally"
"true","full_screen","d03032023hr2001","fullscreen","0","92708","0.0-0.0","0","0","31565","","","","","","","","","","","","","","","","","","","","","",""
"","instructions","","instructions","1","171817","0.0-1.0-0.0-0.0","0","0","31565","[{""page_index"":0,""viewing_time"":5693},{""page_index"":1,""viewing_time"":56392},{""page_index"":2,""viewing_time"":14454},{""page_index"":3,""viewing_time"":2567}]","79107","","","","","","","","","","","","","","","","","","","",""
"","comprehension_check","","survey-multi-choice","2","202977","0.0-1.0-0.0-1.0","0","0","31565","","31157","{""Q0"":""True"",""Q1"":""D"",""Q2"":""Only when the screen 'MAKE A CHOICE' is shown"",""Q3"":""Green mark"",""Q4"":""either D or K""}","1","","","","","","","","","","","","","","","","","",""
"","missed_instruction_checkup","","html-keyboard-response","3","206859","0.0-1.0-0.0-2.0-0.0","0","1","31565","","3879","","","32","","","","","","","","","","","","","","","","",""
"","instructions","","instructions","4","290360","0.0-1.0-0.1-0.1","0","0","31565","[{""page_index"":0,""viewing_time"":17271},{""page_index"":1,""viewing_time"":60723},{""page_index"":2,""viewing_time"":4301},{""page_index"":3,""viewing_time"":1206}]","83501","","","","","","","","","","","","","","","","","","","",""
"","comprehension_check","","survey-multi-choice","5","310943","0.0-1.0-0.1-1.1","0","0","31565","","20579","{""Q0"":""True"",""Q1"":""K"",""Q2"":""Once the second image appears and while the screen 'MAKE A CHOICE' is shown"",""Q3"":""Green mark"",""Q4"":""either D or K""}","0","","","","","","","","","","","","","","","","","",""
"","start_exp","","html-keyboard-response","6","313450","0.0-1.0-1.0","0","0","31565","","2505","","","32","","","","","","","","","","","","","","","","",""
"","S1","","html-keyboard-response","7","313703","0.0-1.0-2.0","0","0","31565","","null","","","null","0","","","","","","","","","","","","","","","",""
"","ISI","","html-keyboard-response","8","314205","0.0-1.0-3.0","0","0","31565","","null","","","null","0","NaN","","","","","","","","","","","","","","",""
"","S2","","html-keyboard-response","9","314458","0.0-1.0-4.0","0","0","31565","","null","","","null","0","","NaN","","","","","","","","","","","","","",""
"","response","","html-keyboard-response","10","316210","0.0-1.0-5.0-0.0","0","0","31565","","null","","","null","0","","","1","0","training","adjacent","BA","2","1","P.jpg","M.jpg","NaN","0","0","",""
"","too_slow_prompt","","html-keyboard-response","11","317212","0.0-1.0-7.0-0.0","1","0","31565","","null","","","null","","","","","","","","","","","","","","","","",""
"","time_out","","html-keyboard-response","12","319214","0.0-1.0-8.0-0.0","0","0","31565","","null","","","null","0","","","","","","","","","","","","","","","",""
"","ITI","","html-keyboard-response","13","320218","0.0-1.0-9.0","0","0","31565","","199","","","75","0","","","","","","","","","","","","","","","k",""
"","S1","","html-keyboard-response","14","320471","0.0-1.0-11.0","0","0","31565","","null","","","null","1","","","","","","","","","","","","","","","",""
"","ISI","","html-keyboard-response","15","320973","0.0-1.0-12.0","0","0","31565","","90","","","68","1","d","","","","","","","","","","","","","","",""
"","S2","","html-keyboard-response","16","321225","0.0-1.0-13.0","0","0","31565","","null","","","null","1","","NaN","","","","","","","","","","","","","",""
"","response","","html-keyboard-response","17","322204","0.0-1.0-14.0-0.0","0","0","31565","","978","","","68","1","","","1","1","training","adjacent","DC","4","3","R.jpg","Q.jpg","0","0","1","",""
"","feedback","","html-keyboard-response","18","323206","0.0-1.0-15.0-0.0","0","0","31565","","null","","","null","1","","","","","","","","","","","","","","","",""
"","ITI","","html-keyboard-response","19","324208","0.0-1.0-18.0","0","0","31565","","71","","","75","1","","","","","","","","","","","","","","","k",""
"","S1","","html-keyboard-response","20","324460","0.0-1.0-20.0","0","0","31565","","null","","","null","2","","","","","","","","","","","","","","","",""
"","ISI","","html-keyboard-response","21","324974","0.0-1.0-21.0","0","0","31565","","266","","","75","2","k","","","","","","","","","","","","","","",""
"","S2","","html-keyboard-response","22","325225","0.0-1.0-22.0","0","0","31565","","null","","","null","2","","NaN","","","","","","","","","","","","","",""
"","response","","html-keyboard-response","23","326129","0.0-1.0-23.0-0.0","0","0","31565","","903","","","68","2","","","1","2","training","adjacent","BA","2","1","P.jpg","M.jpg","0","0","1","",""
"","feedback","","html-keyboard-response","24","327132","0.0-1.0-24.0-0.0","0","0","31565","","null","","","null","2","","","","","","","","","","","","","","","",""
"","ITI","","html-keyboard-response","25","328135","0.0-1.0-27.0","0","0","31565","","406","","","75","2","","","","","","","","","","","","","","","k",""
"","S1","","html-keyboard-response","26","328388","0.0-1.0-29.0","0","0","31565","","null","","","null","3","","","","","","","","","","","","","","","",""
"","ISI","","html-keyboard-response","27","328890","0.0-1.0-30.0","0","0","31565","","312","","","75","3","k","","","","","","","","","","","","","","",""
"","S2","","html-keyboard-response","28","329142","0.0-1.0-31.0","0","0","31565","","null","","","null","3","","NaN","","","","","","","","","","","","","",""
"","response","","html-keyboard-response","29","329725","0.0-1.0-32.0-0.0","0","0","31565","","582","","","68","3","","","1","3","training","adjacent","CD","3","4","Q.jpg","R.jpg","0","1","0","",""
"","feedback","","html-keyboard-response","30","330728","0.0-1.0-33.0-0.0","0","0","31565","","null","","","null","3","","","","","","","","","","","","","","","",""
"","time_out","","html-keyboard-response","31","332730","0.0-1.0-35.0-0.0","0","0","31565","","null","","","null","3","","","","","","","","","","","","","","","",""
"","ITI","","html-keyboard-response","32","333732","0.0-1.0-36.0","0","0","31565","","190","","","75","3","","","","","","","","","","","","","","","k",""
"","S1","","html-keyboard-response","33","333984","0.0-1.0-38.0","0","0","31565","","null","","","null","4","","","","","","","","","","","","","","","",""
"","ISI","","html-keyboard-response","34","334486","0.0-1.0-39.0","0","0","31565","","216","","","75","4","k","","","","","","","","","","","","","","",""
"","S2","","html-keyboard-response","35","334750","0.0-1.0-40.0","0","0","31565","","null","","","null","4","","NaN","","","","","","","","","","","","","",""
"","response","","html-keyboard-response","36","335076","0.0-1.0-41.0-0.0","0","0","31565","","325","","","68","4","","","1","4","training","adjacent","DC","4","3","R.jpg","Q.jpg","0","0","1","",""
"","feedback","","html-keyboard-response","37","336078","0.0-1.0-42.0-0.0","0","0","31565","","null","","","null","4","","","","","","","","","","","","","","","",""
"","ITI","","html-keyboard-response","38","337080","0.0-1.0-45.0","0","0","31565","","384","","","68","4","","","","","","","","","","","","","","","d",""
"","S1","","html-keyboard-response","39","337332","0.0-1.0-47.0","0","0","31565","","null","","","null","5","","","","","","","","","","","","","","","",""
"","ISI","","html-keyboard-response","40","337834","0.0-1.0-48.0","0","0","31565","","132","","","75","5","k","","","","","","","","","","","","","","",""
"","S2","","html-keyboard-response","41","338087","0.0-1.0-49.0","0","0","31565","","null","","","null","5","","NaN","","","","","","","","","","","","","",""
"","response","","html-keyboard-response","42","339035","0.0-1.0-50.0-0.0","0","0","31565","","946","","","75","5","","","1","5","training","adjacent","EF","5","6","L.jpg","N.jpg","1","1","1","",""
"","feedback","","html-keyboard-response","43","340037","0.0-1.0-51.0-0.0","0","0","31565","","null","","","null","5","","","","","","","","","","","","","","","",""
"","ITI","","html-keyboard-response","44","341039","0.0-1.0-54.0","0","0","31565","","null","","","null","5","","","","","","","","","","","","","","","NaN",""
"","S1","","html-keyboard-response","45","341291","0.0-1.0-56.0","0","0","31565","","null","","","null","6","","","","","","","","","","","","","","","",""
"","ISI","","html-keyboard-response","46","341793","0.0-1.0-57.0","0","0","31565","","null","","","null","6","NaN","","","","","","","","","","","","","","",""
"","S2","","html-keyboard-response","47","342045","0.0-1.0-58.0","0","0","31565","","null","","","null","6","","NaN","","","","","","","","","","","","","",""
"","response","","html-keyboard-response","48","342178","0.0-1.0-59.0-0.0","0","0","31565","","131","","","75","6","","","1","6","training","adjacent","FE","6","5","N.jpg","L.jpg","1","0","0","",""
"","feedback","","html-keyboard-response","49","343180","0.0-1.0-60.0-0.0","0","0","31565","","null","","","null","6","","","","","","","","","","","","","","","",""
"","time_out","","html-keyboard-response","50","345182","0.0-1.0-62.0-0.0","0","0","31565","","null","","","null","6","","","","","","","","","","","","","","","",""
"","ITI","","html-keyboard-response","51","346184","0.0-1.0-63.0","0","0","31565","","80","","","68","6","","","","","","","","","","","","","","","d",""
"","S1","","html-keyboard-response","52","346450","0.0-1.0-65.0","0","0","31565","","null","","","null","7","","","","","","","","","","","","","","","",""
"","ISI","","html-keyboard-response","53","346952","0.0-1.0-66.0","0","0","31565","","455","","","68","7","d","","","","","","","","","","","","","","",""
"","S2","","html-keyboard-response","54","347204","0.0-1.0-67.0","0","0","31565","","null","","","null","7","","NaN","","","","","","","","","","","","","",""
"","response","","html-keyboard-response","55","347979","0.0-1.0-68.0-0.0","0","0","31565","","774","","","75","7","","","1","7","training","adjacent","AB","1","2","M.jpg","P.jpg","1","1","1","",""
"","feedback","","html-keyboard-response","56","348982","0.0-1.0-69.0-0.0","0","0","31565","","null","","","null","7","","","","","","","","","","","","","","","",""
"","ITI","","html-keyboard-response","57","349985","0.0-1.0-72.0","0","0","31565","","446","","","75","7","","","","","","","","","","","","","","","k",""
"","S1","","html-keyboard-response","58","350237","0.0-1.0-74.0","0","0","31565","","null","","","null","8","","","","","","","","","","","","","","","",""
"","ISI","","html-keyboard-response","59","350739","0.0-1.0-75.0","0","0","31565","","null","","","null","8","NaN","","","","","","","","","","","","","","",""
"","S2","","html-keyboard-response","60","350832","0.0-1.0-76.0","0","0","31565","","91","","","68","8","","d","1","8","training","adjacent","CB","3","2","Q.jpg","P.jpg","0","0","1","",""
"","feedback","","html-keyboard-response","61","351834","0.0-1.0-78.0-0.0","0","0","31565","","null","","","null","8","","","","","","","","","","","","","","","",""
"","ITI","","html-keyboard-response","62","352836","0.0-1.0-81.0","0","0","31565","","407","","","75","8","","","","","","","","","","","","","","","k",""
"","S1","","html-keyboard-response","63","353088","0.0-1.0-83.0","0","0","31565","","null","","","null","9","","","","","","","","","","","","","","","",""
"","ISI","","html-keyboard-response","64","353589","0.0-1.0-84.0","0","0","31565","","316","","","75","9","k","","","","","","","","","","","","","","",""
"","S2","","html-keyboard-response","65","353841","0.0-1.0-85.0","0","0","31565","","null","","","null","9","","NaN","","","","","","","","","","","","","",""
"","response","","html-keyboard-response","66","354431","0.0-1.0-86.0-0.0","0","0","31565","","589","","","68","9","","","1","9","training","adjacent","DC","4","3","R.jpg","Q.jpg","0","0","1","",""
"","feedback","","html-keyboard-response","67","355433","0.0-1.0-87.0-0.0","0","0","31565","","null","","","null","9","","","","","","","","","","","","","","","",""
"","ITI","","html-keyboard-response","68","356435","0.0-1.0-90.0","0","0","31565","","null","","","null","9","","","","","","","","","","","","","","","NaN",""
"","S1","","html-keyboard-response","69","356687","0.0-1.0-92.0","0","0","31565","","null","","","null","10","","","","","","","","","","","","","","","",""
"","ISI","","html-keyboard-response","70","357189","0.0-1.0-93.0","0","0","31565","","null","","","null","10","NaN","","","","","","","","","","","","","","",""
"","S2","","html-keyboard-response","71","357441","0.0-1.0-94.0","0","0","31565","","null","","","null","10","","NaN","","","","","","","","","","","","","",""
"","response","","html-keyboard-response","72","357627","0.0-1.0-95.0-0.0","0","0","31565","","185","","","75","10","","","1","10","training","adjacent","GF","7","6","O.jpg","N.jpg","1","0","0","",""
"","feedback","","html-keyboard-response","73","358628","0.0-1.0-96.0-0.0","0","0","31565","","null","","","null","10","","","","","","","","","","","","","","","",""
"","time_out","","html-keyboard-response","74","360631","0.0-1.0-98.0-0.0","0","0","31565","","null","","","null","10","","","","","","","","","","","","","","","",""
"","ITI","","html-keyboard-response","75","361634","0.0-1.0-99.0","0","0","31565","","534","","","68","10","","","","","","","","","","","","","","","d",""
"","S1","","html-keyboard-response","76","361886","0.0-1.0-101.0","0","0","31565","","null","","","null","11","","","","","","","","","","","","","","","",""
"","ISI","","html-keyboard-response","77","362388","0.0-1.0-102.0","0","0","31565","","280","","","75","11","k","","","","","","","","","","","","","","",""
"","S2","","html-keyboard-response","78","362640","0.0-1.0-103.0","0","0","31565","","null","","","null","11","","NaN","","","","","","","","","","","","","",""
"","response","","html-keyboard-response","79","363737","0.0-1.0-104.0-0.0","0","0","31565","","1095","","","75","11","","","1","11","training","adjacent","ED","5","4","L.jpg","R.jpg","1","0","0","",""
"","feedback","","html-keyboard-response","80","364739","0.0-1.0-105.0-0.0","0","0","31565","","null","","","null","11","","","","","","","","","","","","","","","",""
"","time_out","","html-keyboard-response","81","366741","0.0-1.0-107.0-0.0","0","0","31565","","null","","","null","11","","","","","","","","","","","","","","","",""
"","ITI","","html-keyboard-response","82","367757","0.0-1.0-108.0","0","0","31565","","135","","","75","11","","","","","","","","","","","","","","","k",""
"","S1","","html-keyboard-response","83","368009","0.0-1.0-110.0","0","0","31565","","null","","","null","12","","","","","","","","","","","","","","","",""
"","ISI","","html-keyboard-response","84","368511","0.0-1.0-111.0","0","0","31565","","null","","","null","12","NaN","","","","","","","","","","","","","","",""
"","S2","","html-keyboard-response","85","368763","0.0-1.0-112.0","0","0","31565","","null","","","null","12","","NaN","","","","","","","","","","","","","",""
"","response","","html-keyboard-response","86","368818","0.0-1.0-113.0-0.0","0","0","31565","","55","","","75","12","","","1","12","training","adjacent","BC","2","3","P.jpg","Q.jpg","1","1","1","",""
"","feedback","","html-keyboard-response","87","369820","0.0-1.0-114.0-0.0","0","0","31565","","null","","","null","12","","","","","","","","","","","","","","","",""
"","ITI","","html-keyboard-response","88","370823","0.0-1.0-117.0","0","0","31565","","143","","","68","12","","","","","","","","","","","","","","","d",""
"","S1","","html-keyboard-response","89","371075","0.0-1.0-119.0","0","0","31565","","null","","","null","13","","","","","","","","","","","","","","","",""
"","ISI","","html-keyboard-response","90","371577","0.0-1.0-120.0","0","0","31565","","null","","","null","13","NaN","","","","","","","","","","","","","","",""
"","S2","","html-keyboard-response","91","371608","0.0-1.0-121.0","0","0","31565","","30","","","68","13","","d","1","13","training","adjacent","ED","5","4","L.jpg","R.jpg","0","0","1","",""
"","feedback","","html-keyboard-response","92","372610","0.0-1.0-123.0-0.0","0","0","31565","","null","","","null","13","","","","","","","","","","","","","","","",""
"","ITI","","html-keyboard-response","93","373612","0.0-1.0-126.0","0","0","31565","","69","","","75","13","","","","","","","","","","","","","","","k",""
"","S1","","html-keyboard-response","94","373864","0.0-1.0-128.0","0","0","31565","","null","","","null","14","","","","","","","","","","","","","","","",""
"","ISI","","html-keyboard-response","95","374365","0.0-1.0-129.0","0","0","31565","","265","","","75","14","k","","","","","","","","","","","","","","",""
"","S2","","html-keyboard-response","96","374618","0.0-1.0-130.0","0","0","31565","","null","","","null","14","","NaN","","","","","","","","","","","","","",""
"","response","","html-keyboard-response","97","375532","0.0-1.0-131.0-0.0","0","0","31565","","913","","","68","14","","","1","14","training","adjacent","ED","5","4","L.jpg","R.jpg","0","0","1","",""
"","feedback","","html-keyboard-response","98","376535","0.0-1.0-132.0-0.0","0","0","31565","","null","","","null","14","","","","","","","","","","","","","","","",""
"","ITI","","html-keyboard-response","99","377538","0.0-1.0-135.0","0","0","31565","","406","","","75","14","","","","","","","","","","","","","","","k",""
"","S1","","html-keyboard-response","100","377804","0.0-1.0-137.0","0","0","31565","","null","","","null","15","","","","","","","","","","","","","","","",""
"","ISI","","html-keyboard-response","101","378306","0.0-1.0-138.0","0","0","31565","","298","","","75","15","k","","","","","","","","","","","","","","",""
"","S2","","html-keyboard-response","102","378559","0.0-1.0-139.0","0","0","31565","","null","","","null","15","","NaN","","","","","","","","","","","","","",""
"","response","","html-keyboard-response","103","379128","0.0-1.0-140.0-0.0","0","0","31565","","568","","","68","15","","","1","15","training","adjacent","DE","4","5","R.jpg","L.jpg","0","1","0","",""
"","feedback","","html-keyboard-response","104","380130","0.0-1.0-141.0-0.0","0","0","31565","","null","","","null","15","","","","","","","","","","","","","","","",""
"","time_out","","html-keyboard-response","105","382133","0.0-1.0-143.0-0.0","0","0","31565","","null","","","null","15","","","","","","","","","","","","","","","",""
"","ITI","","html-keyboard-response","106","383134","0.0-1.0-144.0","0","0","31565","","193","","","75","15","","","","","","","","","","","","","","","k",""
"","S1","","html-keyboard-response","107","383397","0.0-1.0-146.0","0","0","31565","","null","","","null","16","","","","","","","","","","","","","","","",""
"","ISI","","html-keyboard-response","108","383900","0.0-1.0-147.0","0","0","31565","","207","","","75","16","k","","","","","","","","","","","","","","",""
"","S2","","html-keyboard-response","109","384151","0.0-1.0-148.0","0","0","31565","","null","","","null","16","","NaN","","","","","","","","","","","","","",""
"","response","","html-keyboard-response","110","384480","0.0-1.0-149.0-0.0","0","0","31565","","327","","","68","16","","","1","16","training","adjacent","ED","5","4","L.jpg","R.jpg","0","0","1","",""
"","feedback","","html-keyboard-response","111","385482","0.0-1.0-150.0-0.0","0","0","31565","","null","","","null","16","","","","","","","","","","","","","","","",""
"","ITI","","html-keyboard-response","112","386484","0.0-1.0-153.0","0","0","31565","","384","","","68","16","","","","","","","","","","","","","","","d",""
"","S1","","html-keyboard-response","113","386736","0.0-1.0-155.0","0","0","31565","","null","","","null","17","","","","","","","","","","","","","","","",""
"","ISI","","html-keyboard-response","114","387238","0.0-1.0-156.0","0","0","31565","","131","","","75","17","k","","","","","","","","","","","","","","",""
"","S2","","html-keyboard-response","115","387491","0.0-1.0-157.0","0","0","31565","","null","","","null","17","","NaN","","","","","","","","","","","","","",""
"","response","","html-keyboard-response","116","388437","0.0-1.0-158.0-0.0","0","0","31565","","946","","","75","17","","","1","17","training","adjacent","EF","5","6","L.jpg","N.jpg","1","1","1","",""
"","feedback","","html-keyboard-response","117","389439","0.0-1.0-159.0-0.0","0","0","31565","","null","","","null","17","","","","","","","","","","","","","","","",""
"","ITI","","html-keyboard-response","118","390442","0.0-1.0-162.0","0","0","31565","","null","","","null","17","","","","","","","","","","","","","","","NaN",""
"","S1","","html-keyboard-response","119","390694","0.0-1.0-164.0","0","0","31565","","null","","","null","18","","","","","","","","","","","","","","","",""
"","ISI","","html-keyboard-response","120","391196","0.0-1.0-165.0","0","0","31565","","null","","","null","18","NaN","","","","","","","","","","","","","","",""
"","S2","","html-keyboard-response","121","391448","0.0-1.0-166.0","0","0","31565","","null","","","null","18","","NaN","","","","","","","","","","","","","",""
"","response","","html-keyboard-response","122","391579","0.0-1.0-167.0-0.0","0","0","31565","","129","","","75","18","","","1","18","training","adjacent","CD","3","4","Q.jpg","R.jpg","1","1","1","",""
"","feedback","","html-keyboard-response","123","392581","0.0-1.0-168.0-0.0","0","0","31565","","null","","","null","18","","","","","","","","","","","","","","","",""
"","ITI","","html-keyboard-response","124","393582","0.0-1.0-171.0","0","0","31565","","937","","","75","18","","","","","","","","","","","","","","","k",""
"","S1","","html-keyboard-response","125","393833","0.0-1.0-173.0","0","0","31565","","null","","","null","19","","","","","","","","","","","","","","","",""
"","ISI","","html-keyboard-response","126","394336","0.0-1.0-174.0","0","0","31565","","null","","","null","19","NaN","","","","","","","","","","","","","","",""
"","S2","","html-keyboard-response","127","394588","0.0-1.0-175.0","0","0","31565","","null","","","null","19","","NaN","","","","","","","","","","","","","",""
"","response","","html-keyboard-response","128","394666","0.0-1.0-176.0-0.0","0","0","31565","","78","","","68","19","","","1","19","training","adjacent","CD","3","4","Q.jpg","R.jpg","0","1","0","",""
"","feedback","","html-keyboard-response","129","395668","0.0-1.0-177.0-0.0","0","0","31565","","null","","","null","19","","","","","","","","","","","","","","","",""
"","time_out","","html-keyboard-response","130","397670","0.0-1.0-179.0-0.0","0","0","31565","","null","","","null","19","","","","","","","","","","","","","","","",""
"","ITI","","html-keyboard-response","131","398673","0.0-1.0-180.0","0","0","31565","","null","","","null","19","","","","","","","","","","","","","","","NaN",""
"","S1","","html-keyboard-response","132","398924","0.0-1.0-182.0","0","0","31565","","null","","","null","20","","","","","","","","","","","","","","","",""
"","ISI","","html-keyboard-response","133","399427","0.0-1.0-183.0","0","0","31565","","null","","","null","20","NaN","","","","","","","","","","","","","","",""
"","S2","","html-keyboard-response","134","399679","0.0-1.0-184.0","0","0","31565","","null","","","null","20","","NaN","","","","","","","","","","","","","",""
"","response","","html-keyboard-response","135","400233","0.0-1.0-185.0-0.0","0","0","31565","","552","","","68","20","","","1","20","training","adjacent","EF","5","6","L.jpg","N.jpg","0","1","0","",""
"","feedback","","html-keyboard-response","136","401235","0.0-1.0-186.0-0.0","0","0","31565","","null","","","null","20","","","","","","","","","","","","","","","",""
"","time_out","","html-keyboard-response","137","403236","0.0-1.0-188.0-0.0","0","0","31565","","null","","","null","20","","","","","","","","","","","","","","","",""
"","ITI","","html-keyboard-response","138","404239","0.0-1.0-189.0","0","0","31565","","593","","","68","20","","","","","","","","","","","","","","","d",""
"","S1","","html-keyboard-response","139","404491","0.0-1.0-191.0","0","0","31565","","null","","","null","21","","","","","","","","","","","","","","","",""
"","ISI","","html-keyboard-response","140","404994","0.0-1.0-192.0","0","0","31565","","219","","","68","21","d","","","","","","","","","","","","","","",""
"","S2","","html-keyboard-response","141","405246","0.0-1.0-193.0","0","0","31565","","null","","","null","21","","NaN","","","","","","","","","","","","","",""
"","response","","html-keyboard-response","142","406000","0.0-1.0-194.0-0.0","0","0","31565","","753","","","68","21","","","1","21","training","adjacent","CD","3","4","Q.jpg","R.jpg","0","1","0","",""
"","feedback","","html-keyboard-response","143","407002","0.0-1.0-195.0-0.0","0","0","31565","","null","","","null","21","","","","","","","","","","","","","","","",""
"","time_out","","html-keyboard-response","144","409004","0.0-1.0-197.0-0.0","0","0","31565","","null","","","null","21","","","","","","","","","","","","","","","",""
"","ITI","","html-keyboard-response","145","410006","0.0-1.0-198.0","0","0","31565","","180","","","68","21","","","","","","","","","","","","","","","d",""
"","S1","","html-keyboard-response","146","410259","0.0-1.0-200.0","0","0","31565","","null","","","null","22","","","","","","","","","","","","","","","",""
"","ISI","","html-keyboard-response","147","410761","0.0-1.0-201.0","0","0","31565","","311","","","68","22","d","","","","","","","","","","","","","","",""
"","S2","","html-keyboard-response","148","411014","0.0-1.0-202.0","0","0","31565","","null","","","null","22","","NaN","","","","","","","","","","","","","",""
"","response","","html-keyboard-response","149","411571","0.0-1.0-203.0-0.0","0","0","31565","","556","","","75","22","","","1","22","training","adjacent","FG","6","7","N.jpg","O.jpg","1","1","1","",""
"","feedback","","html-keyboard-response","150","412573","0.0-1.0-204.0-0.0","0","0","31565","","null","","","null","22","","","","","","","","","","","","","","","",""
"","ITI","","html-keyboard-response","151","413575","0.0-1.0-207.0","0","0","31565","","567","","","75","22","","","","","","","","","","","","","","","k",""
"","S1","","html-keyboard-response","152","413827","0.0-1.0-209.0","0","0","31565","","null","","","null","23","","","","","","","","","","","","","","","",""
"","ISI","","html-keyboard-response","153","414329","0.0-1.0-210.0","0","0","31565","","162","","","68","23","d","","","","","","","","","","","","","","",""
"","S2","","html-keyboard-response","154","414581","0.0-1.0-211.0","0","0","31565","","null","","","null","23","","NaN","","","","","","","","","","","","","",""
"","response","","html-keyboard-response","155","415296","0.0-1.0-212.0-0.0","0","0","31565","","714","","","68","23","","","1","23","training","adjacent","AB","1","2","M.jpg","P.jpg","0","1","0","",""
"","feedback","","html-keyboard-response","156","416298","0.0-1.0-213.0-0.0","0","0","31565","","null","","","null","23","","","","","","","","","","","","","","","",""
"","time_out","","html-keyboard-response","157","418301","0.0-1.0-215.0-0.0","0","0","31565","","null","","","null","23","","","","","","","","","","","","","","","",""
"","ITI","","html-keyboard-response","158","419302","0.0-1.0-216.0","0","0","31565","","null","","","null","23","","","","","","","","","","","","","","","NaN",""
"","S1","","html-keyboard-response","159","419555","0.0-1.0-218.0","0","0","31565","","null","","","null","24","","","","","","","","","","","","","","","",""
"","ISI","","html-keyboard-response","160","420056","0.0-1.0-219.0","0","0","31565","","null","","","null","24","NaN","","","","","","","","","","","","","","",""
"","S2","","html-keyboard-response","161","420309","0.0-1.0-220.0","0","0","31565","","null","","","null","24","","NaN","","","","","","","","","","","","","",""
"","response","","html-keyboard-response","162","421012","0.0-1.0-221.0-0.0","0","0","31565","","701","","","68","24","","","1","24","training","adjacent","BC","2","3","P.jpg","Q.jpg","0","1","0","",""
"","feedback","","html-keyboard-response","163","422014","0.0-1.0-222.0-0.0","0","0","31565","","null","","","null","24","","","","","","","","","","","","","","","",""
"","time_out","","html-keyboard-response","164","424017","0.0-1.0-224.0-0.0","0","0","31565","","null","","","null","24","","","","","","","","","","","","","","","",""
"","ITI","","html-keyboard-response","165","425020","0.0-1.0-225.0","0","0","31565","","918","","","68","24","","","","","","","","","","","","","","","d",""
"","S1","","html-keyboard-response","166","425272","0.0-1.0-227.0","0","0","31565","","null","","","null","25","","","","","","","","","","","","","","","",""
"","ISI","","html-keyboard-response","167","425773","0.0-1.0-228.0","0","0","31565","","null","","","null","25","NaN","","","","","","","","","","","","","","",""
"","S2","","html-keyboard-response","168","426027","0.0-1.0-229.0","0","0","31565","","null","","","null","25","","NaN","","","","","","","","","","","","","",""
"","response","","html-keyboard-response","169","426344","0.0-1.0-230.0-0.0","0","0","31565","","315","","","75","25","","","1","25","training","adjacent","BA","2","1","P.jpg","M.jpg","1","0","0","",""
"","feedback","","html-keyboard-response","170","427347","0.0-1.0-231.0-0.0","0","0","31565","","null","","","null","25","","","","","","","","","","","","","","","",""
"","time_out","","html-keyboard-response","171","429349","0.0-1.0-233.0-0.0","0","0","31565","","null","","","null","25","","","","","","","","","","","","","","","",""
"","ITI","","html-keyboard-response","172","430351","0.0-1.0-234.0","0","0","31565","","62","","","68","25","","","","","","","","","","","","","","","d",""
"","S1","","html-keyboard-response","173","430604","0.0-1.0-236.0","0","0","31565","","null","","","null","26","","","","","","","","","","","","","","","",""
"","ISI","","html-keyboard-response","174","431106","0.0-1.0-237.0","0","0","31565","","96","","","68","26","d","","","","","","","","","","","","","","",""
"","S2","","html-keyboard-response","175","431359","0.0-1.0-238.0","0","0","31565","","null","","","null","26","","NaN","","","","","","","","","","","","","",""
"","response","","html-keyboard-response","176","431727","0.0-1.0-239.0-0.0","0","0","31565","","367","","","75","26","","","1","26","training","adjacent","CB","3","2","Q.jpg","P.jpg","1","0","0","",""
"","feedback","","html-keyboard-response","177","432729","0.0-1.0-240.0-0.0","0","0","31565","","null","","","null","26","","","","","","","","","","","","","","","",""
"","time_out","","html-keyboard-response","178","434731","0.0-1.0-242.0-0.0","0","0","31565","","null","","","null","26","","","","","","","","","","","","","","","",""
"","ITI","","html-keyboard-response","179","435733","0.0-1.0-243.0","0","0","31565","","534","","","68","26","","","","","","","","","","","","","","","d",""
"","S1","","html-keyboard-response","180","435985","0.0-1.0-245.0","0","0","31565","","null","","","null","27","","","","","","","","","","","","","","","",""
"","ISI","","html-keyboard-response","181","436488","0.0-1.0-246.0","0","0","31565","","281","","","75","27","k","","","","","","","","","","","","","","",""
"","S2","","html-keyboard-response","182","436741","0.0-1.0-247.0","0","0","31565","","null","","","null","27","","NaN","","","","","","","","","","","","","",""
"","response","","html-keyboard-response","183","437838","0.0-1.0-248.0-0.0","0","0","31565","","1095","","","75","27","","","1","27","training","adjacent","AB","1","2","M.jpg","P.jpg","1","1","1","",""
"","feedback","","html-keyboard-response","184","438840","0.0-1.0-249.0-0.0","0","0","31565","","null","","","null","27","","","","","","","","","","","","","","","",""
"","ITI","","html-keyboard-response","185","439842","0.0-1.0-252.0","0","0","31565","","null","","","null","27","","","","","","","","","","","","","","","NaN",""
"","S1","","html-keyboard-response","186","440094","0.0-1.0-254.0","0","0","31565","","null","","","null","28","","","","","","","","","","","","","","","",""
"","ISI","","html-keyboard-response","187","440595","0.0-1.0-255.0","0","0","31565","","null","","","null","28","NaN","","","","","","","","","","","","","","",""
"","S2","","html-keyboard-response","188","440848","0.0-1.0-256.0","0","0","31565","","null","","","null","28","","NaN","","","","","","","","","","","","","",""
"","response","","html-keyboard-response","189","440979","0.0-1.0-257.0-0.0","0","0","31565","","130","","","75","28","","","1","28","training","adjacent","GF","7","6","O.jpg","N.jpg","1","0","0","",""
"","feedback","","html-keyboard-response","190","441982","0.0-1.0-258.0-0.0","0","0","31565","","null","","","null","28","","","","","","","","","","","","","","","",""
"","time_out","","html-keyboard-response","191","443984","0.0-1.0-260.0-0.0","0","0","31565","","null","","","null","28","","","","","","","","","","","","","","","",""
"","ITI","","html-keyboard-response","192","444987","0.0-1.0-261.0","0","0","31565","","81","","","68","28","","","","","","","","","","","","","","","d",""
"","S1","","html-keyboard-response","193","445240","0.0-1.0-263.0","0","0","31565","","null","","","null","29","","","","","","","","","","","","","","","",""
"","ISI","","html-keyboard-response","194","445741","0.0-1.0-264.0","0","0","31565","","467","","","68","29","d","","","","","","","","","","","","","","",""
"","S2","","html-keyboard-response","195","445993","0.0-1.0-265.0","0","0","31565","","null","","","null","29","","NaN","","","","","","","","","","","","","",""
"","response","","html-keyboard-response","196","446782","0.0-1.0-266.0-0.0","0","0","31565","","788","","","75","29","","","1","29","training","adjacent","EF","5","6","L.jpg","N.jpg","1","1","1","",""
"","feedback","","html-keyboard-response","197","447784","0.0-1.0-267.0-0.0","0","0","31565","","null","","","null","29","","","","","","","","","","","","","","","",""
"","ITI","","html-keyboard-response","198","448787","0.0-1.0-270.0","0","0","31565","","447","","","75","29","","","","","","","","","","","","","","","k",""
"","S1","","html-keyboard-response","199","449039","0.0-1.0-272.0","0","0","31565","","null","","","null","30","","","","","","","","","","","","","","","",""
"","ISI","","html-keyboard-response","200","449541","0.0-1.0-273.0","0","0","31565","","null","","","null","30","NaN","","","","","","","","","","","","","","",""
"","S2","","html-keyboard-response","201","449636","0.0-1.0-274.0","0","0","31565","","94","","","68","30","","d","1","30","training","adjacent","DE","4","5","R.jpg","L.jpg","0","1","0","",""
"","feedback","","html-keyboard-response","202","450638","0.0-1.0-276.0-0.0","0","0","31565","","null","","","null","30","","","","","","","","","","","","","","","",""
"","time_out","","html-keyboard-response","203","452640","0.0-1.0-278.0-0.0","0","0","31565","","null","","","null","30","","","","","","","","","","","","","","","",""
"","ITI","","html-keyboard-response","204","453642","0.0-1.0-279.0","0","0","31565","","594","","","68","30","","","","","","","","","","","","","","","d",""
"","S1","","html-keyboard-response","205","453895","0.0-1.0-281.0","0","0","31565","","null","","","null","31","","","","","","","","","","","","","","","",""
"","ISI","","html-keyboard-response","206","454412","0.0-1.0-282.0","0","0","31565","","219","","","68","31","d","","","","","","","","","","","","","","",""
"","S2","","html-keyboard-response","207","454664","0.0-1.0-283.0","0","0","31565","","null","","","null","31","","NaN","","","","","","","","","","","","","",""
"","response","","html-keyboard-response","208","455404","0.0-1.0-284.0-0.0","0","0","31565","","739","","","68","31","","","1","31","training","adjacent","BC","2","3","P.jpg","Q.jpg","0","1","0","",""
"","feedback","","html-keyboard-response","209","456407","0.0-1.0-285.0-0.0","0","0","31565","","null","","","null","31","","","","","","","","","","","","","","","",""
"","time_out","","html-keyboard-response","210","458409","0.0-1.0-287.0-0.0","0","0","31565","","null","","","null","31","","","","","","","","","","","","","","","",""
"","ITI","","html-keyboard-response","211","459411","0.0-1.0-288.0","0","0","31565","","176","","","68","31","","","","","","","","","","","","","","","d",""
"","S1","","html-keyboard-response","212","459664","0.0-1.0-290.0","0","0","31565","","null","","","null","32","","","","","","","","","","","","","","","",""
"","ISI","","html-keyboard-response","213","460166","0.0-1.0-291.0","0","0","31565","","307","","","68","32","d","","","","","","","","","","","","","","",""
"","S2","","html-keyboard-response","214","460418","0.0-1.0-292.0","0","0","31565","","null","","","null","32","","NaN","","","","","","","","","","","","","",""
"","response","","html-keyboard-response","215","460973","0.0-1.0-293.0-0.0","0","0","31565","","554","","","75","32","","","1","32","training","adjacent","GF","7","6","O.jpg","N.jpg","1","0","0","",""
"","feedback","","html-keyboard-response","216","461974","0.0-1.0-294.0-0.0","0","0","31565","","null","","","null","32","","","","","","","","","","","","","","","",""
"","time_out","","html-keyboard-response","217","463976","0.0-1.0-296.0-0.0","0","0","31565","","null","","","null","32","","","","","","","","","","","","","","","",""
"","ITI","","html-keyboard-response","218","464978","0.0-1.0-297.0","0","0","31565","","722","","","68","32","","","","","","","","","","","","","","","d",""
"","S1","","html-keyboard-response","219","465230","0.0-1.0-299.0","0","0","31565","","null","","","null","33","","","","","","","","","","","","","","","",""
"","ISI","","html-keyboard-response","220","465733","0.0-1.0-300.0","0","0","31565","","454","","","75","33","k","","","","","","","","","","","","","","",""
"","S2","","html-keyboard-response","221","465995","0.0-1.0-301.0","0","0","31565","","null","","","null","33","","NaN","","","","","","","","","","","","","",""
"","response","","html-keyboard-response","222","467624","0.0-1.0-302.0-0.0","0","0","31565","","1627","","","75","33","","","1","33","training","adjacent","FG","6","7","N.jpg","O.jpg","1","1","1","",""
"","feedback","","html-keyboard-response","223","468627","0.0-1.0-303.0-0.0","0","0","31565","","null","","","null","33","","","","","","","","","","","","","","","",""
"","ITI","","html-keyboard-response","224","469630","0.0-1.0-306.0","0","0","31565","","142","","","68","33","","","","","","","","","","","","","","","d",""
"","S1","","html-keyboard-response","225","469881","0.0-1.0-308.0","0","0","31565","","null","","","null","34","","","","","","","","","","","","","","","",""
"","ISI","","html-keyboard-response","226","470383","0.0-1.0-309.0","0","0","31565","","null","","","null","34","NaN","","","","","","","","","","","","","","",""
"","S2","","html-keyboard-response","227","470413","0.0-1.0-310.0","0","0","31565","","28","","","68","34","","d","1","34","training","adjacent","FG","6","7","N.jpg","O.jpg","0","1","0","",""
"","feedback","","html-keyboard-response","228","471415","0.0-1.0-312.0-0.0","0","0","31565","","null","","","null","34","","","","","","","","","","","","","","","",""
"","time_out","","html-keyboard-response","229","473418","0.0-1.0-314.0-0.0","0","0","31565","","null","","","null","34","","","","","","","","","","","","","","","",""
"","ITI","","html-keyboard-response","230","474419","0.0-1.0-315.0","0","0","31565","","919","","","68","34","","","","","","","","","","","","","","","d",""
"","S1","","html-keyboard-response","231","474672","0.0-1.0-317.0","0","0","31565","","null","","","null","35","","","","","","","","","","","","","","","",""
"","ISI","","html-keyboard-response","232","475174","0.0-1.0-318.0","0","0","31565","","null","","","null","35","NaN","","","","","","","","","","","","","","",""
"","S2","","html-keyboard-response","233","475427","0.0-1.0-319.0","0","0","31565","","null","","","null","35","","NaN","","","","","","","","","","","","","",""
"","response","","html-keyboard-response","234","475748","0.0-1.0-320.0-0.0","0","0","31565","","320","","","75","35","","","1","35","training","adjacent","FE","6","5","N.jpg","L.jpg","1","0","0","",""
"","feedback","","html-keyboard-response","235","476751","0.0-1.0-321.0-0.0","0","0","31565","","null","","","null","35","","","","","","","","","","","","","","","",""
"","time_out","","html-keyboard-response","236","478753","0.0-1.0-323.0-0.0","0","0","31565","","null","","","null","35","","","","","","","","","","","","","","","",""
"","ITI","","html-keyboard-response","237","479755","0.0-1.0-324.0","0","0","31565","","65","","","68","35","","","","","","","","","","","","","","","d",""
"","S1","","html-keyboard-response","238","480007","0.0-1.0-326.0","0","0","31565","","null","","","null","36","","","","","","","","","","","","","","","",""
"","ISI","","html-keyboard-response","239","480510","0.0-1.0-327.0","0","0","31565","","101","","","68","36","d","","","","","","","","","","","","","","",""
"","S2","","html-keyboard-response","240","480762","0.0-1.0-328.0","0","0","31565","","null","","","null","36","","NaN","","","","","","","","","","","","","",""
"","response","","html-keyboard-response","241","481136","0.0-1.0-329.0-0.0","0","0","31565","","373","","","75","36","","","1","36","training","adjacent","BC","2","3","P.jpg","Q.jpg","1","1","1","",""
"","feedback","","html-keyboard-response","242","482138","0.0-1.0-330.0-0.0","0","0","31565","","null","","","null","36","","","","","","","","","","","","","","","",""
"","ITI","","html-keyboard-response","243","483140","0.0-1.0-333.0","0","0","31565","","276","","","75","36","","","","","","","","","","","","","","","k",""
"","S1","","html-keyboard-response","244","483393","0.0-1.0-335.0","0","0","31565","","null","","","null","37","","","","","","","","","","","","","","","",""
"","ISI","","html-keyboard-response","245","483895","0.0-1.0-336.0","0","0","31565","","null","","","null","37","NaN","","","","","","","","","","","","","","",""
"","S2","","html-keyboard-response","246","484147","0.0-1.0-337.0","0","0","31565","","null","","","null","37","","NaN","","","","","","","","","","","","","",""
"","response","","html-keyboard-response","247","484677","0.0-1.0-338.0-0.0","0","0","31565","","528","","","68","37","","","1","37","training","adjacent","CB","3","2","Q.jpg","P.jpg","0","0","1","",""
"","feedback","","html-keyboard-response","248","485679","0.0-1.0-339.0-0.0","0","0","31565","","null","","","null","37","","","","","","","","","","","","","","","",""
"","ITI","","html-keyboard-response","249","486680","0.0-1.0-342.0","0","0","31565","","null","","","null","37","","","","","","","","","","","","","","","NaN",""
"","S1","","html-keyboard-response","250","486932","0.0-1.0-344.0","0","0","31565","","null","","","null","38","","","","","","","","","","","","","","","",""
"","ISI","","html-keyboard-response","251","487434","0.0-1.0-345.0","0","0","31565","","316","","","75","38","k","","","","","","","","","","","","","","",""
"","S2","","html-keyboard-response","252","487686","0.0-1.0-346.0","0","0","31565","","null","","","null","38","","NaN","","","","","","","","","","","","","",""
"","response","","html-keyboard-response","253","488098","0.0-1.0-347.0-0.0","0","0","31565","","411","","","68","38","","","1","38","training","adjacent","DE","4","5","R.jpg","L.jpg","0","1","0","",""
"","feedback","","html-keyboard-response","254","489101","0.0-1.0-348.0-0.0","0","0","31565","","null","","","null","38","","","","","","","","","","","","","","","",""
"","time_out","","html-keyboard-response","255","491103","0.0-1.0-350.0-0.0","0","0","31565","","null","","","null","38","","","","","","","","","","","","","","","",""
"","ITI","","html-keyboard-response","256","492106","0.0-1.0-351.0","0","0","31565","","null","","","null","38","","","","","","","","","","","","","","","NaN",""
"","S1","","html-keyboard-response","257","492359","0.0-1.0-353.0","0","0","31565","","null","","","null","39","","","","","","","","","","","","","","","",""
"","ISI","","html-keyboard-response","258","492861","0.0-1.0-354.0","0","0","31565","","null","","","null","39","NaN","","","","","","","","","","","","","","",""
"","S2","","html-keyboard-response","259","493112","0.0-1.0-355.0","0","0","31565","","null","","","null","39","","NaN","","","","","","","","","","","","","",""
"","response","","html-keyboard-response","260","493477","0.0-1.0-356.0-0.0","0","0","31565","","364","","","68","39","","","1","39","training","adjacent","BA","2","1","P.jpg","M.jpg","0","0","1","",""
"","feedback","","html-keyboard-response","261","494480","0.0-1.0-357.0-0.0","0","0","31565","","null","","","null","39","","","","","","","","","","","","","","","",""
"","ITI","","html-keyboard-response","262","495482","0.0-1.0-360.0","0","0","31565","","639","","","68","39","","","","","","","","","","","","","","","d",""
"","S1","","html-keyboard-response","263","495735","0.0-1.0-362.0","0","0","31565","","null","","","null","40","","","","","","","","","","","","","","","",""
"","ISI","","html-keyboard-response","264","496236","0.0-1.0-363.0","0","0","31565","","458","","","75","40","k","","","","","","","","","","","","","","",""
"","S2","","html-keyboard-response","265","496488","0.0-1.0-364.0","0","0","31565","","null","","","null","40","","NaN","","","","","","","","","","","","","",""
"","response","","html-keyboard-response","266","497645","0.0-1.0-365.0-0.0","0","0","31565","","1156","","","75","40","","","1","40","training","adjacent","FG","6","7","N.jpg","O.jpg","1","1","1","",""
"","feedback","","html-keyboard-response","267","498648","0.0-1.0-366.0-0.0","0","0","31565","","null","","","null","40","","","","","","","","","","","","","","","",""
"","ITI","","html-keyboard-response","268","499650","0.0-1.0-369.0","0","0","31565","","397","","","68","40","","","","","","","","","","","","","","","d",""
"","S1","","html-keyboard-response","269","499903","0.0-1.0-371.0","0","0","31565","","null","","","null","41","","","","","","","","","","","","","","","",""
"","ISI","","html-keyboard-response","270","500405","0.0-1.0-372.0","0","0","31565","","null","","","null","41","NaN","","","","","","","","","","","","","","",""
"","S2","","html-keyboard-response","271","500456","0.0-1.0-373.0","0","0","31565","","50","","","75","41","","k","1","41","training","adjacent","GF","7","6","O.jpg","N.jpg","1","0","0","",""
"","feedback","","html-keyboard-response","272","501458","0.0-1.0-375.0-0.0","0","0","31565","","null","","","null","41","","","","","","","","","","","","","","","",""
"","time_out","","html-keyboard-response","273","503460","0.0-1.0-377.0-0.0","0","0","31565","","null","","","null","41","","","","","","","","","","","","","","","",""
"","ITI","","html-keyboard-response","274","504462","0.0-1.0-378.0","0","0","31565","","61","","","68","41","","","","","","","","","","","","","","","d",""
"","S1","","html-keyboard-response","275","504714","0.0-1.0-380.0","0","0","31565","","null","","","null","42","","","","","","","","","","","","","","","",""
"","ISI","","html-keyboard-response","276","505216","0.0-1.0-381.0","0","0","31565","","98","","","68","42","d","","","","","","","","","","","","","","",""
"","S2","","html-keyboard-response","277","505468","0.0-1.0-382.0","0","0","31565","","null","","","null","42","","NaN","","","","","","","","","","","","","",""
"","response","","html-keyboard-response","278","505838","0.0-1.0-383.0-0.0","0","0","31565","","369","","","75","42","","","1","42","training","adjacent","FE","6","5","N.jpg","L.jpg","1","0","0","",""
"","feedback","","html-keyboard-response","279","506841","0.0-1.0-384.0-0.0","0","0","31565","","null","","","null","42","","","","","","","","","","","","","","","",""
"","time_out","","html-keyboard-response","280","508843","0.0-1.0-386.0-0.0","0","0","31565","","null","","","null","42","","","","","","","","","","","","","","","",""
"","ITI","","html-keyboard-response","281","509846","0.0-1.0-387.0","0","0","31565","","538","","","68","42","","","","","","","","","","","","","","","d",""
"","S1","","html-keyboard-response","282","510098","0.0-1.0-389.0","0","0","31565","","null","","","null","43","","","","","","","","","","","","","","","",""
"","ISI","","html-keyboard-response","283","510601","0.0-1.0-390.0","0","0","31565","","283","","","75","43","k","","","","","","","","","","","","","","",""
"","S2","","html-keyboard-response","284","510854","0.0-1.0-391.0","0","0","31565","","null","","","null","43","","NaN","","","","","","","","","","","","","",""
"","response","","html-keyboard-response","285","511953","0.0-1.0-392.0-0.0","0","0","31565","","1098","","","75","43","","","1","43","training","adjacent","AB","1","2","M.jpg","P.jpg","1","1","1","",""
"","feedback","","html-keyboard-response","286","512955","0.0-1.0-393.0-0.0","0","0","31565","","null","","","null","43","","","","","","","","","","","","","","","",""
"","ITI","","html-keyboard-response","287","513958","0.0-1.0-396.0","0","0","31565","","null","","","null","43","","","","","","","","","","","","","","","NaN",""
"","S1","","html-keyboard-response","288","514210","0.0-1.0-398.0","0","0","31565","","null","","","null","44","","","","","","","","","","","","","","","",""
"","ISI","","html-keyboard-response","289","514712","0.0-1.0-399.0","0","0","31565","","null","","","null","44","NaN","","","","","","","","","","","","","","",""
"","S2","","html-keyboard-response","290","514964","0.0-1.0-400.0","0","0","31565","","null","","","null","44","","NaN","","","","","","","","","","","","","",""
"","response","","html-keyboard-response","291","515095","0.0-1.0-401.0-0.0","0","0","31565","","130","","","75","44","","","1","44","training","adjacent","CB","3","2","Q.jpg","P.jpg","1","0","0","",""
"","feedback","","html-keyboard-response","292","516097","0.0-1.0-402.0-0.0","0","0","31565","","null","","","null","44","","","","","","","","","","","","","","","",""
"","time_out","","html-keyboard-response","293","518099","0.0-1.0-404.0-0.0","0","0","31565","","null","","","null","44","","","","","","","","","","","","","","","",""
"","ITI","","html-keyboard-response","294","519102","0.0-1.0-405.0","0","0","31565","","80","","","68","44","","","","","","","","","","","","","","","d",""
"","S1","","html-keyboard-response","295","519354","0.0-1.0-407.0","0","0","31565","","null","","","null","45","","","","","","","","","","","","","","","",""
"","ISI","","html-keyboard-response","296","519856","0.0-1.0-408.0","0","0","31565","","467","","","68","45","d","","","","","","","","","","","","","","",""
"","S2","","html-keyboard-response","297","520109","0.0-1.0-409.0","0","0","31565","","null","","","null","45","","NaN","","","","","","","","","","","","","",""
"","response","","html-keyboard-response","298","520896","0.0-1.0-410.0-0.0","0","0","31565","","786","","","75","45","","","1","45","training","adjacent","DC","4","3","R.jpg","Q.jpg","1","0","0","",""
"","feedback","","html-keyboard-response","299","521898","0.0-1.0-411.0-0.0","0","0","31565","","null","","","null","45","","","","","","","","","","","","","","","",""
"","time_out","","html-keyboard-response","300","523900","0.0-1.0-413.0-0.0","0","0","31565","","null","","","null","45","","","","","","","","","","","","","","","",""
"","ITI","","html-keyboard-response","301","524902","0.0-1.0-414.0","0","0","31565","","null","","","null","45","","","","","","","","","","","","","","","NaN",""
"","S1","","html-keyboard-response","302","525155","0.0-1.0-416.0","0","0","31565","","null","","","null","46","","","","","","","","","","","","","","","",""
"","ISI","","html-keyboard-response","303","525657","0.0-1.0-417.0","0","0","31565","","1","","","75","46","k","","","","","","","","","","","","","","",""
"","S2","","html-keyboard-response","304","525909","0.0-1.0-418.0","0","0","31565","","null","","","null","46","","NaN","","","","","","","","","","","","","",""
"","response","","html-keyboard-response","305","526319","0.0-1.0-419.0-0.0","0","0","31565","","409","","","75","46","","","1","46","training","adjacent","DE","4","5","R.jpg","L.jpg","1","1","1","",""
"","feedback","","html-keyboard-response","306","527322","0.0-1.0-420.0-0.0","0","0","31565","","null","","","null","46","","","","","","","","","","","","","","","",""
"","ITI","","html-keyboard-response","307","528324","0.0-1.0-423.0","0","0","31565","","21","","","68","46","","","","","","","","","","","","","","","d",""
"","S1","","html-keyboard-response","308","528577","0.0-1.0-425.0","0","0","31565","","null","","","null","47","","","","","","","","","","","","","","","",""
"","ISI","","html-keyboard-response","309","529080","0.0-1.0-426.0","0","0","31565","","null","","","null","47","NaN","","","","","","","","","","","","","","",""
"","S2","","html-keyboard-response","310","529331","0.0-1.0-427.0","0","0","31565","","null","","","null","47","","NaN","","","","","","","","","","","","","",""
"","response","","html-keyboard-response","311","529515","0.0-1.0-428.0-0.0","0","0","31565","","183","","","68","47","","","1","47","training","adjacent","FE","6","5","N.jpg","L.jpg","0","0","1","",""
"","feedback","","html-keyboard-response","312","530518","0.0-1.0-429.0-0.0","0","0","31565","","null","","","null","47","","","","","","","","","","","","","","","",""
"","ITI","","html-keyboard-response","313","531521","0.0-1.0-432.0","0","0","31565","","23","","","75","47","","","","","","","","","","","","","","","k",""
"","block_over","","html-keyboard-response","314","546122","0.0-1.0-433.0-0.0","0","0","31565","","14601","","","32","47","","","","","","","","","","","","","","","",""
"","S1","","html-keyboard-response","315","546375","0.0-1.0-434.0","0","0","31565","","null","","","null","48","","","","","","","","","","","","","","","",""
"","ISI","","html-keyboard-response","316","546877","0.0-1.0-435.0","0","0","31565","","null","","","null","48","NaN","","","","","","","","","","","","","","",""
"","S2","","html-keyboard-response","317","547047","0.0-1.0-436.0","0","0","31565","","168","","","75","48","","k","2","48","training","adjacent","FE","6","5","N.jpg","L.jpg","1","0","0","",""
"","feedback","","html-keyboard-response","318","548049","0.0-1.0-438.0-0.0","0","0","31565","","null","","","null","48","","","","","","","","","","","","","","","",""
"","time_out","","html-keyboard-response","319","550051","0.0-1.0-440.0-0.0","0","0","31565","","null","","","null","48","","","","","","","","","","","","","","","",""
"","ITI","","html-keyboard-response","320","551054","0.0-1.0-441.0","0","0","31565","","969","","","75","48","","","","","","","","","","","","","","","k",""
"","S1","","html-keyboard-response","321","551306","0.0-1.0-443.0","0","0","31565","","null","","","null","49","","","","","","","","","","","","","","","",""
"","ISI","","html-keyboard-response","322","551809","0.0-1.0-444.0","0","0","31565","","null","","","null","49","NaN","","","","","","","","","","","","","","",""
"","S2","","html-keyboard-response","323","552049","0.0-1.0-445.0","0","0","31565","","239","","","68","49","","d","2","49","training","adjacent","DE","4","5","R.jpg","L.jpg","0","1","0","",""
"","feedback","","html-keyboard-response","324","553051","0.0-1.0-447.0-0.0","0","0","31565","","null","","","null","49","","","","","","","","","","","","","","","",""
"","time_out","","html-keyboard-response","325","555053","0.0-1.0-449.0-0.0","0","0","31565","","null","","","null","49","","","","","","","","","","","","","","","",""
"","ITI","","html-keyboard-response","326","556055","0.0-1.0-450.0","0","0","31565","","192","","","75","49","","","","","","","","","","","","","","","k",""
"","S1","","html-keyboard-response","327","556308","0.0-1.0-452.0","0","0","31565","","null","","","null","50","","","","","","","","","","","","","","","",""
"","ISI","","html-keyboard-response","328","556809","0.0-1.0-453.0","0","0","31565","","217","","","75","50","k","","","","","","","","","","","","","","",""
"","S2","","html-keyboard-response","329","557062","0.0-1.0-454.0","0","0","31565","","null","","","null","50","","NaN","","","","","","","","","","","","","",""
"","response","","html-keyboard-response","330","557401","0.0-1.0-455.0-0.0","0","0","31565","","337","","","68","50","","","2","50","training","adjacent","BC","2","3","P.jpg","Q.jpg","0","1","0","",""
"","feedback","","html-keyboard-response","331","558403","0.0-1.0-456.0-0.0","0","0","31565","","null","","","null","50","","","","","","","","","","","","","","","",""
"","time_out","","html-keyboard-response","332","560405","0.0-1.0-458.0-0.0","0","0","31565","","null","","","null","50","","","","","","","","","","","","","","","",""
"","ITI","","html-keyboard-response","333","561408","0.0-1.0-459.0","0","0","31565","","953","","","75","50","","","","","","","","","","","","","","","k",""
"","S1","","html-keyboard-response","334","561660","0.0-1.0-461.0","0","0","31565","","null","","","null","51","","","","","","","","","","","","","","","",""
"","ISI","","html-keyboard-response","335","562162","0.0-1.0-462.0","0","0","31565","","null","","","null","51","NaN","","","","","","","","","","","","","","",""
"","S2","","html-keyboard-response","336","562207","0.0-1.0-463.0","0","0","31565","","44","","","68","51","","d","2","51","training","adjacent","BA","2","1","P.jpg","M.jpg","0","0","1","",""
"","feedback","","html-keyboard-response","337","563210","0.0-1.0-465.0-0.0","0","0","31565","","null","","","null","51","","","","","","","","","","","","","","","",""
"","ITI","","html-keyboard-response","338","564212","0.0-1.0-468.0","0","0","31565","","302","","","68","51","","","","","","","","","","","","","","","d",""
"","S1","","html-keyboard-response","339","564465","0.0-1.0-470.0","0","0","31565","","null","","","null","52","","","","","","","","","","","","","","","",""
"","ISI","","html-keyboard-response","340","564967","0.0-1.0-471.0","0","0","31565","","32","","","75","52","k","","","","","","","","","","","","","","",""
"","S2","","html-keyboard-response","341","565219","0.0-1.0-472.0","0","0","31565","","null","","","null","52","","NaN","","","","","","","","","","","","","",""
"","response","","html-keyboard-response","342","566438","0.0-1.0-473.0-0.0","0","0","31565","","1217","","","75","52","","","2","52","training","adjacent","DC","4","3","R.jpg","Q.jpg","1","0","0","",""
"","feedback","","html-keyboard-response","343","567440","0.0-1.0-474.0-0.0","0","0","31565","","null","","","null","52","","","","","","","","","","","","","","","",""
"","time_out","","html-keyboard-response","344","569442","0.0-1.0-476.0-0.0","0","0","31565","","null","","","null","52","","","","","","","","","","","","","","","",""
"","ITI","","html-keyboard-response","345","570445","0.0-1.0-477.0","0","0","31565","","856","","","75","52","","","","","","","","","","","","","","","k",""
"","S1","","html-keyboard-response","346","570697","0.0-1.0-479.0","0","0","31565","","null","","","null","53","","","","","","","","","","","","","","","",""
"","ISI","","html-keyboard-response","347","571199","0.0-1.0-480.0","0","0","31565","","null","","","null","53","NaN","","","","","","","","","","","","","","",""
"","S2","","html-keyboard-response","348","571451","0.0-1.0-481.0","0","0","31565","","null","","","null","53","","NaN","","","","","","","","","","","","","",""
"","response","","html-keyboard-response","349","571750","0.0-1.0-482.0-0.0","0","0","31565","","298","","","75","53","","","2","53","training","adjacent","BA","2","1","P.jpg","M.jpg","1","0","0","",""
"","feedback","","html-keyboard-response","350","572752","0.0-1.0-483.0-0.0","0","0","31565","","null","","","null","53","","","","","","","","","","","","","","","",""
"","time_out","","html-keyboard-response","351","574754","0.0-1.0-485.0-0.0","0","0","31565","","null","","","null","53","","","","","","","","","","","","","","","",""
"","ITI","","html-keyboard-response","352","575756","0.0-1.0-486.0","0","0","31565","","969","","","75","53","","","","","","","","","","","","","","","k",""
"","S1","","html-keyboard-response","353","576008","0.0-1.0-488.0","0","0","31565","","null","","","null","54","","","","","","","","","","","","","","","",""
"","ISI","","html-keyboard-response","354","576510","0.0-1.0-489.0","0","0","31565","","null","","","null","54","NaN","","","","","","","","","","","","","","",""
"","S2","","html-keyboard-response","355","576749","0.0-1.0-490.0","0","0","31565","","237","","","68","54","","d","2","54","training","adjacent","ED","5","4","L.jpg","R.jpg","0","0","1","",""
"","feedback","","html-keyboard-response","356","577751","0.0-1.0-492.0-0.0","0","0","31565","","null","","","null","54","","","","","","","","","","","","","","","",""
"","ITI","","html-keyboard-response","357","578753","0.0-1.0-495.0","0","0","31565","","null","","","null","54","","","","","","","","","","","","","","","NaN",""
"","S1","","html-keyboard-response","358","579006","0.0-1.0-497.0","0","0","31565","","null","","","null","55","","","","","","","","","","","","","","","",""
"","ISI","","html-keyboard-response","359","579507","0.0-1.0-498.0","0","0","31565","","null","","","null","55","NaN","","","","","","","","","","","","","","",""
"","S2","","html-keyboard-response","360","579759","0.0-1.0-499.0","0","0","31565","","null","","","null","55","","NaN","","","","","","","","","","","","","",""
"","response","","html-keyboard-response","361","579948","0.0-1.0-500.0-0.0","0","0","31565","","188","","","75","55","","","2","55","training","adjacent","FG","6","7","N.jpg","O.jpg","1","1","1","",""
"","feedback","","html-keyboard-response","362","580950","0.0-1.0-501.0-0.0","0","0","31565","","null","","","null","55","","","","","","","","","","","","","","","",""
"","ITI","","html-keyboard-response","363","581953","0.0-1.0-504.0","0","0","31565","","277","","","75","55","","","","","","","","","","","","","","","k",""
"","S1","","html-keyboard-response","364","582205","0.0-1.0-506.0","0","0","31565","","null","","","null","56","","","","","","","","","","","","","","","",""
"","ISI","","html-keyboard-response","365","582708","0.0-1.0-507.0","0","0","31565","","null","","","null","56","NaN","","","","","","","","","","","","","","",""
"","S2","","html-keyboard-response","366","582959","0.0-1.0-508.0","0","0","31565","","null","","","null","56","","NaN","","","","","","","","","","","","","",""
"","response","","html-keyboard-response","367","583491","0.0-1.0-509.0-0.0","0","0","31565","","529","","","68","56","","","2","56","training","adjacent","FG","6","7","N.jpg","O.jpg","0","1","0","",""
"","feedback","","html-keyboard-response","368","584493","0.0-1.0-510.0-0.0","0","0","31565","","null","","","null","56","","","","","","","","","","","","","","","",""
"","time_out","","html-keyboard-response","369","586495","0.0-1.0-512.0-0.0","0","0","31565","","null","","","null","56","","","","","","","","","","","","","","","",""
"","ITI","","html-keyboard-response","370","587497","0.0-1.0-513.0","0","0","31565","","413","","","68","56","","","","","","","","","","","","","","","d",""
"","S1","","html-keyboard-response","371","587750","0.0-1.0-515.0","0","0","31565","","null","","","null","57","","","","","","","","","","","","","","","",""
"","ISI","","html-keyboard-response","372","588252","0.0-1.0-516.0","0","0","31565","","466","","","68","57","d","","","","","","","","","","","","","","",""
"","S2","","html-keyboard-response","373","588503","0.0-1.0-517.0","0","0","31565","","null","","","null","57","","NaN","","","","","","","","","","","","","",""
"","response","","html-keyboard-response","374","589202","0.0-1.0-518.0-0.0","0","0","31565","","697","","","75","57","","","2","57","training","adjacent","EF","5","6","L.jpg","N.jpg","1","1","1","",""
"","feedback","","html-keyboard-response","375","590204","0.0-1.0-519.0-0.0","0","0","31565","","null","","","null","57","","","","","","","","","","","","","","","",""
"","ITI","","html-keyboard-response","376","591208","0.0-1.0-522.0","0","0","31565","","935","","","75","57","","","","","","","","","","","","","","","k",""
"","S1","","html-keyboard-response","377","591460","0.0-1.0-524.0","0","0","31565","","null","","","null","58","","","","","","","","","","","","","","","",""
"","ISI","","html-keyboard-response","378","591962","0.0-1.0-525.0","0","0","31565","","null","","","null","58","NaN","","","","","","","","","","","","","","",""
"","S2","","html-keyboard-response","379","592215","0.0-1.0-526.0","0","0","31565","","null","","","null","58","","NaN","","","","","","","","","","","","","",""
"","response","","html-keyboard-response","380","592287","0.0-1.0-527.0-0.0","0","0","31565","","71","","","68","58","","","2","58","training","adjacent","CB","3","2","Q.jpg","P.jpg","0","0","1","",""
"","feedback","","html-keyboard-response","381","593289","0.0-1.0-528.0-0.0","0","0","31565","","null","","","null","58","","","","","","","","","","","","","","","",""
"","ITI","","html-keyboard-response","382","594290","0.0-1.0-531.0","0","0","31565","","640","","","68","58","","","","","","","","","","","","","","","d",""
"","S1","","html-keyboard-response","383","594543","0.0-1.0-533.0","0","0","31565","","null","","","null","59","","","","","","","","","","","","","","","",""
"","ISI","","html-keyboard-response","384","595045","0.0-1.0-534.0","0","0","31565","","459","","","75","59","k","","","","","","","","","","","","","","",""
"","S2","","html-keyboard-response","385","595298","0.0-1.0-535.0","0","0","31565","","null","","","null","59","","NaN","","","","","","","","","","","","","",""
"","response","","html-keyboard-response","386","596454","0.0-1.0-536.0-0.0","0","0","31565","","1155","","","75","59","","","2","59","training","adjacent","CD","3","4","Q.jpg","R.jpg","1","1","1","",""
"","feedback","","html-keyboard-response","387","597456","0.0-1.0-537.0-0.0","0","0","31565","","null","","","null","59","","","","","","","","","","","","","","","",""
"","ITI","","html-keyboard-response","388","598458","0.0-1.0-540.0","0","0","31565","","398","","","68","59","","","","","","","","","","","","","","","d",""
"","S1","","html-keyboard-response","389","598711","0.0-1.0-542.0","0","0","31565","","null","","","null","60","","","","","","","","","","","","","","","",""
"","ISI","","html-keyboard-response","390","599213","0.0-1.0-543.0","0","0","31565","","null","","","null","60","NaN","","","","","","","","","","","","","","",""
"","S2","","html-keyboard-response","391","599266","0.0-1.0-544.0","0","0","31565","","51","","","75","60","","k","2","60","training","adjacent","CB","3","2","Q.jpg","P.jpg","1","0","0","",""
"","feedback","","html-keyboard-response","392","600268","0.0-1.0-546.0-0.0","0","0","31565","","null","","","null","60","","","","","","","","","","","","","","","",""
"","time_out","","html-keyboard-response","393","602270","0.0-1.0-548.0-0.0","0","0","31565","","null","","","null","60","","","","","","","","","","","","","","","",""
"","ITI","","html-keyboard-response","394","603273","0.0-1.0-549.0","0","0","31565","","62","","","68","60","","","","","","","","","","","","","","","d",""
"","S1","","html-keyboard-response","395","603525","0.0-1.0-551.0","0","0","31565","","null","","","null","61","","","","","","","","","","","","","","","",""
"","ISI","","html-keyboard-response","396","604027","0.0-1.0-552.0","0","0","31565","","98","","","68","61","d","","","","","","","","","","","","","","",""
"","S2","","html-keyboard-response","397","604280","0.0-1.0-553.0","0","0","31565","","null","","","null","61","","NaN","","","","","","","","","","","","","",""
"","response","","html-keyboard-response","398","604650","0.0-1.0-554.0-0.0","0","0","31565","","369","","","75","61","","","2","61","training","adjacent","BC","2","3","P.jpg","Q.jpg","1","1","1","",""
"","feedback","","html-keyboard-response","399","605665","0.0-1.0-555.0-0.0","0","0","31565","","null","","","null","61","","","","","","","","","","","","","","","",""
"","ITI","","html-keyboard-response","400","606668","0.0-1.0-558.0","0","0","31565","","262","","","75","61","","","","","","","","","","","","","","","k",""
"","S1","","html-keyboard-response","401","606920","0.0-1.0-560.0","0","0","31565","","null","","","null","62","","","","","","","","","","","","","","","",""
"","ISI","","html-keyboard-response","402","607421","0.0-1.0-561.0","0","0","31565","","null","","","null","62","NaN","","","","","","","","","","","","","","",""
"","S2","","html-keyboard-response","403","607674","0.0-1.0-562.0","0","0","31565","","null","","","null","62","","NaN","","","","","","","","","","","","","",""
"","response","","html-keyboard-response","404","608189","0.0-1.0-563.0-0.0","0","0","31565","","514","","","68","62","","","2","62","training","adjacent","BA","2","1","P.jpg","M.jpg","0","0","1","",""
"","feedback","","html-keyboard-response","405","609191","0.0-1.0-564.0-0.0","0","0","31565","","null","","","null","62","","","","","","","","","","","","","","","",""
"","ITI","","html-keyboard-response","406","610194","0.0-1.0-567.0","0","0","31565","","null","","","null","62","","","","","","","","","","","","","","","NaN",""
"","S1","","html-keyboard-response","407","610446","0.0-1.0-569.0","0","0","31565","","null","","","null","63","","","","","","","","","","","","","","","",""
"","ISI","","html-keyboard-response","408","610948","0.0-1.0-570.0","0","0","31565","","313","","","75","63","k","","","","","","","","","","","","","","",""
"","S2","","html-keyboard-response","409","611201","0.0-1.0-571.0","0","0","31565","","null","","","null","63","","NaN","","","","","","","","","","","","","",""
"","response","","html-keyboard-response","410","611608","0.0-1.0-572.0-0.0","0","0","31565","","406","","","68","63","","","2","63","training","adjacent","FG","6","7","N.jpg","O.jpg","0","1","0","",""
"","feedback","","html-keyboard-response","411","612610","0.0-1.0-573.0-0.0","0","0","31565","","null","","","null","63","","","","","","","","","","","","","","","",""
"","time_out","","html-keyboard-response","412","614612","0.0-1.0-575.0-0.0","0","0","31565","","null","","","null","63","","","","","","","","","","","","","","","",""
"","ITI","","html-keyboard-response","413","615614","0.0-1.0-576.0","0","0","31565","","null","","","null","63","","","","","","","","","","","","","","","NaN",""
"","S1","","html-keyboard-response","414","615865","0.0-1.0-578.0","0","0","31565","","null","","","null","64","","","","","","","","","","","","","","","",""
"","ISI","","html-keyboard-response","415","616368","0.0-1.0-579.0","0","0","31565","","null","","","null","64","NaN","","","","","","","","","","","","","","",""
"","S2","","html-keyboard-response","416","616623","0.0-1.0-580.0","0","0","31565","","null","","","null","64","","NaN","","","","","","","","","","","","","",""
"","response","","html-keyboard-response","417","616985","0.0-1.0-581.0-0.0","0","0","31565","","360","","","68","64","","","2","64","training","adjacent","AB","1","2","M.jpg","P.jpg","0","1","0","",""
"","feedback","","html-keyboard-response","418","617988","0.0-1.0-582.0-0.0","0","0","31565","","null","","","null","64","","","","","","","","","","","","","","","",""
"","time_out","","html-keyboard-response","419","619990","0.0-1.0-584.0-0.0","0","0","31565","","null","","","null","64","","","","","","","","","","","","","","","",""
"","ITI","","html-keyboard-response","420","620992","0.0-1.0-585.0","0","0","31565","","null","","","null","64","","","","","","","","","","","","","","","NaN",""
"","S1","","html-keyboard-response","421","621244","0.0-1.0-587.0","0","0","31565","","null","","","null","65","","","","","","","","","","","","","","","",""
"","ISI","","html-keyboard-response","422","621746","0.0-1.0-588.0","0","0","31565","","null","","","null","65","NaN","","","","","","","","","","","","","","",""
"","S2","","html-keyboard-response","423","621998","0.0-1.0-589.0","0","0","31565","","null","","","null","65","","NaN","","","","","","","","","","","","","",""
"","response","","html-keyboard-response","424","622554","0.0-1.0-590.0-0.0","0","0","31565","","555","","","68","65","","","2","65","training","adjacent","BC","2","3","P.jpg","Q.jpg","0","1","0","",""
"","feedback","","html-keyboard-response","425","623557","0.0-1.0-591.0-0.0","0","0","31565","","null","","","null","65","","","","","","","","","","","","","","","",""
"","time_out","","html-keyboard-response","426","625560","0.0-1.0-593.0-0.0","0","0","31565","","null","","","null","65","","","","","","","","","","","","","","","",""
"","ITI","","html-keyboard-response","427","626562","0.0-1.0-594.0","0","0","31565","","591","","","68","65","","","","","","","","","","","","","","","d",""
"","S1","","html-keyboard-response","428","626815","0.0-1.0-596.0","0","0","31565","","null","","","null","66","","","","","","","","","","","","","","","",""
"","ISI","","html-keyboard-response","429","627318","0.0-1.0-597.0","0","0","31565","","221","","","68","66","d","","","","","","","","","","","","","","",""
"","S2","","html-keyboard-response","430","627570","0.0-1.0-598.0","0","0","31565","","null","","","null","66","","NaN","","","","","","","","","","","","","",""
"","response","","html-keyboard-response","431","628325","0.0-1.0-599.0-0.0","0","0","31565","","754","","","68","66","","","2","66","training","adjacent","ED","5","4","L.jpg","R.jpg","0","0","1","",""
"","feedback","","html-keyboard-response","432","629333","0.0-1.0-600.0-0.0","0","0","31565","","null","","","null","66","","","","","","","","","","","","","","","",""
"","ITI","","html-keyboard-response","433","630336","0.0-1.0-603.0","0","0","31565","","17","","","75","66","","","","","","","","","","","","","","","k",""
"","S1","","html-keyboard-response","434","630589","0.0-1.0-605.0","0","0","31565","","null","","","null","67","","","","","","","","","","","","","","","",""
"","ISI","","html-keyboard-response","435","631091","0.0-1.0-606.0","0","0","31565","","43","","","75","67","k","","","","","","","","","","","","","","",""
"","S2","","html-keyboard-response","436","631342","0.0-1.0-607.0","0","0","31565","","null","","","null","67","","NaN","","","","","","","","","","","","","",""
"","response","","html-keyboard-response","437","631509","0.0-1.0-608.0-0.0","0","0","31565","","165","","","68","67","","","2","67","training","adjacent","GF","7","6","O.jpg","N.jpg","0","0","1","",""
"","feedback","","html-keyboard-response","438","632511","0.0-1.0-609.0-0.0","0","0","31565","","null","","","null","67","","","","","","","","","","","","","","","",""
"","ITI","","html-keyboard-response","439","633513","0.0-1.0-612.0","0","0","31565","","383","","","68","67","","","","","","","","","","","","","","","d",""
"","S1","","html-keyboard-response","440","633775","0.0-1.0-614.0","0","0","31565","","null","","","null","68","","","","","","","","","","","","","","","",""
"","ISI","","html-keyboard-response","441","634277","0.0-1.0-615.0","0","0","31565","","120","","","75","68","k","","","","","","","","","","","","","","",""
"","S2","","html-keyboard-response","442","634529","0.0-1.0-616.0","0","0","31565","","null","","","null","68","","NaN","","","","","","","","","","","","","",""
"","response","","html-keyboard-response","443","635464","0.0-1.0-617.0-0.0","0","0","31565","","935","","","75","68","","","2","68","training","adjacent","AB","1","2","M.jpg","P.jpg","1","1","1","",""
"","feedback","","html-keyboard-response","444","636468","0.0-1.0-618.0-0.0","0","0","31565","","null","","","null","68","","","","","","","","","","","","","","","",""
"","ITI","","html-keyboard-response","445","637470","0.0-1.0-621.0","0","0","31565","","null","","","null","68","","","","","","","","","","","","","","","NaN",""
"","S1","","html-keyboard-response","446","637722","0.0-1.0-623.0","0","0","31565","","null","","","null","69","","","","","","","","","","","","","","","",""
"","ISI","","html-keyboard-response","447","638224","0.0-1.0-624.0","0","0","31565","","null","","","null","69","NaN","","","","","","","","","","","","","","",""
"","S2","","html-keyboard-response","448","638485","0.0-1.0-625.0","0","0","31565","","null","","","null","69","","NaN","","","","","","","","","","","","","",""
"","response","","html-keyboard-response","449","638607","0.0-1.0-626.0-0.0","0","0","31565","","121","","","75","69","","","2","69","training","adjacent","DC","4","3","R.jpg","Q.jpg","1","0","0","",""
"","feedback","","html-keyboard-response","450","639609","0.0-1.0-627.0-0.0","0","0","31565","","null","","","null","69","","","","","","","","","","","","","","","",""
"","time_out","","html-keyboard-response","451","641611","0.0-1.0-629.0-0.0","0","0","31565","","null","","","null","69","","","","","","","","","","","","","","","",""
"","ITI","","html-keyboard-response","452","642613","0.0-1.0-630.0","0","0","31565","","80","","","68","69","","","","","","","","","","","","","","","d",""
"","S1","","html-keyboard-response","453","642866","0.0-1.0-632.0","0","0","31565","","null","","","null","70","","","","","","","","","","","","","","","",""
"","ISI","","html-keyboard-response","454","643368","0.0-1.0-633.0","0","0","31565","","467","","","68","70","d","","","","","","","","","","","","","","",""
"","S2","","html-keyboard-response","455","643627","0.0-1.0-634.0","0","0","31565","","null","","","null","70","","NaN","","","","","","","","","","","","","",""
"","response","","html-keyboard-response","456","644408","0.0-1.0-635.0-0.0","0","0","31565","","780","","","75","70","","","2","70","training","adjacent","GF","7","6","O.jpg","N.jpg","1","0","0","",""
"","feedback","","html-keyboard-response","457","645411","0.0-1.0-636.0-0.0","0","0","31565","","null","","","null","70","","","","","","","","","","","","","","","",""
"","time_out","","html-keyboard-response","458","647414","0.0-1.0-638.0-0.0","0","0","31565","","null","","","null","70","","","","","","","","","","","","","","","",""
"","ITI","","html-keyboard-response","459","648417","0.0-1.0-639.0","0","0","31565","","null","","","null","70","","","","","","","","","","","","","","","NaN",""
"","S1","","html-keyboard-response","460","648670","0.0-1.0-641.0","0","0","31565","","null","","","null","71","","","","","","","","","","","","","","","",""
"","ISI","","html-keyboard-response","461","649172","0.0-1.0-642.0","0","0","31565","","0","","","75","71","k","","","","","","","","","","","","","","",""
"","S2","","html-keyboard-response","462","649424","0.0-1.0-643.0","0","0","31565","","null","","","null","71","","NaN","","","","","","","","","","","","","",""
"","response","","html-keyboard-response","463","649831","0.0-1.0-644.0-0.0","0","0","31565","","407","","","75","71","","","2","71","training","adjacent","CB","3","2","Q.jpg","P.jpg","1","0","0","",""
"","feedback","","html-keyboard-response","464","650834","0.0-1.0-645.0-0.0","0","0","31565","","null","","","null","71","","","","","","","","","","","","","","","",""
"","time_out","","html-keyboard-response","465","652837","0.0-1.0-647.0-0.0","0","0","31565","","null","","","null","71","","","","","","","","","","","","","","","",""
"","ITI","","html-keyboard-response","466","653839","0.0-1.0-648.0","0","0","31565","","200","","","68","71","","","","","","","","","","","","","","","d",""
"","S1","","html-keyboard-response","467","654091","0.0-1.0-650.0","0","0","31565","","null","","","null","72","","","","","","","","","","","","","","","",""
"","ISI","","html-keyboard-response","468","654594","0.0-1.0-651.0","0","0","31565","","null","","","null","72","NaN","","","","","","","","","","","","","","",""
"","S2","","html-keyboard-response","469","654848","0.0-1.0-652.0","0","0","31565","","null","","","null","72","","NaN","","","","","","","","","","","","","",""
"","response","","html-keyboard-response","470","655345","0.0-1.0-653.0-0.0","0","0","31565","","496","","","75","72","","","2","72","training","adjacent","ED","5","4","L.jpg","R.jpg","1","0","0","",""
"","feedback","","html-keyboard-response","471","656348","0.0-1.0-654.0-0.0","0","0","31565","","null","","","null","72","","","","","","","","","","","","","","","",""
"","time_out","","html-keyboard-response","472","658350","0.0-1.0-656.0-0.0","0","0","31565","","null","","","null","72","","","","","","","","","","","","","","","",""
"","ITI","","html-keyboard-response","473","659353","0.0-1.0-657.0","0","0","31565","","254","","","75","72","","","","","","","","","","","","","","","k",""
"","S1","","html-keyboard-response","474","659604","0.0-1.0-659.0","0","0","31565","","null","","","null","73","","","","","","","","","","","","","","","",""
"","ISI","","html-keyboard-response","475","660107","0.0-1.0-660.0","0","0","31565","","null","","","null","73","NaN","","","","","","","","","","","","","","",""
"","S2","","html-keyboard-response","476","660176","0.0-1.0-661.0","0","0","31565","","67","","","75","73","","k","2","73","training","adjacent","DC","4","3","R.jpg","Q.jpg","1","0","0","",""
"","feedback","","html-keyboard-response","477","661178","0.0-1.0-663.0-0.0","0","0","31565","","null","","","null","73","","","","","","","","","","","","","","","",""
"","time_out","","html-keyboard-response","478","663180","0.0-1.0-665.0-0.0","0","0","31565","","null","","","null","73","","","","","","","","","","","","","","","",""
"","ITI","","html-keyboard-response","479","664182","0.0-1.0-666.0","0","0","31565","","136","","","75","73","","","","","","","","","","","","","","","k",""
"","S1","","html-keyboard-response","480","664434","0.0-1.0-668.0","0","0","31565","","null","","","null","74","","","","","","","","","","","","","","","",""
"","ISI","","html-keyboard-response","481","664935","0.0-1.0-669.0","0","0","31565","","null","","","null","74","NaN","","","","","","","","","","","","","","",""
"","S2","","html-keyboard-response","482","665188","0.0-1.0-670.0","0","0","31565","","null","","","null","74","","NaN","","","","","","","","","","","","","",""
"","response","","html-keyboard-response","483","665256","0.0-1.0-671.0-0.0","0","0","31565","","67","","","75","74","","","2","74","training","adjacent","CD","3","4","Q.jpg","R.jpg","1","1","1","",""
"","feedback","","html-keyboard-response","484","666259","0.0-1.0-672.0-0.0","0","0","31565","","null","","","null","74","","","","","","","","","","","","","","","",""
"","ITI","","html-keyboard-response","485","667261","0.0-1.0-675.0","0","0","31565","","141","","","68","74","","","","","","","","","","","","","","","d",""
"","S1","","html-keyboard-response","486","667513","0.0-1.0-677.0","0","0","31565","","null","","","null","75","","","","","","","","","","","","","","","",""
"","ISI","","html-keyboard-response","487","668015","0.0-1.0-678.0","0","0","31565","","null","","","null","75","NaN","","","","","","","","","","","","","","",""
"","S2","","html-keyboard-response","488","668043","0.0-1.0-679.0","0","0","31565","","26","","","68","75","","d","2","75","training","adjacent","AB","1","2","M.jpg","P.jpg","0","1","0","",""
"","feedback","","html-keyboard-response","489","669045","0.0-1.0-681.0-0.0","0","0","31565","","null","","","null","75","","","","","","","","","","","","","","","",""
"","time_out","","html-keyboard-response","490","671047","0.0-1.0-683.0-0.0","0","0","31565","","null","","","null","75","","","","","","","","","","","","","","","",""
"","ITI","","html-keyboard-response","491","672049","0.0-1.0-684.0","0","0","31565","","919","","","68","75","","","","","","","","","","","","","","","d",""
"","S1","","html-keyboard-response","492","672301","0.0-1.0-686.0","0","0","31565","","null","","","null","76","","","","","","","","","","","","","","","",""
"","ISI","","html-keyboard-response","493","672803","0.0-1.0-687.0","0","0","31565","","null","","","null","76","NaN","","","","","","","","","","","","","","",""
"","S2","","html-keyboard-response","494","673062","0.0-1.0-688.0","0","0","31565","","null","","","null","76","","NaN","","","","","","","","","","","","","",""
"","response","","html-keyboard-response","495","673377","0.0-1.0-689.0-0.0","0","0","31565","","314","","","75","76","","","2","76","training","adjacent","EF","5","6","L.jpg","N.jpg","1","1","1","",""
"","feedback","","html-keyboard-response","496","674378","0.0-1.0-690.0-0.0","0","0","31565","","null","","","null","76","","","","","","","","","","","","","","","",""
"","ITI","","html-keyboard-response","497","675380","0.0-1.0-693.0","0","0","31565","","159","","","75","76","","","","","","","","","","","","","","","k",""
"","S1","","html-keyboard-response","498","675632","0.0-1.0-695.0","0","0","31565","","null","","","null","77","","","","","","","","","","","","","","","",""
"","ISI","","html-keyboard-response","499","676145","0.0-1.0-696.0","0","0","31565","","null","","","null","77","NaN","","","","","","","","","","","","","","",""
"","S2","","html-keyboard-response","500","676398","0.0-1.0-697.0","0","0","31565","","null","","","null","77","","NaN","","","","","","","","","","","","","",""
"","response","","html-keyboard-response","501","676446","0.0-1.0-698.0-0.0","0","0","31565","","47","","","68","77","","","2","77","training","adjacent","FE","6","5","N.jpg","L.jpg","0","0","1","",""
"","feedback","","html-keyboard-response","502","677448","0.0-1.0-699.0-0.0","0","0","31565","","null","","","null","77","","","","","","","","","","","","","","","",""
"","ITI","","html-keyboard-response","503","678455","0.0-1.0-702.0","0","0","31565","","285","","","68","77","","","","","","","","","","","","","","","d",""
"","S1","","html-keyboard-response","504","678714","0.0-1.0-704.0","0","0","31565","","null","","","null","78","","","","","","","","","","","","","","","",""
"","ISI","","html-keyboard-response","505","679218","0.0-1.0-705.0","0","0","31565","","45","","","75","78","k","","","","","","","","","","","","","","",""
"","S2","","html-keyboard-response","506","679470","0.0-1.0-706.0","0","0","31565","","null","","","null","78","","NaN","","","","","","","","","","","","","",""
"","response","","html-keyboard-response","507","680041","0.0-1.0-707.0-0.0","0","0","31565","","570","","","75","78","","","2","78","training","adjacent","CD","3","4","Q.jpg","R.jpg","1","1","1","",""
"","feedback","","html-keyboard-response","508","681043","0.0-1.0-708.0-0.0","0","0","31565","","null","","","null","78","","","","","","","","","","","","","","","",""
"","ITI","","html-keyboard-response","509","682047","0.0-1.0-711.0","0","0","31565","","null","","","null","78","","","","","","","","","","","","","","","NaN",""
"","S1","","html-keyboard-response","510","682299","0.0-1.0-713.0","0","0","31565","","null","","","null","79","","","","","","","","","","","","","","","",""
"","ISI","","html-keyboard-response","511","682801","0.0-1.0-714.0","0","0","31565","","1","","","68","79","d","","","","","","","","","","","","","","",""
"","S2","","html-keyboard-response","512","683053","0.0-1.0-715.0","0","0","31565","","null","","","null","79","","NaN","","","","","","","","","","","","","",""
"","response","","html-keyboard-response","513","683301","0.0-1.0-716.0-0.0","0","0","31565","","247","","","75","79","","","2","79","training","adjacent","ED","5","4","L.jpg","R.jpg","1","0","0","",""
"","feedback","","html-keyboard-response","514","684304","0.0-1.0-717.0-0.0","0","0","31565","","null","","","null","79","","","","","","","","","","","","","","","",""
"","time_out","","html-keyboard-response","515","686307","0.0-1.0-719.0-0.0","0","0","31565","","null","","","null","79","","","","","","","","","","","","","","","",""
"","ITI","","html-keyboard-response","516","687309","0.0-1.0-720.0","0","0","31565","","717","","","68","79","","","","","","","","","","","","","","","d",""
"","S1","","html-keyboard-response","517","687571","0.0-1.0-722.0","0","0","31565","","null","","","null","80","","","","","","","","","","","","","","","",""
"","ISI","","html-keyboard-response","518","688073","0.0-1.0-723.0","0","0","31565","","440","","","75","80","k","","","","","","","","","","","","","","",""
"","S2","","html-keyboard-response","519","688325","0.0-1.0-724.0","0","0","31565","","null","","","null","80","","NaN","","","","","","","","","","","","","",""
"","response","","html-keyboard-response","520","689951","0.0-1.0-725.0-0.0","0","0","31565","","1624","","","75","80","","","2","80","training","adjacent","CB","3","2","Q.jpg","P.jpg","1","0","0","",""
"","feedback","","html-keyboard-response","521","690953","0.0-1.0-726.0-0.0","0","0","31565","","null","","","null","80","","","","","","","","","","","","","","","",""
"","time_out","","html-keyboard-response","522","692955","0.0-1.0-728.0-0.0","0","0","31565","","null","","","null","80","","","","","","","","","","","","","","","",""
"","ITI","","html-keyboard-response","523","693958","0.0-1.0-729.0","0","0","31565","","854","","","75","80","","","","","","","","","","","","","","","k",""
"","S1","","html-keyboard-response","524","694210","0.0-1.0-731.0","0","0","31565","","null","","","null","81","","","","","","","","","","","","","","","",""
"","ISI","","html-keyboard-response","525","694713","0.0-1.0-732.0","0","0","31565","","null","","","null","81","NaN","","","","","","","","","","","","","","",""
"","S2","","html-keyboard-response","526","694976","0.0-1.0-733.0","0","0","31565","","null","","","null","81","","NaN","","","","","","","","","","","","","",""
"","response","","html-keyboard-response","527","695262","0.0-1.0-734.0-0.0","0","0","31565","","285","","","75","81","","","2","81","training","adjacent","FE","6","5","N.jpg","L.jpg","1","0","0","",""
"","feedback","","html-keyboard-response","528","696265","0.0-1.0-735.0-0.0","0","0","31565","","null","","","null","81","","","","","","","","","","","","","","","",""
"","time_out","","html-keyboard-response","529","698268","0.0-1.0-737.0-0.0","0","0","31565","","null","","","null","81","","","","","","","","","","","","","","","",""
"","ITI","","html-keyboard-response","530","699270","0.0-1.0-738.0","0","0","31565","","966","","","75","81","","","","","","","","","","","","","","","k",""
"","S1","","html-keyboard-response","531","699522","0.0-1.0-740.0","0","0","31565","","null","","","null","82","","","","","","","","","","","","","","","",""
"","ISI","","html-keyboard-response","532","700024","0.0-1.0-741.0","0","0","31565","","null","","","null","82","NaN","","","","","","","","","","","","","","",""
"","S2","","html-keyboard-response","533","700261","0.0-1.0-742.0","0","0","31565","","236","","","68","82","","d","2","82","training","adjacent","GF","7","6","O.jpg","N.jpg","0","0","1","",""
"","feedback","","html-keyboard-response","534","701264","0.0-1.0-744.0-0.0","0","0","31565","","null","","","null","82","","","","","","","","","","","","","","","",""
"","ITI","","html-keyboard-response","535","702266","0.0-1.0-747.0","0","0","31565","","null","","","null","82","","","","","","","","","","","","","","","NaN",""
"","S1","","html-keyboard-response","536","702518","0.0-1.0-749.0","0","0","31565","","null","","","null","83","","","","","","","","","","","","","","","",""
"","ISI","","html-keyboard-response","537","703019","0.0-1.0-750.0","0","0","31565","","null","","","null","83","NaN","","","","","","","","","","","","","","",""
"","S2","","html-keyboard-response","538","703272","0.0-1.0-751.0","0","0","31565","","null","","","null","83","","NaN","","","","","","","","","","","","","",""
"","response","","html-keyboard-response","539","703459","0.0-1.0-752.0-0.0","0","0","31565","","186","","","75","83","","","2","83","training","adjacent","EF","5","6","L.jpg","N.jpg","1","1","1","",""
"","feedback","","html-keyboard-response","540","704461","0.0-1.0-753.0-0.0","0","0","31565","","null","","","null","83","","","","","","","","","","","","","","","",""
"","ITI","","html-keyboard-response","541","705464","0.0-1.0-756.0","0","0","31565","","278","","","75","83","","","","","","","","","","","","","","","k",""
"","S1","","html-keyboard-response","542","705717","0.0-1.0-758.0","0","0","31565","","null","","","null","84","","","","","","","","","","","","","","","",""
"","ISI","","html-keyboard-response","543","706219","0.0-1.0-759.0","0","0","31565","","null","","","null","84","NaN","","","","","","","","","","","","","","",""
"","S2","","html-keyboard-response","544","706470","0.0-1.0-760.0","0","0","31565","","null","","","null","84","","NaN","","","","","","","","","","","","","",""
"","response","","html-keyboard-response","545","707000","0.0-1.0-761.0-0.0","0","0","31565","","528","","","68","84","","","2","84","training","adjacent","AB","1","2","M.jpg","P.jpg","0","1","0","",""
"","feedback","","html-keyboard-response","546","708001","0.0-1.0-762.0-0.0","0","0","31565","","null","","","null","84","","","","","","","","","","","","","","","",""
"","time_out","","html-keyboard-response","547","710003","0.0-1.0-764.0-0.0","0","0","31565","","null","","","null","84","","","","","","","","","","","","","","","",""
"","ITI","","html-keyboard-response","548","711005","0.0-1.0-765.0","0","0","31565","","415","","","68","84","","","","","","","","","","","","","","","d",""
"","S1","","html-keyboard-response","549","711258","0.0-1.0-767.0","0","0","31565","","null","","","null","85","","","","","","","","","","","","","","","",""
"","ISI","","html-keyboard-response","550","711760","0.0-1.0-768.0","0","0","31565","","469","","","68","85","d","","","","","","","","","","","","","","",""
"","S2","","html-keyboard-response","551","712012","0.0-1.0-769.0","0","0","31565","","null","","","null","85","","NaN","","","","","","","","","","","","","",""
"","response","","html-keyboard-response","552","712712","0.0-1.0-770.0-0.0","0","0","31565","","698","","","75","85","","","2","85","training","adjacent","DE","4","5","R.jpg","L.jpg","1","1","1","",""
"","feedback","","html-keyboard-response","553","713715","0.0-1.0-771.0-0.0","0","0","31565","","null","","","null","85","","","","","","","","","","","","","","","",""
"","ITI","","html-keyboard-response","554","714718","0.0-1.0-774.0","0","0","31565","","936","","","75","85","","","","","","","","","","","","","","","k",""
"","S1","","html-keyboard-response","555","714969","0.0-1.0-776.0","0","0","31565","","null","","","null","86","","","","","","","","","","","","","","","",""
"","ISI","","html-keyboard-response","556","715471","0.0-1.0-777.0","0","0","31565","","null","","","null","86","NaN","","","","","","","","","","","","","","",""
"","S2","","html-keyboard-response","557","715724","0.0-1.0-778.0","0","0","31565","","null","","","null","86","","NaN","","","","","","","","","","","","","",""
"","response","","html-keyboard-response","558","715797","0.0-1.0-779.0-0.0","0","0","31565","","72","","","68","86","","","2","86","training","adjacent","FE","6","5","N.jpg","L.jpg","0","0","1","",""
"","feedback","","html-keyboard-response","559","716798","0.0-1.0-780.0-0.0","0","0","31565","","null","","","null","86","","","","","","","","","","","","","","","",""
"","ITI","","html-keyboard-response","560","717801","0.0-1.0-783.0","0","0","31565","","638","","","68","86","","","","","","","","","","","","","","","d",""
"","S1","","html-keyboard-response","561","718053","0.0-1.0-785.0","0","0","31565","","null","","","null","87","","","","","","","","","","","","","","","",""
"","ISI","","html-keyboard-response","562","718555","0.0-1.0-786.0","0","0","31565","","458","","","75","87","k","","","","","","","","","","","","","","",""
"","S2","","html-keyboard-response","563","718808","0.0-1.0-787.0","0","0","31565","","null","","","null","87","","NaN","","","","","","","","","","","","","",""
"","response","","html-keyboard-response","564","719963","0.0-1.0-788.0-0.0","0","0","31565","","1154","","","75","87","","","2","87","training","adjacent","GF","7","6","O.jpg","N.jpg","1","0","0","",""
"","feedback","","html-keyboard-response","565","720965","0.0-1.0-789.0-0.0","0","0","31565","","null","","","null","87","","","","","","","","","","","","","","","",""
"","time_out","","html-keyboard-response","566","722967","0.0-1.0-791.0-0.0","0","0","31565","","null","","","null","87","","","","","","","","","","","","","","","",""
"","ITI","","html-keyboard-response","567","723969","0.0-1.0-792.0","0","0","31565","","969","","","75","87","","","","","","","","","","","","","","","k",""
"","S1","","html-keyboard-response","568","724222","0.0-1.0-794.0","0","0","31565","","null","","","null","88","","","","","","","","","","","","","","","",""
"","ISI","","html-keyboard-response","569","724726","0.0-1.0-795.0","0","0","31565","","null","","","null","88","NaN","","","","","","","","","","","","","","",""
"","S2","","html-keyboard-response","570","724963","0.0-1.0-796.0","0","0","31565","","237","","","68","88","","d","2","88","training","adjacent","BC","2","3","P.jpg","Q.jpg","0","1","0","",""
"","feedback","","html-keyboard-response","571","725965","0.0-1.0-798.0-0.0","0","0","31565","","null","","","null","88","","","","","","","","","","","","","","","",""
"","time_out","","html-keyboard-response","572","727968","0.0-1.0-800.0-0.0","0","0","31565","","null","","","null","88","","","","","","","","","","","","","","","",""
"","ITI","","html-keyboard-response","573","728970","0.0-1.0-801.0","0","0","31565","","191","","","75","88","","","","","","","","","","","","","","","k",""
"","S1","","html-keyboard-response","574","729222","0.0-1.0-803.0","0","0","31565","","null","","","null","89","","","","","","","","","","","","","","","",""
"","ISI","","html-keyboard-response","575","729724","0.0-1.0-804.0","0","0","31565","","218","","","75","89","k","","","","","","","","","","","","","","",""
"","S2","","html-keyboard-response","576","729977","0.0-1.0-805.0","0","0","31565","","null","","","null","89","","NaN","","","","","","","","","","","","","",""
"","response","","html-keyboard-response","577","730316","0.0-1.0-806.0-0.0","0","0","31565","","337","","","68","89","","","2","89","training","adjacent","BA","2","1","P.jpg","M.jpg","0","0","1","",""
"","feedback","","html-keyboard-response","578","731318","0.0-1.0-807.0-0.0","0","0","31565","","null","","","null","89","","","","","","","","","","","","","","","",""
"","ITI","","html-keyboard-response","579","732322","0.0-1.0-810.0","0","0","31565","","380","","","68","89","","","","","","","","","","","","","","","d",""
"","S1","","html-keyboard-response","580","732574","0.0-1.0-812.0","0","0","31565","","null","","","null","90","","","","","","","","","","","","","","","",""
"","ISI","","html-keyboard-response","581","733076","0.0-1.0-813.0","0","0","31565","","126","","","75","90","k","","","","","","","","","","","","","","",""
"","S2","","html-keyboard-response","582","733329","0.0-1.0-814.0","0","0","31565","","null","","","null","90","","NaN","","","","","","","","","","","","","",""
"","response","","html-keyboard-response","583","734272","0.0-1.0-815.0-0.0","0","0","31565","","943","","","75","90","","","2","90","training","adjacent","DE","4","5","R.jpg","L.jpg","1","1","1","",""
"","feedback","","html-keyboard-response","584","735275","0.0-1.0-816.0-0.0","0","0","31565","","null","","","null","90","","","","","","","","","","","","","","","",""
