"success","ttype","start_time","trial_type","trial_index","time_elapsed","internal_node_id","warning","missed_checkup","PID","view_history","rt","responses","repeat_instructions","key_press","index","keypress_isi","keypress_S2","block","trial_num","phase","group_type","pair_type","S1_stim","S2_stim","S1_img","S2_img","S1_chosen","S1_higher","accuracy","keypress_iti","total_bonus_tally"
"true","full_screen","d04132023hr1410","fullscreen","0","17905","0.0-0.0","0","0","12999","","","","","","","","","","","","","","","","","","","","","",""
"","instructions","","instructions","1","43894","0.0-1.0-0.0-0.0","0","0","12999","[{""page_index"":0,""viewing_time"":3746},{""page_index"":1,""viewing_time"":13872},{""page_index"":2,""viewing_time"":5389},{""page_index"":3,""viewing_time"":2982}]","25989","","","","","","","","","","","","","","","","","","","",""
"","comprehension_check","","survey-multi-choice","2","71603","0.0-1.0-0.0-1.0","0","0","12999","","27706","{""Q0"":""True"",""Q1"":""K"",""Q2"":""Only when the screen 'MAKE A CHOICE' is shown"",""Q3"":""Green mark"",""Q4"":""either D or K""}","1","","","","","","","","","","","","","","","","","",""
"","missed_instruction_checkup","","html-keyboard-response","3","74122","0.0-1.0-0.0-2.0-0.0","0","1","12999","","2517","","","32","","","","","","","","","","","","","","","","",""
"","instructions","","instructions","4","86896","0.0-1.0-0.1-0.1","0","0","12999","[{""page_index"":0,""viewing_time"":1733},{""page_index"":1,""viewing_time"":8808},{""page_index"":2,""viewing_time"":1200},{""page_index"":3,""viewing_time"":1032}]","12774","","","","","","","","","","","","","","","","","","","",""
"","comprehension_check","","survey-multi-choice","5","101155","0.0-1.0-0.1-1.1","0","0","12999","","14258","{""Q0"":""True"",""Q1"":""K"",""Q2"":""Once the second image appears and while the screen 'MAKE A CHOICE' is shown"",""Q3"":""Green mark"",""Q4"":""either D or K""}","0","","","","","","","","","","","","","","","","","",""
"","start_exp","","html-keyboard-response","6","102762","0.0-1.0-1.0","0","0","12999","","1606","","","32","","","","","","","","","","","","","","","","",""
"","S1","","html-keyboard-response","7","103014","0.0-1.0-2.0","0","0","12999","","null","","","null","0","","","","","","","","","","","","","","","",""
"","ISI","","html-keyboard-response","8","104016","0.0-1.0-3.0","0","0","12999","","null","","","null","0","NaN","","","","","","","","","","","","","","",""
"","S2","","html-keyboard-response","9","104267","0.0-1.0-4.0","0","0","12999","","null","","","null","0","","NaN","","","","","","","","","","","","","",""
"","response","","html-keyboard-response","10","104922","0.0-1.0-5.0-0.0","0","0","12999","","655","","","75","0","","","1","0","training","adjacent","ED","5","4","L.jpg","O.jpg","1","0","0","",""
"","feedback","","html-keyboard-response","11","105924","0.0-1.0-6.0-0.0","0","0","12999","","null","","","null","0","","","","","","","","","","","","","","","",""
"","time_out","","html-keyboard-response","12","107926","0.0-1.0-8.0-0.0","0","0","12999","","null","","","null","0","","","","","","","","","","","","","","","",""
"","ITI","","html-keyboard-response","13","108927","0.0-1.0-9.0","0","0","12999","","null","","","null","0","","","","","","","","","","","","","","","NaN",""
"","S1","","html-keyboard-response","14","109178","0.0-1.0-11.0","0","0","12999","","null","","","null","1","","","","","","","","","","","","","","","",""
"","ISI","","html-keyboard-response","15","110180","0.0-1.0-12.0","0","0","12999","","null","","","null","1","NaN","","","","","","","","","","","","","","",""
"","S2","","html-keyboard-response","16","110431","0.0-1.0-13.0","0","0","12999","","null","","","null","1","","NaN","","","","","","","","","","","","","",""
"","response","","html-keyboard-response","17","111042","0.0-1.0-14.0-0.0","0","0","12999","","611","","","68","1","","","1","1","training","adjacent","FE","6","5","N.jpg","L.jpg","0","0","1","",""
"","feedback","","html-keyboard-response","18","112057","0.0-1.0-15.0-0.0","0","0","12999","","null","","","null","1","","","","","","","","","","","","","","","",""
"","ITI","","html-keyboard-response","19","113063","0.0-1.0-18.0","0","0","12999","","null","","","null","1","","","","","","","","","","","","","","","NaN",""
"","S1","","html-keyboard-response","20","113314","0.0-1.0-20.0","0","0","12999","","null","","","null","2","","","","","","","","","","","","","","","",""
"","ISI","","html-keyboard-response","21","114316","0.0-1.0-21.0","0","0","12999","","null","","","null","2","NaN","","","","","","","","","","","","","","",""
"","S2","","html-keyboard-response","22","114567","0.0-1.0-22.0","0","0","12999","","null","","","null","2","","NaN","","","","","","","","","","","","","",""
"","response","","html-keyboard-response","23","115050","0.0-1.0-23.0-0.0","0","0","12999","","483","","","68","2","","","1","2","training","adjacent","FG","6","7","N.jpg","Q.jpg","0","1","0","",""
"","feedback","","html-keyboard-response","24","116051","0.0-1.0-24.0-0.0","0","0","12999","","null","","","null","2","","","","","","","","","","","","","","","",""
"","time_out","","html-keyboard-response","25","118052","0.0-1.0-26.0-0.0","0","0","12999","","null","","","null","2","","","","","","","","","","","","","","","",""
"","ITI","","html-keyboard-response","26","119054","0.0-1.0-27.0","0","0","12999","","null","","","null","2","","","","","","","","","","","","","","","NaN",""
"","S1","","html-keyboard-response","27","119305","0.0-1.0-29.0","0","0","12999","","null","","","null","3","","","","","","","","","","","","","","","",""
"","ISI","","html-keyboard-response","28","120307","0.0-1.0-30.0","0","0","12999","","null","","","null","3","NaN","","","","","","","","","","","","","","",""
"","S2","","html-keyboard-response","29","120558","0.0-1.0-31.0","0","0","12999","","null","","","null","3","","NaN","","","","","","","","","","","","","",""
"","response","","html-keyboard-response","30","120986","0.0-1.0-32.0-0.0","0","0","12999","","428","","","75","3","","","1","3","training","adjacent","DC","4","3","O.jpg","R.jpg","1","0","0","",""
"","feedback","","html-keyboard-response","31","121987","0.0-1.0-33.0-0.0","0","0","12999","","null","","","null","3","","","","","","","","","","","","","","","",""
"","time_out","","html-keyboard-response","32","123989","0.0-1.0-35.0-0.0","0","0","12999","","null","","","null","3","","","","","","","","","","","","","","","",""
"","ITI","","html-keyboard-response","33","124991","0.0-1.0-36.0","0","0","12999","","null","","","null","3","","","","","","","","","","","","","","","NaN",""
"","S1","","html-keyboard-response","34","125242","0.0-1.0-38.0","0","0","12999","","null","","","null","4","","","","","","","","","","","","","","","",""
"","ISI","","html-keyboard-response","35","126243","0.0-1.0-39.0","0","0","12999","","null","","","null","4","NaN","","","","","","","","","","","","","","",""
"","S2","","html-keyboard-response","36","126494","0.0-1.0-40.0","0","0","12999","","null","","","null","4","","NaN","","","","","","","","","","","","","",""
"","response","","html-keyboard-response","37","127426","0.0-1.0-41.0-0.0","0","0","12999","","931","","","75","4","","","1","4","training","adjacent","BA","2","1","P.jpg","M.jpg","1","0","0","",""
"","feedback","","html-keyboard-response","38","128428","0.0-1.0-42.0-0.0","0","0","12999","","null","","","null","4","","","","","","","","","","","","","","","",""
"","time_out","","html-keyboard-response","39","130430","0.0-1.0-44.0-0.0","0","0","12999","","null","","","null","4","","","","","","","","","","","","","","","",""
"","ITI","","html-keyboard-response","40","131431","0.0-1.0-45.0","0","0","12999","","null","","","null","4","","","","","","","","","","","","","","","NaN",""
"","S1","","html-keyboard-response","41","131682","0.0-1.0-47.0","0","0","12999","","null","","","null","5","","","","","","","","","","","","","","","",""
"","ISI","","html-keyboard-response","42","132684","0.0-1.0-48.0","0","0","12999","","null","","","null","5","NaN","","","","","","","","","","","","","","",""
"","S2","","html-keyboard-response","43","132935","0.0-1.0-49.0","0","0","12999","","null","","","null","5","","NaN","","","","","","","","","","","","","",""
"","response","","html-keyboard-response","44","133522","0.0-1.0-50.0-0.0","0","0","12999","","587","","","68","5","","","1","5","training","adjacent","GF","7","6","Q.jpg","N.jpg","0","0","1","",""
"","feedback","","html-keyboard-response","45","134524","0.0-1.0-51.0-0.0","0","0","12999","","null","","","null","5","","","","","","","","","","","","","","","",""
"","ITI","","html-keyboard-response","46","135525","0.0-1.0-54.0","0","0","12999","","null","","","null","5","","","","","","","","","","","","","","","NaN",""
"","S1","","html-keyboard-response","47","135776","0.0-1.0-56.0","0","0","12999","","null","","","null","6","","","","","","","","","","","","","","","",""
"","ISI","","html-keyboard-response","48","136778","0.0-1.0-57.0","0","0","12999","","null","","","null","6","NaN","","","","","","","","","","","","","","",""
"","S2","","html-keyboard-response","49","137029","0.0-1.0-58.0","0","0","12999","","null","","","null","6","","NaN","","","","","","","","","","","","","",""
"","response","","html-keyboard-response","50","137642","0.0-1.0-59.0-0.0","0","0","12999","","613","","","68","6","","","1","6","training","adjacent","BC","2","3","P.jpg","R.jpg","0","1","0","",""
"","feedback","","html-keyboard-response","51","138644","0.0-1.0-60.0-0.0","0","0","12999","","null","","","null","6","","","","","","","","","","","","","","","",""
"","time_out","","html-keyboard-response","52","140645","0.0-1.0-62.0-0.0","0","0","12999","","null","","","null","6","","","","","","","","","","","","","","","",""
"","ITI","","html-keyboard-response","53","141646","0.0-1.0-63.0","0","0","12999","","null","","","null","6","","","","","","","","","","","","","","","NaN",""
"","S1","","html-keyboard-response","54","141897","0.0-1.0-65.0","0","0","12999","","null","","","null","7","","","","","","","","","","","","","","","",""
"","ISI","","html-keyboard-response","55","142899","0.0-1.0-66.0","0","0","12999","","null","","","null","7","NaN","","","","","","","","","","","","","","",""
"","S2","","html-keyboard-response","56","143150","0.0-1.0-67.0","0","0","12999","","null","","","null","7","","NaN","","","","","","","","","","","","","",""
"","response","","html-keyboard-response","57","143386","0.0-1.0-68.0-0.0","0","0","12999","","236","","","68","7","","","1","7","training","adjacent","BA","2","1","P.jpg","M.jpg","0","0","1","",""
"","feedback","","html-keyboard-response","58","144388","0.0-1.0-69.0-0.0","0","0","12999","","null","","","null","7","","","","","","","","","","","","","","","",""
"","ITI","","html-keyboard-response","59","145389","0.0-1.0-72.0","0","0","12999","","null","","","null","7","","","","","","","","","","","","","","","NaN",""
"","S1","","html-keyboard-response","60","145640","0.0-1.0-74.0","0","0","12999","","null","","","null","8","","","","","","","","","","","","","","","",""
"","ISI","","html-keyboard-response","61","146642","0.0-1.0-75.0","0","0","12999","","null","","","null","8","NaN","","","","","","","","","","","","","","",""
"","S2","","html-keyboard-response","62","146893","0.0-1.0-76.0","0","0","12999","","null","","","null","8","","NaN","","","","","","","","","","","","","",""
"","response","","html-keyboard-response","63","147314","0.0-1.0-77.0-0.0","0","0","12999","","421","","","68","8","","","1","8","training","adjacent","AB","1","2","M.jpg","P.jpg","0","1","0","",""
"","feedback","","html-keyboard-response","64","148316","0.0-1.0-78.0-0.0","0","0","12999","","null","","","null","8","","","","","","","","","","","","","","","",""
"","time_out","","html-keyboard-response","65","150317","0.0-1.0-80.0-0.0","0","0","12999","","null","","","null","8","","","","","","","","","","","","","","","",""
"","ITI","","html-keyboard-response","66","151318","0.0-1.0-81.0","0","0","12999","","null","","","null","8","","","","","","","","","","","","","","","NaN",""
"","S1","","html-keyboard-response","67","151580","0.0-1.0-83.0","0","0","12999","","null","","","null","9","","","","","","","","","","","","","","","",""
"","ISI","","html-keyboard-response","68","152582","0.0-1.0-84.0","0","0","12999","","null","","","null","9","NaN","","","","","","","","","","","","","","",""
"","S2","","html-keyboard-response","69","152833","0.0-1.0-85.0","0","0","12999","","null","","","null","9","","NaN","","","","","","","","","","","","","",""
"","response","","html-keyboard-response","70","153194","0.0-1.0-86.0-0.0","0","0","12999","","361","","","68","9","","","1","9","training","adjacent","GF","7","6","Q.jpg","N.jpg","0","0","1","",""
"","feedback","","html-keyboard-response","71","154195","0.0-1.0-87.0-0.0","0","0","12999","","null","","","null","9","","","","","","","","","","","","","","","",""
"","ITI","","html-keyboard-response","72","155197","0.0-1.0-90.0","0","0","12999","","null","","","null","9","","","","","","","","","","","","","","","NaN",""
"","S1","","html-keyboard-response","73","155448","0.0-1.0-92.0","0","0","12999","","null","","","null","10","","","","","","","","","","","","","","","",""
"","ISI","","html-keyboard-response","74","156449","0.0-1.0-93.0","0","0","12999","","null","","","null","10","NaN","","","","","","","","","","","","","","",""
"","S2","","html-keyboard-response","75","156701","0.0-1.0-94.0","0","0","12999","","null","","","null","10","","NaN","","","","","","","","","","","","","",""
"","response","","html-keyboard-response","76","157202","0.0-1.0-95.0-0.0","0","0","12999","","501","","","68","10","","","1","10","training","adjacent","ED","5","4","L.jpg","O.jpg","0","0","1","",""
"","feedback","","html-keyboard-response","77","158203","0.0-1.0-96.0-0.0","0","0","12999","","null","","","null","10","","","","","","","","","","","","","","","",""
"","ITI","","html-keyboard-response","78","159205","0.0-1.0-99.0","0","0","12999","","null","","","null","10","","","","","","","","","","","","","","","NaN",""
"","S1","","html-keyboard-response","79","159456","0.0-1.0-101.0","0","0","12999","","null","","","null","11","","","","","","","","","","","","","","","",""
"","ISI","","html-keyboard-response","80","160466","0.0-1.0-102.0","0","0","12999","","null","","","null","11","NaN","","","","","","","","","","","","","","",""
"","S2","","html-keyboard-response","81","160717","0.0-1.0-103.0","0","0","12999","","null","","","null","11","","NaN","","","","","","","","","","","","","",""
"","response","","html-keyboard-response","82","161387","0.0-1.0-104.0-0.0","0","0","12999","","669","","","75","11","","","1","11","training","adjacent","DC","4","3","O.jpg","R.jpg","1","0","0","",""
"","feedback","","html-keyboard-response","83","162389","0.0-1.0-105.0-0.0","0","0","12999","","null","","","null","11","","","","","","","","","","","","","","","",""
"","time_out","","html-keyboard-response","84","164390","0.0-1.0-107.0-0.0","0","0","12999","","null","","","null","11","","","","","","","","","","","","","","","",""
"","ITI","","html-keyboard-response","85","165392","0.0-1.0-108.0","0","0","12999","","null","","","null","11","","","","","","","","","","","","","","","NaN",""
"","S1","","html-keyboard-response","86","165643","0.0-1.0-110.0","0","0","12999","","null","","","null","12","","","","","","","","","","","","","","","",""
"","ISI","","html-keyboard-response","87","166644","0.0-1.0-111.0","0","0","12999","","null","","","null","12","NaN","","","","","","","","","","","","","","",""
"","S2","","html-keyboard-response","88","166895","0.0-1.0-112.0","0","0","12999","","null","","","null","12","","NaN","","","","","","","","","","","","","",""
"","response","","html-keyboard-response","89","167267","0.0-1.0-113.0-0.0","0","0","12999","","371","","","68","12","","","1","12","training","adjacent","CB","3","2","R.jpg","P.jpg","0","0","1","",""
"","feedback","","html-keyboard-response","90","168269","0.0-1.0-114.0-0.0","0","0","12999","","null","","","null","12","","","","","","","","","","","","","","","",""
"","ITI","","html-keyboard-response","91","169270","0.0-1.0-117.0","0","0","12999","","null","","","null","12","","","","","","","","","","","","","","","NaN",""
"","S1","","html-keyboard-response","92","169522","0.0-1.0-119.0","0","0","12999","","null","","","null","13","","","","","","","","","","","","","","","",""
"","ISI","","html-keyboard-response","93","170523","0.0-1.0-120.0","0","0","12999","","null","","","null","13","NaN","","","","","","","","","","","","","","",""
"","S2","","html-keyboard-response","94","170774","0.0-1.0-121.0","0","0","12999","","null","","","null","13","","NaN","","","","","","","","","","","","","",""
"","response","","html-keyboard-response","95","171139","0.0-1.0-122.0-0.0","0","0","12999","","364","","","75","13","","","1","13","training","adjacent","BA","2","1","P.jpg","M.jpg","1","0","0","",""
"","feedback","","html-keyboard-response","96","172151","0.0-1.0-123.0-0.0","0","0","12999","","null","","","null","13","","","","","","","","","","","","","","","",""
"","time_out","","html-keyboard-response","97","174153","0.0-1.0-125.0-0.0","0","0","12999","","null","","","null","13","","","","","","","","","","","","","","","",""
"","ITI","","html-keyboard-response","98","175154","0.0-1.0-126.0","0","0","12999","","null","","","null","13","","","","","","","","","","","","","","","NaN",""
"","S1","","html-keyboard-response","99","175405","0.0-1.0-128.0","0","0","12999","","null","","","null","14","","","","","","","","","","","","","","","",""
"","ISI","","html-keyboard-response","100","176407","0.0-1.0-129.0","0","0","12999","","null","","","null","14","NaN","","","","","","","","","","","","","","",""
"","S2","","html-keyboard-response","101","176658","0.0-1.0-130.0","0","0","12999","","null","","","null","14","","NaN","","","","","","","","","","","","","",""
"","response","","html-keyboard-response","102","177355","0.0-1.0-131.0-0.0","0","0","12999","","697","","","68","14","","","1","14","training","adjacent","DC","4","3","O.jpg","R.jpg","0","0","1","",""
"","feedback","","html-keyboard-response","103","178356","0.0-1.0-132.0-0.0","0","0","12999","","null","","","null","14","","","","","","","","","","","","","","","",""
"","ITI","","html-keyboard-response","104","179358","0.0-1.0-135.0","0","0","12999","","null","","","null","14","","","","","","","","","","","","","","","NaN",""
"","S1","","html-keyboard-response","105","179620","0.0-1.0-137.0","0","0","12999","","null","","","null","15","","","","","","","","","","","","","","","",""
"","ISI","","html-keyboard-response","106","180622","0.0-1.0-138.0","0","0","12999","","null","","","null","15","NaN","","","","","","","","","","","","","","",""
"","S2","","html-keyboard-response","107","180873","0.0-1.0-139.0","0","0","12999","","null","","","null","15","","NaN","","","","","","","","","","","","","",""
"","response","","html-keyboard-response","108","181403","0.0-1.0-140.0-0.0","0","0","12999","","530","","","68","15","","","1","15","training","adjacent","CB","3","2","R.jpg","P.jpg","0","0","1","",""
"","feedback","","html-keyboard-response","109","182405","0.0-1.0-141.0-0.0","0","0","12999","","null","","","null","15","","","","","","","","","","","","","","","",""
"","ITI","","html-keyboard-response","110","183407","0.0-1.0-144.0","0","0","12999","","null","","","null","15","","","","","","","","","","","","","","","NaN",""
"","S1","","html-keyboard-response","111","183658","0.0-1.0-146.0","0","0","12999","","null","","","null","16","","","","","","","","","","","","","","","",""
"","ISI","","html-keyboard-response","112","184659","0.0-1.0-147.0","0","0","12999","","null","","","null","16","NaN","","","","","","","","","","","","","","",""
"","S2","","html-keyboard-response","113","184910","0.0-1.0-148.0","0","0","12999","","null","","","null","16","","NaN","","","","","","","","","","","","","",""
"","response","","html-keyboard-response","114","185115","0.0-1.0-149.0-0.0","0","0","12999","","204","","","75","16","","","1","16","training","adjacent","BA","2","1","P.jpg","M.jpg","1","0","0","",""
"","feedback","","html-keyboard-response","115","186117","0.0-1.0-150.0-0.0","0","0","12999","","null","","","null","16","","","","","","","","","","","","","","","",""
"","time_out","","html-keyboard-response","116","188119","0.0-1.0-152.0-0.0","0","0","12999","","null","","","null","16","","","","","","","","","","","","","","","",""
"","ITI","","html-keyboard-response","117","189120","0.0-1.0-153.0","0","0","12999","","null","","","null","16","","","","","","","","","","","","","","","NaN",""
"","S1","","html-keyboard-response","118","189371","0.0-1.0-155.0","0","0","12999","","null","","","null","17","","","","","","","","","","","","","","","",""
"","ISI","","html-keyboard-response","119","190373","0.0-1.0-156.0","0","0","12999","","null","","","null","17","NaN","","","","","","","","","","","","","","",""
"","S2","","html-keyboard-response","120","190624","0.0-1.0-157.0","0","0","12999","","null","","","null","17","","NaN","","","","","","","","","","","","","",""
"","response","","html-keyboard-response","121","191051","0.0-1.0-158.0-0.0","0","0","12999","","427","","","68","17","","","1","17","training","adjacent","CD","3","4","R.jpg","O.jpg","0","1","0","",""
"","feedback","","html-keyboard-response","122","192053","0.0-1.0-159.0-0.0","0","0","12999","","null","","","null","17","","","","","","","","","","","","","","","",""
"","time_out","","html-keyboard-response","123","194053","0.0-1.0-161.0-0.0","0","0","12999","","null","","","null","17","","","","","","","","","","","","","","","",""
"","ITI","","html-keyboard-response","124","195055","0.0-1.0-162.0","0","0","12999","","null","","","null","17","","","","","","","","","","","","","","","NaN",""
"","S1","","html-keyboard-response","125","195306","0.0-1.0-164.0","0","0","12999","","null","","","null","18","","","","","","","","","","","","","","","",""
"","ISI","","html-keyboard-response","126","196307","0.0-1.0-165.0","0","0","12999","","null","","","null","18","NaN","","","","","","","","","","","","","","",""
"","S2","","html-keyboard-response","127","196558","0.0-1.0-166.0","0","0","12999","","null","","","null","18","","NaN","","","","","","","","","","","","","",""
"","response","","html-keyboard-response","128","196907","0.0-1.0-167.0-0.0","0","0","12999","","348","","","75","18","","","1","18","training","adjacent","GF","7","6","Q.jpg","N.jpg","1","0","0","",""
"","feedback","","html-keyboard-response","129","197909","0.0-1.0-168.0-0.0","0","0","12999","","null","","","null","18","","","","","","","","","","","","","","","",""
"","time_out","","html-keyboard-response","130","199910","0.0-1.0-170.0-0.0","0","0","12999","","null","","","null","18","","","","","","","","","","","","","","","",""
"","ITI","","html-keyboard-response","131","200912","0.0-1.0-171.0","0","0","12999","","null","","","null","18","","","","","","","","","","","","","","","NaN",""
"","S1","","html-keyboard-response","132","201163","0.0-1.0-173.0","0","0","12999","","null","","","null","19","","","","","","","","","","","","","","","",""
"","ISI","","html-keyboard-response","133","202164","0.0-1.0-174.0","0","0","12999","","null","","","null","19","NaN","","","","","","","","","","","","","","",""
"","S2","","html-keyboard-response","134","202415","0.0-1.0-175.0","0","0","12999","","null","","","null","19","","NaN","","","","","","","","","","","","","",""
"","response","","html-keyboard-response","135","202835","0.0-1.0-176.0-0.0","0","0","12999","","419","","","68","19","","","1","19","training","adjacent","AB","1","2","M.jpg","P.jpg","0","1","0","",""
"","feedback","","html-keyboard-response","136","203837","0.0-1.0-177.0-0.0","0","0","12999","","null","","","null","19","","","","","","","","","","","","","","","",""
"","time_out","","html-keyboard-response","137","205839","0.0-1.0-179.0-0.0","0","0","12999","","null","","","null","19","","","","","","","","","","","","","","","",""
"","ITI","","html-keyboard-response","138","206841","0.0-1.0-180.0","0","0","12999","","null","","","null","19","","","","","","","","","","","","","","","NaN",""
"","S1","","html-keyboard-response","139","207092","0.0-1.0-182.0","0","0","12999","","null","","","null","20","","","","","","","","","","","","","","","",""
"","ISI","","html-keyboard-response","140","208093","0.0-1.0-183.0","0","0","12999","","null","","","null","20","NaN","","","","","","","","","","","","","","",""
"","S2","","html-keyboard-response","141","208345","0.0-1.0-184.0","0","0","12999","","null","","","null","20","","NaN","","","","","","","","","","","","","",""
"","response","","html-keyboard-response","142","208611","0.0-1.0-185.0-0.0","0","0","12999","","266","","","75","20","","","1","20","training","adjacent","BC","2","3","P.jpg","R.jpg","1","1","1","",""
"","feedback","","html-keyboard-response","143","209613","0.0-1.0-186.0-0.0","0","0","12999","","null","","","null","20","","","","","","","","","","","","","","","",""
"","ITI","","html-keyboard-response","144","210614","0.0-1.0-189.0","0","0","12999","","null","","","null","20","","","","","","","","","","","","","","","NaN",""
"","S1","","html-keyboard-response","145","210865","0.0-1.0-191.0","0","0","12999","","null","","","null","21","","","","","","","","","","","","","","","",""
"","ISI","","html-keyboard-response","146","211867","0.0-1.0-192.0","0","0","12999","","null","","","null","21","NaN","","","","","","","","","","","","","","",""
"","S2","","html-keyboard-response","147","212118","0.0-1.0-193.0","0","0","12999","","null","","","null","21","","NaN","","","","","","","","","","","","","",""
"","response","","html-keyboard-response","148","212619","0.0-1.0-194.0-0.0","0","0","12999","","501","","","68","21","","","1","21","training","adjacent","CB","3","2","R.jpg","P.jpg","0","0","1","",""
"","feedback","","html-keyboard-response","149","213621","0.0-1.0-195.0-0.0","0","0","12999","","null","","","null","21","","","","","","","","","","","","","","","",""
"","ITI","","html-keyboard-response","150","214622","0.0-1.0-198.0","0","0","12999","","null","","","null","21","","","","","","","","","","","","","","","NaN",""
"","S1","","html-keyboard-response","151","214873","0.0-1.0-200.0","0","0","12999","","null","","","null","22","","","","","","","","","","","","","","","",""
"","ISI","","html-keyboard-response","152","215875","0.0-1.0-201.0","0","0","12999","","null","","","null","22","NaN","","","","","","","","","","","","","","",""
"","S2","","html-keyboard-response","153","216126","0.0-1.0-202.0","0","0","12999","","null","","","null","22","","NaN","","","","","","","","","","","","","",""
"","response","","html-keyboard-response","154","216484","0.0-1.0-203.0-0.0","0","0","12999","","357","","","75","22","","","1","22","training","adjacent","BC","2","3","P.jpg","R.jpg","1","1","1","",""
"","feedback","","html-keyboard-response","155","217485","0.0-1.0-204.0-0.0","0","0","12999","","null","","","null","22","","","","","","","","","","","","","","","",""
"","ITI","","html-keyboard-response","156","218486","0.0-1.0-207.0","0","0","12999","","null","","","null","22","","","","","","","","","","","","","","","NaN",""
"","S1","","html-keyboard-response","157","218737","0.0-1.0-209.0","0","0","12999","","null","","","null","23","","","","","","","","","","","","","","","",""
"","ISI","","html-keyboard-response","158","219739","0.0-1.0-210.0","0","0","12999","","null","","","null","23","NaN","","","","","","","","","","","","","","",""
"","S2","","html-keyboard-response","159","219990","0.0-1.0-211.0","0","0","12999","","null","","","null","23","","NaN","","","","","","","","","","","","","",""
"","response","","html-keyboard-response","160","220549","0.0-1.0-212.0-0.0","0","0","12999","","558","","","75","23","","","1","23","training","adjacent","EF","5","6","L.jpg","N.jpg","1","1","1","",""
"","feedback","","html-keyboard-response","161","221550","0.0-1.0-213.0-0.0","0","0","12999","","null","","","null","23","","","","","","","","","","","","","","","",""
"","ITI","","html-keyboard-response","162","222551","0.0-1.0-216.0","0","0","12999","","null","","","null","23","","","","","","","","","","","","","","","NaN",""
"","S1","","html-keyboard-response","163","222802","0.0-1.0-218.0","0","0","12999","","null","","","null","24","","","","","","","","","","","","","","","",""
"","ISI","","html-keyboard-response","164","223804","0.0-1.0-219.0","0","0","12999","","null","","","null","24","NaN","","","","","","","","","","","","","","",""
"","S2","","html-keyboard-response","165","224055","0.0-1.0-220.0","0","0","12999","","null","","","null","24","","NaN","","","","","","","","","","","","","",""
"","response","","html-keyboard-response","166","224444","0.0-1.0-221.0-0.0","0","0","12999","","389","","","68","24","","","1","24","training","adjacent","GF","7","6","Q.jpg","N.jpg","0","0","1","",""
"","feedback","","html-keyboard-response","167","225446","0.0-1.0-222.0-0.0","0","0","12999","","null","","","null","24","","","","","","","","","","","","","","","",""
"","ITI","","html-keyboard-response","168","226448","0.0-1.0-225.0","0","0","12999","","null","","","null","24","","","","","","","","","","","","","","","NaN",""
"","S1","","html-keyboard-response","169","226709","0.0-1.0-227.0","0","0","12999","","null","","","null","25","","","","","","","","","","","","","","","",""
"","ISI","","html-keyboard-response","170","227710","0.0-1.0-228.0","0","0","12999","","null","","","null","25","NaN","","","","","","","","","","","","","","",""
"","S2","","html-keyboard-response","171","227961","0.0-1.0-229.0","0","0","12999","","null","","","null","25","","NaN","","","","","","","","","","","","","",""
"","response","","html-keyboard-response","172","228501","0.0-1.0-230.0-0.0","0","0","12999","","538","","","68","25","","","1","25","training","adjacent","CD","3","4","R.jpg","O.jpg","0","1","0","",""
"","feedback","","html-keyboard-response","173","229502","0.0-1.0-231.0-0.0","0","0","12999","","null","","","null","25","","","","","","","","","","","","","","","",""
"","time_out","","html-keyboard-response","174","231503","0.0-1.0-233.0-0.0","0","0","12999","","null","","","null","25","","","","","","","","","","","","","","","",""
"","ITI","","html-keyboard-response","175","232505","0.0-1.0-234.0","0","0","12999","","null","","","null","25","","","","","","","","","","","","","","","NaN",""
"","S1","","html-keyboard-response","176","232756","0.0-1.0-236.0","0","0","12999","","null","","","null","26","","","","","","","","","","","","","","","",""
"","ISI","","html-keyboard-response","177","233757","0.0-1.0-237.0","0","0","12999","","null","","","null","26","NaN","","","","","","","","","","","","","","",""
"","S2","","html-keyboard-response","178","234008","0.0-1.0-238.0","0","0","12999","","null","","","null","26","","NaN","","","","","","","","","","","","","",""
"","response","","html-keyboard-response","179","234253","0.0-1.0-239.0-0.0","0","0","12999","","243","","","75","26","","","1","26","training","adjacent","FE","6","5","N.jpg","L.jpg","1","0","0","",""
"","feedback","","html-keyboard-response","180","235254","0.0-1.0-240.0-0.0","0","0","12999","","null","","","null","26","","","","","","","","","","","","","","","",""
"","time_out","","html-keyboard-response","181","237270","0.0-1.0-242.0-0.0","0","0","12999","","null","","","null","26","","","","","","","","","","","","","","","",""
"","ITI","","html-keyboard-response","182","238271","0.0-1.0-243.0","0","0","12999","","null","","","null","26","","","","","","","","","","","","","","","NaN",""
"","S1","","html-keyboard-response","183","238523","0.0-1.0-245.0","0","0","12999","","null","","","null","27","","","","","","","","","","","","","","","",""
"","ISI","","html-keyboard-response","184","239524","0.0-1.0-246.0","0","0","12999","","null","","","null","27","NaN","","","","","","","","","","","","","","",""
"","S2","","html-keyboard-response","185","239775","0.0-1.0-247.0","0","0","12999","","null","","","null","27","","NaN","","","","","","","","","","","","","",""
"","response","","html-keyboard-response","186","240117","0.0-1.0-248.0-0.0","0","0","12999","","341","","","75","27","","","1","27","training","adjacent","DE","4","5","O.jpg","L.jpg","1","1","1","",""
"","feedback","","html-keyboard-response","187","241118","0.0-1.0-249.0-0.0","0","0","12999","","null","","","null","27","","","","","","","","","","","","","","","",""
"","ITI","","html-keyboard-response","188","242120","0.0-1.0-252.0","0","0","12999","","null","","","null","27","","","","","","","","","","","","","","","NaN",""
"","S1","","html-keyboard-response","189","242371","0.0-1.0-254.0","0","0","12999","","null","","","null","28","","","","","","","","","","","","","","","",""
"","ISI","","html-keyboard-response","190","243373","0.0-1.0-255.0","0","0","12999","","null","","","null","28","NaN","","","","","","","","","","","","","","",""
"","S2","","html-keyboard-response","191","243624","0.0-1.0-256.0","0","0","12999","","null","","","null","28","","NaN","","","","","","","","","","","","","",""
"","response","","html-keyboard-response","192","243892","0.0-1.0-257.0-0.0","0","0","12999","","268","","","75","28","","","1","28","training","adjacent","FE","6","5","N.jpg","L.jpg","1","0","0","",""
"","feedback","","html-keyboard-response","193","244894","0.0-1.0-258.0-0.0","0","0","12999","","null","","","null","28","","","","","","","","","","","","","","","",""
"","time_out","","html-keyboard-response","194","246895","0.0-1.0-260.0-0.0","0","0","12999","","null","","","null","28","","","","","","","","","","","","","","","",""
"","ITI","","html-keyboard-response","195","247897","0.0-1.0-261.0","0","0","12999","","null","","","null","28","","","","","","","","","","","","","","","NaN",""
"","S1","","html-keyboard-response","196","248148","0.0-1.0-263.0","0","0","12999","","null","","","null","29","","","","","","","","","","","","","","","",""
"","ISI","","html-keyboard-response","197","249149","0.0-1.0-264.0","0","0","12999","","null","","","null","29","NaN","","","","","","","","","","","","","","",""
"","S2","","html-keyboard-response","198","249400","0.0-1.0-265.0","0","0","12999","","null","","","null","29","","NaN","","","","","","","","","","","","","",""
"","response","","html-keyboard-response","199","249804","0.0-1.0-266.0-0.0","0","0","12999","","404","","","75","29","","","1","29","training","adjacent","DE","4","5","O.jpg","L.jpg","1","1","1","",""
"","feedback","","html-keyboard-response","200","250806","0.0-1.0-267.0-0.0","0","0","12999","","null","","","null","29","","","","","","","","","","","","","","","",""
"","ITI","","html-keyboard-response","201","251807","0.0-1.0-270.0","0","0","12999","","null","","","null","29","","","","","","","","","","","","","","","NaN",""
"","S1","","html-keyboard-response","202","252058","0.0-1.0-272.0","0","0","12999","","null","","","null","30","","","","","","","","","","","","","","","",""
"","ISI","","html-keyboard-response","203","253071","0.0-1.0-273.0","0","0","12999","","null","","","null","30","NaN","","","","","","","","","","","","","","",""
"","S2","","html-keyboard-response","204","253322","0.0-1.0-274.0","0","0","12999","","null","","","null","30","","NaN","","","","","","","","","","","","","",""
"","response","","html-keyboard-response","205","254533","0.0-1.0-275.0-0.0","0","0","12999","","1210","","","68","30","","","1","30","training","adjacent","AB","1","2","M.jpg","P.jpg","0","1","0","",""
"","feedback","","html-keyboard-response","206","255534","0.0-1.0-276.0-0.0","0","0","12999","","null","","","null","30","","","","","","","","","","","","","","","",""
"","time_out","","html-keyboard-response","207","257536","0.0-1.0-278.0-0.0","0","0","12999","","null","","","null","30","","","","","","","","","","","","","","","",""
"","ITI","","html-keyboard-response","208","258538","0.0-1.0-279.0","0","0","12999","","null","","","null","30","","","","","","","","","","","","","","","NaN",""
"","S1","","html-keyboard-response","209","258789","0.0-1.0-281.0","0","0","12999","","null","","","null","31","","","","","","","","","","","","","","","",""
"","ISI","","html-keyboard-response","210","259790","0.0-1.0-282.0","0","0","12999","","null","","","null","31","NaN","","","","","","","","","","","","","","",""
"","S2","","html-keyboard-response","211","260041","0.0-1.0-283.0","0","0","12999","","null","","","null","31","","NaN","","","","","","","","","","","","","",""
"","response","","html-keyboard-response","212","260276","0.0-1.0-284.0-0.0","0","0","12999","","234","","","75","31","","","1","31","training","adjacent","FG","6","7","N.jpg","Q.jpg","1","1","1","",""
"","feedback","","html-keyboard-response","213","261278","0.0-1.0-285.0-0.0","0","0","12999","","null","","","null","31","","","","","","","","","","","","","","","",""
"","ITI","","html-keyboard-response","214","262279","0.0-1.0-288.0","0","0","12999","","null","","","null","31","","","","","","","","","","","","","","","NaN",""
"","S1","","html-keyboard-response","215","262530","0.0-1.0-290.0","0","0","12999","","null","","","null","32","","","","","","","","","","","","","","","",""
"","ISI","","html-keyboard-response","216","263532","0.0-1.0-291.0","0","0","12999","","null","","","null","32","NaN","","","","","","","","","","","","","","",""
"","S2","","html-keyboard-response","217","263783","0.0-1.0-292.0","0","0","12999","","null","","","null","32","","NaN","","","","","","","","","","","","","",""
"","response","","html-keyboard-response","218","264516","0.0-1.0-293.0-0.0","0","0","12999","","733","","","68","32","","","1","32","training","adjacent","EF","5","6","L.jpg","N.jpg","0","1","0","",""
"","feedback","","html-keyboard-response","219","265518","0.0-1.0-294.0-0.0","0","0","12999","","null","","","null","32","","","","","","","","","","","","","","","",""
"","time_out","","html-keyboard-response","220","267520","0.0-1.0-296.0-0.0","0","0","12999","","null","","","null","32","","","","","","","","","","","","","","","",""
"","ITI","","html-keyboard-response","221","268521","0.0-1.0-297.0","0","0","12999","","null","","","null","32","","","","","","","","","","","","","","","NaN",""
"","S1","","html-keyboard-response","222","268772","0.0-1.0-299.0","0","0","12999","","null","","","null","33","","","","","","","","","","","","","","","",""
"","ISI","","html-keyboard-response","223","269774","0.0-1.0-300.0","0","0","12999","","null","","","null","33","NaN","","","","","","","","","","","","","","",""
"","S2","","html-keyboard-response","224","270026","0.0-1.0-301.0","0","0","12999","","null","","","null","33","","NaN","","","","","","","","","","","","","",""
"","response","","html-keyboard-response","225","270301","0.0-1.0-302.0-0.0","0","0","12999","","274","","","75","33","","","1","33","training","adjacent","FG","6","7","N.jpg","Q.jpg","1","1","1","",""
"","feedback","","html-keyboard-response","226","271302","0.0-1.0-303.0-0.0","0","0","12999","","null","","","null","33","","","","","","","","","","","","","","","",""
"","ITI","","html-keyboard-response","227","272304","0.0-1.0-306.0","0","0","12999","","null","","","null","33","","","","","","","","","","","","","","","NaN",""
"","S1","","html-keyboard-response","228","272555","0.0-1.0-308.0","0","0","12999","","null","","","null","34","","","","","","","","","","","","","","","",""
"","ISI","","html-keyboard-response","229","273556","0.0-1.0-309.0","0","0","12999","","null","","","null","34","NaN","","","","","","","","","","","","","","",""
"","S2","","html-keyboard-response","230","273807","0.0-1.0-310.0","0","0","12999","","null","","","null","34","","NaN","","","","","","","","","","","","","",""
"","response","","html-keyboard-response","231","274388","0.0-1.0-311.0-0.0","0","0","12999","","580","","","68","34","","","1","34","training","adjacent","EF","5","6","L.jpg","N.jpg","0","1","0","",""
"","feedback","","html-keyboard-response","232","275390","0.0-1.0-312.0-0.0","0","0","12999","","null","","","null","34","","","","","","","","","","","","","","","",""
"","time_out","","html-keyboard-response","233","277392","0.0-1.0-314.0-0.0","0","0","12999","","null","","","null","34","","","","","","","","","","","","","","","",""
"","ITI","","html-keyboard-response","234","278394","0.0-1.0-315.0","0","0","12999","","null","","","null","34","","","","","","","","","","","","","","","NaN",""
"","S1","","html-keyboard-response","235","278645","0.0-1.0-317.0","0","0","12999","","null","","","null","35","","","","","","","","","","","","","","","",""
"","ISI","","html-keyboard-response","236","279646","0.0-1.0-318.0","0","0","12999","","null","","","null","35","NaN","","","","","","","","","","","","","","",""
"","S2","","html-keyboard-response","237","279898","0.0-1.0-319.0","0","0","12999","","null","","","null","35","","NaN","","","","","","","","","","","","","",""
"","response","","html-keyboard-response","238","280300","0.0-1.0-320.0-0.0","0","0","12999","","402","","","75","35","","","1","35","training","adjacent","FE","6","5","N.jpg","L.jpg","1","0","0","",""
"","feedback","","html-keyboard-response","239","281311","0.0-1.0-321.0-0.0","0","0","12999","","null","","","null","35","","","","","","","","","","","","","","","",""
"","time_out","","html-keyboard-response","240","283314","0.0-1.0-323.0-0.0","0","0","12999","","null","","","null","35","","","","","","","","","","","","","","","",""
"","ITI","","html-keyboard-response","241","284316","0.0-1.0-324.0","0","0","12999","","null","","","null","35","","","","","","","","","","","","","","","NaN",""
"","S1","","html-keyboard-response","242","284567","0.0-1.0-326.0","0","0","12999","","null","","","null","36","","","","","","","","","","","","","","","",""
"","ISI","","html-keyboard-response","243","285568","0.0-1.0-327.0","0","0","12999","","null","","","null","36","NaN","","","","","","","","","","","","","","",""
"","S2","","html-keyboard-response","244","285819","0.0-1.0-328.0","0","0","12999","","null","","","null","36","","NaN","","","","","","","","","","","","","",""
"","response","","html-keyboard-response","245","286069","0.0-1.0-329.0-0.0","0","0","12999","","250","","","75","36","","","1","36","training","adjacent","DE","4","5","O.jpg","L.jpg","1","1","1","",""
"","feedback","","html-keyboard-response","246","287071","0.0-1.0-330.0-0.0","0","0","12999","","null","","","null","36","","","","","","","","","","","","","","","",""
"","ITI","","html-keyboard-response","247","288072","0.0-1.0-333.0","0","0","12999","","null","","","null","36","","","","","","","","","","","","","","","NaN",""
"","S1","","html-keyboard-response","248","288323","0.0-1.0-335.0","0","0","12999","","null","","","null","37","","","","","","","","","","","","","","","",""
"","ISI","","html-keyboard-response","249","289325","0.0-1.0-336.0","0","0","12999","","null","","","null","37","NaN","","","","","","","","","","","","","","",""
"","S2","","html-keyboard-response","250","289576","0.0-1.0-337.0","0","0","12999","","null","","","null","37","","NaN","","","","","","","","","","","","","",""
"","response","","html-keyboard-response","251","290077","0.0-1.0-338.0-0.0","0","0","12999","","501","","","75","37","","","1","37","training","adjacent","DC","4","3","O.jpg","R.jpg","1","0","0","",""
"","feedback","","html-keyboard-response","252","291079","0.0-1.0-339.0-0.0","0","0","12999","","null","","","null","37","","","","","","","","","","","","","","","",""
"","time_out","","html-keyboard-response","253","293080","0.0-1.0-341.0-0.0","0","0","12999","","null","","","null","37","","","","","","","","","","","","","","","",""
"","ITI","","html-keyboard-response","254","294082","0.0-1.0-342.0","0","0","12999","","null","","","null","37","","","","","","","","","","","","","","","NaN",""
"","S1","","html-keyboard-response","255","294333","0.0-1.0-344.0","0","0","12999","","null","","","null","38","","","","","","","","","","","","","","","",""
"","ISI","","html-keyboard-response","256","295334","0.0-1.0-345.0","0","0","12999","","null","","","null","38","NaN","","","","","","","","","","","","","","",""
"","S2","","html-keyboard-response","257","295585","0.0-1.0-346.0","0","0","12999","","null","","","null","38","","NaN","","","","","","","","","","","","","",""
"","response","","html-keyboard-response","258","296069","0.0-1.0-347.0-0.0","0","0","12999","","483","","","68","38","","","1","38","training","adjacent","AB","1","2","M.jpg","P.jpg","0","1","0","",""
"","feedback","","html-keyboard-response","259","297080","0.0-1.0-348.0-0.0","0","0","12999","","null","","","null","38","","","","","","","","","","","","","","","",""
"","time_out","","html-keyboard-response","260","299081","0.0-1.0-350.0-0.0","0","0","12999","","null","","","null","38","","","","","","","","","","","","","","","",""
"","ITI","","html-keyboard-response","261","300082","0.0-1.0-351.0","0","0","12999","","null","","","null","38","","","","","","","","","","","","","","","NaN",""
"","S1","","html-keyboard-response","262","300334","0.0-1.0-353.0","0","0","12999","","null","","","null","39","","","","","","","","","","","","","","","",""
"","ISI","","html-keyboard-response","263","301335","0.0-1.0-354.0","0","0","12999","","null","","","null","39","NaN","","","","","","","","","","","","","","",""
"","S2","","html-keyboard-response","264","301586","0.0-1.0-355.0","0","0","12999","","null","","","null","39","","NaN","","","","","","","","","","","","","",""
"","response","","html-keyboard-response","265","302461","0.0-1.0-356.0-0.0","0","0","12999","","874","","","68","39","","","1","39","training","adjacent","ED","5","4","L.jpg","O.jpg","0","0","1","",""
"","feedback","","html-keyboard-response","266","303463","0.0-1.0-357.0-0.0","0","0","12999","","null","","","null","39","","","","","","","","","","","","","","","",""
"","ITI","","html-keyboard-response","267","304465","0.0-1.0-360.0","0","0","12999","","null","","","null","39","","","","","","","","","","","","","","","NaN",""
"","S1","","html-keyboard-response","268","304716","0.0-1.0-362.0","0","0","12999","","null","","","null","40","","","","","","","","","","","","","","","",""
"","ISI","","html-keyboard-response","269","305717","0.0-1.0-363.0","0","0","12999","","null","","","null","40","NaN","","","","","","","","","","","","","","",""
"","S2","","html-keyboard-response","270","305968","0.0-1.0-364.0","0","0","12999","","null","","","null","40","","NaN","","","","","","","","","","","","","",""
"","response","","html-keyboard-response","271","306725","0.0-1.0-365.0-0.0","0","0","12999","","756","","","75","40","","","1","40","training","adjacent","CD","3","4","R.jpg","O.jpg","1","1","1","",""
"","feedback","","html-keyboard-response","272","307727","0.0-1.0-366.0-0.0","0","0","12999","","null","","","null","40","","","","","","","","","","","","","","","",""
"","ITI","","html-keyboard-response","273","308729","0.0-1.0-369.0","0","0","12999","","null","","","null","40","","","","","","","","","","","","","","","NaN",""
"","S1","","html-keyboard-response","274","308980","0.0-1.0-371.0","0","0","12999","","null","","","null","41","","","","","","","","","","","","","","","",""
"","ISI","","html-keyboard-response","275","309981","0.0-1.0-372.0","0","0","12999","","null","","","null","41","NaN","","","","","","","","","","","","","","",""
"","S2","","html-keyboard-response","276","310232","0.0-1.0-373.0","0","0","12999","","null","","","null","41","","NaN","","","","","","","","","","","","","",""
"","response","","html-keyboard-response","277","310877","0.0-1.0-374.0-0.0","0","0","12999","","645","","","68","41","","","1","41","training","adjacent","ED","5","4","L.jpg","O.jpg","0","0","1","",""
"","feedback","","html-keyboard-response","278","311879","0.0-1.0-375.0-0.0","0","0","12999","","null","","","null","41","","","","","","","","","","","","","","","",""
"","ITI","","html-keyboard-response","279","312880","0.0-1.0-378.0","0","0","12999","","null","","","null","41","","","","","","","","","","","","","","","NaN",""
"","S1","","html-keyboard-response","280","313131","0.0-1.0-380.0","0","0","12999","","null","","","null","42","","","","","","","","","","","","","","","",""
"","ISI","","html-keyboard-response","281","314133","0.0-1.0-381.0","0","0","12999","","null","","","null","42","NaN","","","","","","","","","","","","","","",""
"","S2","","html-keyboard-response","282","314384","0.0-1.0-382.0","0","0","12999","","null","","","null","42","","NaN","","","","","","","","","","","","","",""
"","response","","html-keyboard-response","283","314829","0.0-1.0-383.0-0.0","0","0","12999","","444","","","75","42","","","1","42","training","adjacent","CD","3","4","R.jpg","O.jpg","1","1","1","",""
"","feedback","","html-keyboard-response","284","315831","0.0-1.0-384.0-0.0","0","0","12999","","null","","","null","42","","","","","","","","","","","","","","","",""
"","ITI","","html-keyboard-response","285","316833","0.0-1.0-387.0","0","0","12999","","null","","","null","42","","","","","","","","","","","","","","","NaN",""
"","S1","","html-keyboard-response","286","317084","0.0-1.0-389.0","0","0","12999","","null","","","null","43","","","","","","","","","","","","","","","",""
"","ISI","","html-keyboard-response","287","318085","0.0-1.0-390.0","0","0","12999","","null","","","null","43","NaN","","","","","","","","","","","","","","",""
"","S2","","html-keyboard-response","288","318336","0.0-1.0-391.0","0","0","12999","","null","","","null","43","","NaN","","","","","","","","","","","","","",""
"","response","","html-keyboard-response","289","318933","0.0-1.0-392.0-0.0","0","0","12999","","596","","","68","43","","","1","43","training","adjacent","BC","2","3","P.jpg","R.jpg","0","1","0","",""
"","feedback","","html-keyboard-response","290","319935","0.0-1.0-393.0-0.0","0","0","12999","","null","","","null","43","","","","","","","","","","","","","","","",""
"","time_out","","html-keyboard-response","291","321937","0.0-1.0-395.0-0.0","0","0","12999","","null","","","null","43","","","","","","","","","","","","","","","",""
"","ITI","","html-keyboard-response","292","322938","0.0-1.0-396.0","0","0","12999","","null","","","null","43","","","","","","","","","","","","","","","NaN",""
"","S1","","html-keyboard-response","293","323189","0.0-1.0-398.0","0","0","12999","","null","","","null","44","","","","","","","","","","","","","","","",""
"","ISI","","html-keyboard-response","294","324191","0.0-1.0-399.0","0","0","12999","","null","","","null","44","NaN","","","","","","","","","","","","","","",""
"","S2","","html-keyboard-response","295","324442","0.0-1.0-400.0","0","0","12999","","null","","","null","44","","NaN","","","","","","","","","","","","","",""
"","response","","html-keyboard-response","296","325221","0.0-1.0-401.0-0.0","0","0","12999","","779","","","68","44","","","1","44","training","adjacent","DE","4","5","O.jpg","L.jpg","0","1","0","",""
"","feedback","","html-keyboard-response","297","326228","0.0-1.0-402.0-0.0","0","0","12999","","null","","","null","44","","","","","","","","","","","","","","","",""
"","time_out","","html-keyboard-response","298","328229","0.0-1.0-404.0-0.0","0","0","12999","","null","","","null","44","","","","","","","","","","","","","","","",""
"","ITI","","html-keyboard-response","299","329230","0.0-1.0-405.0","0","0","12999","","null","","","null","44","","","","","","","","","","","","","","","NaN",""
"","S1","","html-keyboard-response","300","329481","0.0-1.0-407.0","0","0","12999","","null","","","null","45","","","","","","","","","","","","","","","",""
"","ISI","","html-keyboard-response","301","330483","0.0-1.0-408.0","0","0","12999","","null","","","null","45","NaN","","","","","","","","","","","","","","",""
"","S2","","html-keyboard-response","302","330734","0.0-1.0-409.0","0","0","12999","","null","","","null","45","","NaN","","","","","","","","","","","","","",""
"","response","","html-keyboard-response","303","331573","0.0-1.0-410.0-0.0","0","0","12999","","839","","","68","45","","","1","45","training","adjacent","EF","5","6","L.jpg","N.jpg","0","1","0","",""
"","feedback","","html-keyboard-response","304","332575","0.0-1.0-411.0-0.0","0","0","12999","","null","","","null","45","","","","","","","","","","","","","","","",""
"","time_out","","html-keyboard-response","305","334576","0.0-1.0-413.0-0.0","0","0","12999","","null","","","null","45","","","","","","","","","","","","","","","",""
"","ITI","","html-keyboard-response","306","335577","0.0-1.0-414.0","0","0","12999","","null","","","null","45","","","","","","","","","","","","","","","NaN",""
"","S1","","html-keyboard-response","307","335828","0.0-1.0-416.0","0","0","12999","","null","","","null","46","","","","","","","","","","","","","","","",""
"","ISI","","html-keyboard-response","308","336830","0.0-1.0-417.0","0","0","12999","","null","","","null","46","NaN","","","","","","","","","","","","","","",""
"","S2","","html-keyboard-response","309","337081","0.0-1.0-418.0","0","0","12999","","null","","","null","46","","NaN","","","","","","","","","","","","","",""
"","response","","html-keyboard-response","310","337781","0.0-1.0-419.0-0.0","0","0","12999","","700","","","75","46","","","1","46","training","adjacent","FG","6","7","N.jpg","Q.jpg","1","1","1","",""
"","feedback","","html-keyboard-response","311","338783","0.0-1.0-420.0-0.0","0","0","12999","","null","","","null","46","","","","","","","","","","","","","","","",""
"","ITI","","html-keyboard-response","312","339784","0.0-1.0-423.0","0","0","12999","","null","","","null","46","","","","","","","","","","","","","","","NaN",""
"","S1","","html-keyboard-response","313","340035","0.0-1.0-425.0","0","0","12999","","null","","","null","47","","","","","","","","","","","","","","","",""
"","ISI","","html-keyboard-response","314","341037","0.0-1.0-426.0","0","0","12999","","null","","","null","47","NaN","","","","","","","","","","","","","","",""
"","S2","","html-keyboard-response","315","341293","0.0-1.0-427.0","0","0","12999","","null","","","null","47","","NaN","","","","","","","","","","","","","",""
"","response","","html-keyboard-response","316","342118","0.0-1.0-428.0-0.0","0","0","12999","","825","","","75","47","","","1","47","training","adjacent","CB","3","2","R.jpg","P.jpg","1","0","0","",""
"","feedback","","html-keyboard-response","317","343120","0.0-1.0-429.0-0.0","0","0","12999","","null","","","null","47","","","","","","","","","","","","","","","",""
"","time_out","","html-keyboard-response","318","345121","0.0-1.0-431.0-0.0","0","0","12999","","null","","","null","47","","","","","","","","","","","","","","","",""
"","ITI","","html-keyboard-response","319","346123","0.0-1.0-432.0","0","0","12999","","null","","","null","47","","","","","","","","","","","","","","","NaN",""
"","block_over","","html-keyboard-response","320","349534","0.0-1.0-433.0-0.0","0","0","12999","","3411","","","32","47","","","","","","","","","","","","","","","",""
"","S1","","html-keyboard-response","321","349785","0.0-1.0-434.0","0","0","12999","","null","","","null","48","","","","","","","","","","","","","","","",""
"","ISI","","html-keyboard-response","322","350787","0.0-1.0-435.0","0","0","12999","","null","","","null","48","NaN","","","","","","","","","","","","","","",""
"","S2","","html-keyboard-response","323","351038","0.0-1.0-436.0","0","0","12999","","null","","","null","48","","NaN","","","","","","","","","","","","","",""
"","response","","html-keyboard-response","324","351598","0.0-1.0-437.0-0.0","0","0","12999","","559","","","68","48","","","2","48","training","adjacent","DC","4","3","O.jpg","R.jpg","0","0","1","",""
"","feedback","","html-keyboard-response","325","352600","0.0-1.0-438.0-0.0","0","0","12999","","null","","","null","48","","","","","","","","","","","","","","","",""
"","ITI","","html-keyboard-response","326","353601","0.0-1.0-441.0","0","0","12999","","null","","","null","48","","","","","","","","","","","","","","","NaN",""
"","S1","","html-keyboard-response","327","353852","0.0-1.0-443.0","0","0","12999","","null","","","null","49","","","","","","","","","","","","","","","",""
"","ISI","","html-keyboard-response","328","354854","0.0-1.0-444.0","0","0","12999","","null","","","null","49","NaN","","","","","","","","","","","","","","",""
"","S2","","html-keyboard-response","329","355105","0.0-1.0-445.0","0","0","12999","","null","","","null","49","","NaN","","","","","","","","","","","","","",""
"","response","","html-keyboard-response","330","355110","0.0-1.0-446.0-0.0","0","0","12999","","5","","","75","49","","","2","49","training","adjacent","FE","6","5","N.jpg","L.jpg","1","0","0","",""
"","feedback","","html-keyboard-response","331","356111","0.0-1.0-447.0-0.0","0","0","12999","","null","","","null","49","","","","","","","","","","","","","","","",""
"","time_out","","html-keyboard-response","332","358113","0.0-1.0-449.0-0.0","0","0","12999","","null","","","null","49","","","","","","","","","","","","","","","",""
"","ITI","","html-keyboard-response","333","359115","0.0-1.0-450.0","0","0","12999","","null","","","null","49","","","","","","","","","","","","","","","NaN",""
"","S1","","html-keyboard-response","334","359366","0.0-1.0-452.0","0","0","12999","","null","","","null","50","","","","","","","","","","","","","","","",""
"","ISI","","html-keyboard-response","335","360367","0.0-1.0-453.0","0","0","12999","","null","","","null","50","NaN","","","","","","","","","","","","","","",""
"","S2","","html-keyboard-response","336","360618","0.0-1.0-454.0","0","0","12999","","null","","","null","50","","NaN","","","","","","","","","","","","","",""
"","response","","html-keyboard-response","337","360654","0.0-1.0-455.0-0.0","0","0","12999","","36","","","75","50","","","2","50","training","adjacent","FE","6","5","N.jpg","L.jpg","1","0","0","",""
"","feedback","","html-keyboard-response","338","361656","0.0-1.0-456.0-0.0","0","0","12999","","null","","","null","50","","","","","","","","","","","","","","","",""
"","time_out","","html-keyboard-response","339","363658","0.0-1.0-458.0-0.0","0","0","12999","","null","","","null","50","","","","","","","","","","","","","","","",""
"","ITI","","html-keyboard-response","340","364659","0.0-1.0-459.0","0","0","12999","","null","","","null","50","","","","","","","","","","","","","","","NaN",""
"","S1","","html-keyboard-response","341","364910","0.0-1.0-461.0","0","0","12999","","null","","","null","51","","","","","","","","","","","","","","","",""
"","ISI","","html-keyboard-response","342","365912","0.0-1.0-462.0","0","0","12999","","null","","","null","51","NaN","","","","","","","","","","","","","","",""
"","S2","","html-keyboard-response","343","366163","0.0-1.0-463.0","0","0","12999","","null","","","null","51","","NaN","","","","","","","","","","","","","",""
"","response","","html-keyboard-response","344","366566","0.0-1.0-464.0-0.0","0","0","12999","","403","","","68","51","","","2","51","training","adjacent","EF","5","6","L.jpg","N.jpg","0","1","0","",""
"","feedback","","html-keyboard-response","345","367567","0.0-1.0-465.0-0.0","0","0","12999","","null","","","null","51","","","","","","","","","","","","","","","",""
"","time_out","","html-keyboard-response","346","369569","0.0-1.0-467.0-0.0","0","0","12999","","null","","","null","51","","","","","","","","","","","","","","","",""
"","ITI","","html-keyboard-response","347","370571","0.0-1.0-468.0","0","0","12999","","null","","","null","51","","","","","","","","","","","","","","","NaN",""
"","S1","","html-keyboard-response","348","370822","0.0-1.0-470.0","0","0","12999","","null","","","null","52","","","","","","","","","","","","","","","",""
"","ISI","","html-keyboard-response","349","371823","0.0-1.0-471.0","0","0","12999","","null","","","null","52","NaN","","","","","","","","","","","","","","",""
"","S2","","html-keyboard-response","350","372074","0.0-1.0-472.0","0","0","12999","","null","","","null","52","","NaN","","","","","","","","","","","","","",""
"","response","","html-keyboard-response","351","372574","0.0-1.0-473.0-0.0","0","0","12999","","499","","","68","52","","","2","52","training","adjacent","CD","3","4","R.jpg","O.jpg","0","1","0","",""
"","feedback","","html-keyboard-response","352","373576","0.0-1.0-474.0-0.0","0","0","12999","","null","","","null","52","","","","","","","","","","","","","","","",""
"","time_out","","html-keyboard-response","353","375577","0.0-1.0-476.0-0.0","0","0","12999","","null","","","null","52","","","","","","","","","","","","","","","",""
"","ITI","","html-keyboard-response","354","376578","0.0-1.0-477.0","0","0","12999","","null","","","null","52","","","","","","","","","","","","","","","NaN",""
"","S1","","html-keyboard-response","355","376829","0.0-1.0-479.0","0","0","12999","","null","","","null","53","","","","","","","","","","","","","","","",""
"","ISI","","html-keyboard-response","356","377831","0.0-1.0-480.0","0","0","12999","","null","","","null","53","NaN","","","","","","","","","","","","","","",""
"","S2","","html-keyboard-response","357","378082","0.0-1.0-481.0","0","0","12999","","null","","","null","53","","NaN","","","","","","","","","","","","","",""
"","response","","html-keyboard-response","358","378502","0.0-1.0-482.0-0.0","0","0","12999","","420","","","75","53","","","2","53","training","adjacent","GF","7","6","Q.jpg","N.jpg","1","0","0","",""
"","feedback","","html-keyboard-response","359","379503","0.0-1.0-483.0-0.0","0","0","12999","","null","","","null","53","","","","","","","","","","","","","","","",""
"","time_out","","html-keyboard-response","360","381505","0.0-1.0-485.0-0.0","0","0","12999","","null","","","null","53","","","","","","","","","","","","","","","",""
"","ITI","","html-keyboard-response","361","382507","0.0-1.0-486.0","0","0","12999","","null","","","null","53","","","","","","","","","","","","","","","NaN",""
"","S1","","html-keyboard-response","362","382758","0.0-1.0-488.0","0","0","12999","","null","","","null","54","","","","","","","","","","","","","","","",""
"","ISI","","html-keyboard-response","363","383759","0.0-1.0-489.0","0","0","12999","","null","","","null","54","NaN","","","","","","","","","","","","","","",""
"","S2","","html-keyboard-response","364","384010","0.0-1.0-490.0","0","0","12999","","null","","","null","54","","NaN","","","","","","","","","","","","","",""
"","response","","html-keyboard-response","365","384446","0.0-1.0-491.0-0.0","0","0","12999","","435","","","68","54","","","2","54","training","adjacent","CB","3","2","R.jpg","P.jpg","0","0","1","",""
"","feedback","","html-keyboard-response","366","385450","0.0-1.0-492.0-0.0","0","0","12999","","null","","","null","54","","","","","","","","","","","","","","","",""
"","ITI","","html-keyboard-response","367","386451","0.0-1.0-495.0","0","0","12999","","null","","","null","54","","","","","","","","","","","","","","","NaN",""
"","S1","","html-keyboard-response","368","386702","0.0-1.0-497.0","0","0","12999","","null","","","null","55","","","","","","","","","","","","","","","",""
"","ISI","","html-keyboard-response","369","387704","0.0-1.0-498.0","0","0","12999","","null","","","null","55","NaN","","","","","","","","","","","","","","",""
"","S2","","html-keyboard-response","370","387955","0.0-1.0-499.0","0","0","12999","","null","","","null","55","","NaN","","","","","","","","","","","","","",""
"","response","","html-keyboard-response","371","388454","0.0-1.0-500.0-0.0","0","0","12999","","499","","","68","55","","","2","55","training","adjacent","AB","1","2","M.jpg","P.jpg","0","1","0","",""
"","feedback","","html-keyboard-response","372","389456","0.0-1.0-501.0-0.0","0","0","12999","","null","","","null","55","","","","","","","","","","","","","","","",""
"","time_out","","html-keyboard-response","373","391458","0.0-1.0-503.0-0.0","0","0","12999","","null","","","null","55","","","","","","","","","","","","","","","",""
"","ITI","","html-keyboard-response","374","392459","0.0-1.0-504.0","0","0","12999","","null","","","null","55","","","","","","","","","","","","","","","NaN",""
"","S1","","html-keyboard-response","375","392710","0.0-1.0-506.0","0","0","12999","","null","","","null","56","","","","","","","","","","","","","","","",""
"","ISI","","html-keyboard-response","376","393712","0.0-1.0-507.0","0","0","12999","","null","","","null","56","NaN","","","","","","","","","","","","","","",""
"","S2","","html-keyboard-response","377","393963","0.0-1.0-508.0","0","0","12999","","null","","","null","56","","NaN","","","","","","","","","","","","","",""
"","response","","html-keyboard-response","378","394318","0.0-1.0-509.0-0.0","0","0","12999","","355","","","68","56","","","2","56","training","adjacent","EF","5","6","L.jpg","N.jpg","0","1","0","",""
"","feedback","","html-keyboard-response","379","395319","0.0-1.0-510.0-0.0","0","0","12999","","null","","","null","56","","","","","","","","","","","","","","","",""
"","time_out","","html-keyboard-response","380","397320","0.0-1.0-512.0-0.0","0","0","12999","","null","","","null","56","","","","","","","","","","","","","","","",""
"","ITI","","html-keyboard-response","381","398322","0.0-1.0-513.0","0","0","12999","","null","","","null","56","","","","","","","","","","","","","","","NaN",""
"","S1","","html-keyboard-response","382","398573","0.0-1.0-515.0","0","0","12999","","null","","","null","57","","","","","","","","","","","","","","","",""
"","ISI","","html-keyboard-response","383","399574","0.0-1.0-516.0","0","0","12999","","null","","","null","57","NaN","","","","","","","","","","","","","","",""
"","S2","","html-keyboard-response","384","399825","0.0-1.0-517.0","0","0","12999","","null","","","null","57","","NaN","","","","","","","","","","","","","",""
"","response","","html-keyboard-response","385","400094","0.0-1.0-518.0-0.0","0","0","12999","","268","","","75","57","","","2","57","training","adjacent","FE","6","5","N.jpg","L.jpg","1","0","0","",""
"","feedback","","html-keyboard-response","386","401095","0.0-1.0-519.0-0.0","0","0","12999","","null","","","null","57","","","","","","","","","","","","","","","",""
"","time_out","","html-keyboard-response","387","403106","0.0-1.0-521.0-0.0","0","0","12999","","null","","","null","57","","","","","","","","","","","","","","","",""
"","ITI","","html-keyboard-response","388","404107","0.0-1.0-522.0","0","0","12999","","null","","","null","57","","","","","","","","","","","","","","","NaN",""
"","S1","","html-keyboard-response","389","404359","0.0-1.0-524.0","0","0","12999","","null","","","null","58","","","","","","","","","","","","","","","",""
"","ISI","","html-keyboard-response","390","405360","0.0-1.0-525.0","0","0","12999","","null","","","null","58","NaN","","","","","","","","","","","","","","",""
"","S2","","html-keyboard-response","391","405611","0.0-1.0-526.0","0","0","12999","","null","","","null","58","","NaN","","","","","","","","","","","","","",""
"","response","","html-keyboard-response","392","405999","0.0-1.0-527.0-0.0","0","0","12999","","388","","","68","58","","","2","58","training","adjacent","BC","2","3","P.jpg","R.jpg","0","1","0","",""
"","feedback","","html-keyboard-response","393","407001","0.0-1.0-528.0-0.0","0","0","12999","","null","","","null","58","","","","","","","","","","","","","","","",""
"","time_out","","html-keyboard-response","394","409001","0.0-1.0-530.0-0.0","0","0","12999","","null","","","null","58","","","","","","","","","","","","","","","",""
"","ITI","","html-keyboard-response","395","410003","0.0-1.0-531.0","0","0","12999","","null","","","null","58","","","","","","","","","","","","","","","NaN",""
"","S1","","html-keyboard-response","396","410254","0.0-1.0-533.0","0","0","12999","","null","","","null","59","","","","","","","","","","","","","","","",""
"","ISI","","html-keyboard-response","397","411255","0.0-1.0-534.0","0","0","12999","","null","","","null","59","NaN","","","","","","","","","","","","","","",""
"","S2","","html-keyboard-response","398","411506","0.0-1.0-535.0","0","0","12999","","null","","","null","59","","NaN","","","","","","","","","","","","","",""
"","response","","html-keyboard-response","399","412351","0.0-1.0-536.0-0.0","0","0","12999","","844","","","75","59","","","2","59","training","adjacent","ED","5","4","L.jpg","O.jpg","1","0","0","",""
"","feedback","","html-keyboard-response","400","413353","0.0-1.0-537.0-0.0","0","0","12999","","null","","","null","59","","","","","","","","","","","","","","","",""
"","time_out","","html-keyboard-response","401","415355","0.0-1.0-539.0-0.0","0","0","12999","","null","","","null","59","","","","","","","","","","","","","","","",""
"","ITI","","html-keyboard-response","402","416356","0.0-1.0-540.0","0","0","12999","","null","","","null","59","","","","","","","","","","","","","","","NaN",""
"","S1","","html-keyboard-response","403","416607","0.0-1.0-542.0","0","0","12999","","null","","","null","60","","","","","","","","","","","","","","","",""
"","ISI","","html-keyboard-response","404","417609","0.0-1.0-543.0","0","0","12999","","null","","","null","60","NaN","","","","","","","","","","","","","","",""
"","S2","","html-keyboard-response","405","417860","0.0-1.0-544.0","0","0","12999","","null","","","null","60","","NaN","","","","","","","","","","","","","",""
"","response","","html-keyboard-response","406","418351","0.0-1.0-545.0-0.0","0","0","12999","","491","","","68","60","","","2","60","training","adjacent","AB","1","2","M.jpg","P.jpg","0","1","0","",""
"","feedback","","html-keyboard-response","407","419352","0.0-1.0-546.0-0.0","0","0","12999","","null","","","null","60","","","","","","","","","","","","","","","",""
"","time_out","","html-keyboard-response","408","421354","0.0-1.0-548.0-0.0","0","0","12999","","null","","","null","60","","","","","","","","","","","","","","","",""
"","ITI","","html-keyboard-response","409","422356","0.0-1.0-549.0","0","0","12999","","null","","","null","60","","","","","","","","","","","","","","","NaN",""
"","S1","","html-keyboard-response","410","422607","0.0-1.0-551.0","0","0","12999","","null","","","null","61","","","","","","","","","","","","","","","",""
"","ISI","","html-keyboard-response","411","423608","0.0-1.0-552.0","0","0","12999","","null","","","null","61","NaN","","","","","","","","","","","","","","",""
"","S2","","html-keyboard-response","412","423860","0.0-1.0-553.0","0","0","12999","","null","","","null","61","","NaN","","","","","","","","","","","","","",""
"","response","","html-keyboard-response","413","424351","0.0-1.0-554.0-0.0","0","0","12999","","491","","","68","61","","","2","61","training","adjacent","CB","3","2","R.jpg","P.jpg","0","0","1","",""
"","feedback","","html-keyboard-response","414","425353","0.0-1.0-555.0-0.0","0","0","12999","","null","","","null","61","","","","","","","","","","","","","","","",""
"","ITI","","html-keyboard-response","415","426355","0.0-1.0-558.0","0","0","12999","","null","","","null","61","","","","","","","","","","","","","","","NaN",""
"","S1","","html-keyboard-response","416","426606","0.0-1.0-560.0","0","0","12999","","null","","","null","62","","","","","","","","","","","","","","","",""
"","ISI","","html-keyboard-response","417","427607","0.0-1.0-561.0","0","0","12999","","null","","","null","62","NaN","","","","","","","","","","","","","","",""
"","S2","","html-keyboard-response","418","427858","0.0-1.0-562.0","0","0","12999","","null","","","null","62","","NaN","","","","","","","","","","","","","",""
"","response","","html-keyboard-response","419","428383","0.0-1.0-563.0-0.0","0","0","12999","","524","","","75","62","","","2","62","training","adjacent","CD","3","4","R.jpg","O.jpg","1","1","1","",""
"","feedback","","html-keyboard-response","420","429384","0.0-1.0-564.0-0.0","0","0","12999","","null","","","null","62","","","","","","","","","","","","","","","",""
"","ITI","","html-keyboard-response","421","430386","0.0-1.0-567.0","0","0","12999","","null","","","null","62","","","","","","","","","","","","","","","NaN",""
"","S1","","html-keyboard-response","422","430637","0.0-1.0-569.0","0","0","12999","","null","","","null","63","","","","","","","","","","","","","","","",""
"","ISI","","html-keyboard-response","423","431638","0.0-1.0-570.0","0","0","12999","","null","","","null","63","NaN","","","","","","","","","","","","","","",""
"","S2","","html-keyboard-response","424","431889","0.0-1.0-571.0","0","0","12999","","null","","","null","63","","NaN","","","","","","","","","","","","","",""
"","response","","html-keyboard-response","425","432271","0.0-1.0-572.0-0.0","0","0","12999","","381","","","75","63","","","2","63","training","adjacent","BC","2","3","P.jpg","R.jpg","1","1","1","",""
"","feedback","","html-keyboard-response","426","433273","0.0-1.0-573.0-0.0","0","0","12999","","null","","","null","63","","","","","","","","","","","","","","","",""
"","ITI","","html-keyboard-response","427","434275","0.0-1.0-576.0","0","0","12999","","null","","","null","63","","","","","","","","","","","","","","","NaN",""
"","S1","","html-keyboard-response","428","434526","0.0-1.0-578.0","0","0","12999","","null","","","null","64","","","","","","","","","","","","","","","",""
"","ISI","","html-keyboard-response","429","435527","0.0-1.0-579.0","0","0","12999","","null","","","null","64","NaN","","","","","","","","","","","","","","",""
"","S2","","html-keyboard-response","430","435778","0.0-1.0-580.0","0","0","12999","","null","","","null","64","","NaN","","","","","","","","","","","","","",""
"","response","","html-keyboard-response","431","435791","0.0-1.0-581.0-0.0","0","0","12999","","12","","","75","64","","","2","64","training","adjacent","BA","2","1","P.jpg","M.jpg","1","0","0","",""
"","feedback","","html-keyboard-response","432","436793","0.0-1.0-582.0-0.0","0","0","12999","","null","","","null","64","","","","","","","","","","","","","","","",""
"","time_out","","html-keyboard-response","433","438795","0.0-1.0-584.0-0.0","0","0","12999","","null","","","null","64","","","","","","","","","","","","","","","",""
"","ITI","","html-keyboard-response","434","439796","0.0-1.0-585.0","0","0","12999","","null","","","null","64","","","","","","","","","","","","","","","NaN",""
"","S1","","html-keyboard-response","435","440047","0.0-1.0-587.0","0","0","12999","","null","","","null","65","","","","","","","","","","","","","","","",""
"","ISI","","html-keyboard-response","436","441049","0.0-1.0-588.0","0","0","12999","","null","","","null","65","NaN","","","","","","","","","","","","","","",""
"","S2","","html-keyboard-response","437","441300","0.0-1.0-589.0","0","0","12999","","null","","","null","65","","NaN","","","","","","","","","","","","","",""
"","response","","html-keyboard-response","438","441663","0.0-1.0-590.0-0.0","0","0","12999","","363","","","75","65","","","2","65","training","adjacent","ED","5","4","L.jpg","O.jpg","1","0","0","",""
"","feedback","","html-keyboard-response","439","442665","0.0-1.0-591.0-0.0","0","0","12999","","null","","","null","65","","","","","","","","","","","","","","","",""
"","time_out","","html-keyboard-response","440","444667","0.0-1.0-593.0-0.0","0","0","12999","","null","","","null","65","","","","","","","","","","","","","","","",""
"","ITI","","html-keyboard-response","441","445668","0.0-1.0-594.0","0","0","12999","","null","","","null","65","","","","","","","","","","","","","","","NaN",""
"","S1","","html-keyboard-response","442","445919","0.0-1.0-596.0","0","0","12999","","null","","","null","66","","","","","","","","","","","","","","","",""
"","ISI","","html-keyboard-response","443","446921","0.0-1.0-597.0","0","0","12999","","null","","","null","66","NaN","","","","","","","","","","","","","","",""
"","S2","","html-keyboard-response","444","447047","0.0-1.0-598.0","0","0","12999","","126","","","75","66","","k","2","66","training","adjacent","DE","4","5","O.jpg","L.jpg","1","1","1","",""
"","feedback","","html-keyboard-response","445","448049","0.0-1.0-600.0-0.0","0","0","12999","","null","","","null","66","","","","","","","","","","","","","","","",""
"","ITI","","html-keyboard-response","446","449051","0.0-1.0-603.0","0","0","12999","","null","","","null","66","","","","","","","","","","","","","","","NaN",""
"","S1","","html-keyboard-response","447","449302","0.0-1.0-605.0","0","0","12999","","null","","","null","67","","","","","","","","","","","","","","","",""
"","ISI","","html-keyboard-response","448","450303","0.0-1.0-606.0","0","0","12999","","null","","","null","67","NaN","","","","","","","","","","","","","","",""
"","S2","","html-keyboard-response","449","450554","0.0-1.0-607.0","0","0","12999","","null","","","null","67","","NaN","","","","","","","","","","","","","",""
"","response","","html-keyboard-response","450","450951","0.0-1.0-608.0-0.0","0","0","12999","","397","","","75","67","","","2","67","training","adjacent","DE","4","5","O.jpg","L.jpg","1","1","1","",""
"","feedback","","html-keyboard-response","451","451953","0.0-1.0-609.0-0.0","0","0","12999","","null","","","null","67","","","","","","","","","","","","","","","",""
"","ITI","","html-keyboard-response","452","452954","0.0-1.0-612.0","0","0","12999","","null","","","null","67","","","","","","","","","","","","","","","NaN",""
"","S1","","html-keyboard-response","453","453205","0.0-1.0-614.0","0","0","12999","","null","","","null","68","","","","","","","","","","","","","","","",""
"","ISI","","html-keyboard-response","454","454207","0.0-1.0-615.0","0","0","12999","","null","","","null","68","NaN","","","","","","","","","","","","","","",""
"","S2","","html-keyboard-response","455","454458","0.0-1.0-616.0","0","0","12999","","null","","","null","68","","NaN","","","","","","","","","","","","","",""
"","response","","html-keyboard-response","456","455023","0.0-1.0-617.0-0.0","0","0","12999","","565","","","75","68","","","2","68","training","adjacent","FG","6","7","N.jpg","Q.jpg","1","1","1","",""
"","feedback","","html-keyboard-response","457","456025","0.0-1.0-618.0-0.0","0","0","12999","","null","","","null","68","","","","","","","","","","","","","","","",""
"","ITI","","html-keyboard-response","458","457026","0.0-1.0-621.0","0","0","12999","","null","","","null","68","","","","","","","","","","","","","","","NaN",""
"","S1","","html-keyboard-response","459","457277","0.0-1.0-623.0","0","0","12999","","null","","","null","69","","","","","","","","","","","","","","","",""
"","ISI","","html-keyboard-response","460","458279","0.0-1.0-624.0","0","0","12999","","null","","","null","69","NaN","","","","","","","","","","","","","","",""
"","S2","","html-keyboard-response","461","458530","0.0-1.0-625.0","0","0","12999","","null","","","null","69","","NaN","","","","","","","","","","","","","",""
"","response","","html-keyboard-response","462","458807","0.0-1.0-626.0-0.0","0","0","12999","","277","","","75","69","","","2","69","training","adjacent","BC","2","3","P.jpg","R.jpg","1","1","1","",""
"","feedback","","html-keyboard-response","463","459809","0.0-1.0-627.0-0.0","0","0","12999","","null","","","null","69","","","","","","","","","","","","","","","",""
"","ITI","","html-keyboard-response","464","460811","0.0-1.0-630.0","0","0","12999","","null","","","null","69","","","","","","","","","","","","","","","NaN",""
"","S1","","html-keyboard-response","465","461062","0.0-1.0-632.0","0","0","12999","","null","","","null","70","","","","","","","","","","","","","","","",""
"","ISI","","html-keyboard-response","466","462063","0.0-1.0-633.0","0","0","12999","","null","","","null","70","NaN","","","","","","","","","","","","","","",""
"","S2","","html-keyboard-response","467","462295","0.0-1.0-634.0","0","0","12999","","231","","","75","70","","k","2","70","training","adjacent","CD","3","4","R.jpg","O.jpg","1","1","1","",""
"","feedback","","html-keyboard-response","468","463306","0.0-1.0-636.0-0.0","0","0","12999","","null","","","null","70","","","","","","","","","","","","","","","",""
"","ITI","","html-keyboard-response","469","464308","0.0-1.0-639.0","0","0","12999","","null","","","null","70","","","","","","","","","","","","","","","NaN",""
"","S1","","html-keyboard-response","470","464559","0.0-1.0-641.0","0","0","12999","","null","","","null","71","","","","","","","","","","","","","","","",""
"","ISI","","html-keyboard-response","471","465560","0.0-1.0-642.0","0","0","12999","","null","","","null","71","NaN","","","","","","","","","","","","","","",""
"","S2","","html-keyboard-response","472","465811","0.0-1.0-643.0","0","0","12999","","null","","","null","71","","NaN","","","","","","","","","","","","","",""
"","response","","html-keyboard-response","473","466376","0.0-1.0-644.0-0.0","0","0","12999","","564","","","75","71","","","2","71","training","adjacent","DC","4","3","O.jpg","R.jpg","1","0","0","",""
"","feedback","","html-keyboard-response","474","467378","0.0-1.0-645.0-0.0","0","0","12999","","null","","","null","71","","","","","","","","","","","","","","","",""
"","time_out","","html-keyboard-response","475","469379","0.0-1.0-647.0-0.0","0","0","12999","","null","","","null","71","","","","","","","","","","","","","","","",""
"","ITI","","html-keyboard-response","476","470380","0.0-1.0-648.0","0","0","12999","","null","","","null","71","","","","","","","","","","","","","","","NaN",""
"","S1","","html-keyboard-response","477","470631","0.0-1.0-650.0","0","0","12999","","null","","","null","72","","","","","","","","","","","","","","","",""
"","ISI","","html-keyboard-response","478","471633","0.0-1.0-651.0","0","0","12999","","null","","","null","72","NaN","","","","","","","","","","","","","","",""
"","S2","","html-keyboard-response","479","471884","0.0-1.0-652.0","0","0","12999","","null","","","null","72","","NaN","","","","","","","","","","","","","",""
"","response","","html-keyboard-response","480","472408","0.0-1.0-653.0-0.0","0","0","12999","","524","","","68","72","","","2","72","training","adjacent","BA","2","1","P.jpg","M.jpg","0","0","1","",""
"","feedback","","html-keyboard-response","481","473409","0.0-1.0-654.0-0.0","0","0","12999","","null","","","null","72","","","","","","","","","","","","","","","",""
"","ITI","","html-keyboard-response","482","474411","0.0-1.0-657.0","0","0","12999","","null","","","null","72","","","","","","","","","","","","","","","NaN",""
"","S1","","html-keyboard-response","483","474662","0.0-1.0-659.0","0","0","12999","","null","","","null","73","","","","","","","","","","","","","","","",""
"","ISI","","html-keyboard-response","484","475663","0.0-1.0-660.0","0","0","12999","","null","","","null","73","NaN","","","","","","","","","","","","","","",""
"","S2","","html-keyboard-response","485","475914","0.0-1.0-661.0","0","0","12999","","null","","","null","73","","NaN","","","","","","","","","","","","","",""
"","response","","html-keyboard-response","486","476272","0.0-1.0-662.0-0.0","0","0","12999","","357","","","68","73","","","2","73","training","adjacent","DC","4","3","O.jpg","R.jpg","0","0","1","",""
"","feedback","","html-keyboard-response","487","477274","0.0-1.0-663.0-0.0","0","0","12999","","null","","","null","73","","","","","","","","","","","","","","","",""
"","ITI","","html-keyboard-response","488","478276","0.0-1.0-666.0","0","0","12999","","null","","","null","73","","","","","","","","","","","","","","","NaN",""
"","S1","","html-keyboard-response","489","478527","0.0-1.0-668.0","0","0","12999","","null","","","null","74","","","","","","","","","","","","","","","",""
"","ISI","","html-keyboard-response","490","479528","0.0-1.0-669.0","0","0","12999","","null","","","null","74","NaN","","","","","","","","","","","","","","",""
"","S2","","html-keyboard-response","491","479780","0.0-1.0-670.0","0","0","12999","","null","","","null","74","","NaN","","","","","","","","","","","","","",""
"","response","","html-keyboard-response","492","480296","0.0-1.0-671.0-0.0","0","0","12999","","516","","","75","74","","","2","74","training","adjacent","FG","6","7","N.jpg","Q.jpg","1","1","1","",""
"","feedback","","html-keyboard-response","493","481298","0.0-1.0-672.0-0.0","0","0","12999","","null","","","null","74","","","","","","","","","","","","","","","",""
"","ITI","","html-keyboard-response","494","482300","0.0-1.0-675.0","0","0","12999","","null","","","null","74","","","","","","","","","","","","","","","NaN",""
"","S1","","html-keyboard-response","495","482551","0.0-1.0-677.0","0","0","12999","","null","","","null","75","","","","","","","","","","","","","","","",""
"","ISI","","html-keyboard-response","496","483552","0.0-1.0-678.0","0","0","12999","","null","","","null","75","NaN","","","","","","","","","","","","","","",""
"","S2","","html-keyboard-response","497","483804","0.0-1.0-679.0","0","0","12999","","null","","","null","75","","NaN","","","","","","","","","","","","","",""
"","response","","html-keyboard-response","498","484312","0.0-1.0-680.0-0.0","0","0","12999","","508","","","68","75","","","2","75","training","adjacent","FG","6","7","N.jpg","Q.jpg","0","1","0","",""
"","feedback","","html-keyboard-response","499","485314","0.0-1.0-681.0-0.0","0","0","12999","","null","","","null","75","","","","","","","","","","","","","","","",""
"","time_out","","html-keyboard-response","500","487315","0.0-1.0-683.0-0.0","0","0","12999","","null","","","null","75","","","","","","","","","","","","","","","",""
"","ITI","","html-keyboard-response","501","488317","0.0-1.0-684.0","0","0","12999","","null","","","null","75","","","","","","","","","","","","","","","NaN",""
"","S1","","html-keyboard-response","502","488568","0.0-1.0-686.0","0","0","12999","","null","","","null","76","","","","","","","","","","","","","","","",""
"","ISI","","html-keyboard-response","503","489569","0.0-1.0-687.0","0","0","12999","","null","","","null","76","NaN","","","","","","","","","","","","","","",""
"","S2","","html-keyboard-response","504","489820","0.0-1.0-688.0","0","0","12999","","null","","","null","76","","NaN","","","","","","","","","","","","","",""
"","response","","html-keyboard-response","505","490664","0.0-1.0-689.0-0.0","0","0","12999","","844","","","75","76","","","2","76","training","adjacent","BC","2","3","P.jpg","R.jpg","1","1","1","",""
"","feedback","","html-keyboard-response","506","491666","0.0-1.0-690.0-0.0","0","0","12999","","null","","","null","76","","","","","","","","","","","","","","","",""
"","ITI","","html-keyboard-response","507","492668","0.0-1.0-693.0","0","0","12999","","null","","","null","76","","","","","","","","","","","","","","","NaN",""
"","S1","","html-keyboard-response","508","492919","0.0-1.0-695.0","0","0","12999","","null","","","null","77","","","","","","","","","","","","","","","",""
"","ISI","","html-keyboard-response","509","493920","0.0-1.0-696.0","0","0","12999","","null","","","null","77","NaN","","","","","","","","","","","","","","",""
"","S2","","html-keyboard-response","510","494171","0.0-1.0-697.0","0","0","12999","","null","","","null","77","","NaN","","","","","","","","","","","","","",""
"","response","","html-keyboard-response","511","494848","0.0-1.0-698.0-0.0","0","0","12999","","676","","","68","77","","","2","77","training","adjacent","CB","3","2","R.jpg","P.jpg","0","0","1","",""
"","feedback","","html-keyboard-response","512","495850","0.0-1.0-699.0-0.0","0","0","12999","","null","","","null","77","","","","","","","","","","","","","","","",""
"","ITI","","html-keyboard-response","513","496852","0.0-1.0-702.0","0","0","12999","","null","","","null","77","","","","","","","","","","","","","","","NaN",""
"","S1","","html-keyboard-response","514","497103","0.0-1.0-704.0","0","0","12999","","null","","","null","78","","","","","","","","","","","","","","","",""
"","ISI","","html-keyboard-response","515","498104","0.0-1.0-705.0","0","0","12999","","null","","","null","78","NaN","","","","","","","","","","","","","","",""
"","S2","","html-keyboard-response","516","498355","0.0-1.0-706.0","0","0","12999","","null","","","null","78","","NaN","","","","","","","","","","","","","",""
"","response","","html-keyboard-response","517","498656","0.0-1.0-707.0-0.0","0","0","12999","","300","","","68","78","","","2","78","training","adjacent","BA","2","1","P.jpg","M.jpg","0","0","1","",""
"","feedback","","html-keyboard-response","518","499658","0.0-1.0-708.0-0.0","0","0","12999","","null","","","null","78","","","","","","","","","","","","","","","",""
"","ITI","","html-keyboard-response","519","500659","0.0-1.0-711.0","0","0","12999","","null","","","null","78","","","","","","","","","","","","","","","NaN",""
"","S1","","html-keyboard-response","520","500910","0.0-1.0-713.0","0","0","12999","","null","","","null","79","","","","","","","","","","","","","","","",""
"","ISI","","html-keyboard-response","521","501912","0.0-1.0-714.0","0","0","12999","","null","","","null","79","NaN","","","","","","","","","","","","","","",""
"","S2","","html-keyboard-response","522","502163","0.0-1.0-715.0","0","0","12999","","null","","","null","79","","NaN","","","","","","","","","","","","","",""
"","response","","html-keyboard-response","523","502680","0.0-1.0-716.0-0.0","0","0","12999","","517","","","68","79","","","2","79","training","adjacent","GF","7","6","Q.jpg","N.jpg","0","0","1","",""
"","feedback","","html-keyboard-response","524","503681","0.0-1.0-717.0-0.0","0","0","12999","","null","","","null","79","","","","","","","","","","","","","","","",""
"","ITI","","html-keyboard-response","525","504683","0.0-1.0-720.0","0","0","12999","","null","","","null","79","","","","","","","","","","","","","","","NaN",""
"","S1","","html-keyboard-response","526","504934","0.0-1.0-722.0","0","0","12999","","null","","","null","80","","","","","","","","","","","","","","","",""
"","ISI","","html-keyboard-response","527","505935","0.0-1.0-723.0","0","0","12999","","null","","","null","80","NaN","","","","","","","","","","","","","","",""
"","S2","","html-keyboard-response","528","506186","0.0-1.0-724.0","0","0","12999","","null","","","null","80","","NaN","","","","","","","","","","","","","",""
"","response","","html-keyboard-response","529","506248","0.0-1.0-725.0-0.0","0","0","12999","","61","","","75","80","","","2","80","training","adjacent","AB","1","2","M.jpg","P.jpg","1","1","1","",""
"","feedback","","html-keyboard-response","530","507250","0.0-1.0-726.0-0.0","0","0","12999","","null","","","null","80","","","","","","","","","","","","","","","",""
"","ITI","","html-keyboard-response","531","508251","0.0-1.0-729.0","0","0","12999","","null","","","null","80","","","","","","","","","","","","","","","NaN",""
"","S1","","html-keyboard-response","532","508502","0.0-1.0-731.0","0","0","12999","","null","","","null","81","","","","","","","","","","","","","","","",""
"","ISI","","html-keyboard-response","533","509504","0.0-1.0-732.0","0","0","12999","","null","","","null","81","NaN","","","","","","","","","","","","","","",""
"","S2","","html-keyboard-response","534","509755","0.0-1.0-733.0","0","0","12999","","null","","","null","81","","NaN","","","","","","","","","","","","","",""
"","response","","html-keyboard-response","535","510224","0.0-1.0-734.0-0.0","0","0","12999","","469","","","75","81","","","2","81","training","adjacent","DE","4","5","O.jpg","L.jpg","1","1","1","",""
"","feedback","","html-keyboard-response","536","511226","0.0-1.0-735.0-0.0","0","0","12999","","null","","","null","81","","","","","","","","","","","","","","","",""
"","ITI","","html-keyboard-response","537","512227","0.0-1.0-738.0","0","0","12999","","null","","","null","81","","","","","","","","","","","","","","","NaN",""
"","S1","","html-keyboard-response","538","512489","0.0-1.0-740.0","0","0","12999","","null","","","null","82","","","","","","","","","","","","","","","",""
"","ISI","","html-keyboard-response","539","513491","0.0-1.0-741.0","0","0","12999","","null","","","null","82","NaN","","","","","","","","","","","","","","",""
"","S2","","html-keyboard-response","540","513742","0.0-1.0-742.0","0","0","12999","","null","","","null","82","","NaN","","","","","","","","","","","","","",""
"","response","","html-keyboard-response","541","514344","0.0-1.0-743.0-0.0","0","0","12999","","602","","","75","82","","","2","82","training","adjacent","FG","6","7","N.jpg","Q.jpg","1","1","1","",""
"","feedback","","html-keyboard-response","542","515346","0.0-1.0-744.0-0.0","0","0","12999","","null","","","null","82","","","","","","","","","","","","","","","",""
"","ITI","","html-keyboard-response","543","516347","0.0-1.0-747.0","0","0","12999","","null","","","null","82","","","","","","","","","","","","","","","NaN",""
"","S1","","html-keyboard-response","544","516598","0.0-1.0-749.0","0","0","12999","","null","","","null","83","","","","","","","","","","","","","","","",""
"","ISI","","html-keyboard-response","545","517600","0.0-1.0-750.0","0","0","12999","","null","","","null","83","NaN","","","","","","","","","","","","","","",""
"","S2","","html-keyboard-response","546","517851","0.0-1.0-751.0","0","0","12999","","null","","","null","83","","NaN","","","","","","","","","","","","","",""
"","response","","html-keyboard-response","547","518104","0.0-1.0-752.0-0.0","0","0","12999","","253","","","68","83","","","2","83","training","adjacent","GF","7","6","Q.jpg","N.jpg","0","0","1","",""
"","feedback","","html-keyboard-response","548","519106","0.0-1.0-753.0-0.0","0","0","12999","","null","","","null","83","","","","","","","","","","","","","","","",""
"","ITI","","html-keyboard-response","549","520107","0.0-1.0-756.0","0","0","12999","","null","","","null","83","","","","","","","","","","","","","","","NaN",""
"","S1","","html-keyboard-response","550","520358","0.0-1.0-758.0","0","0","12999","","null","","","null","84","","","","","","","","","","","","","","","",""
"","ISI","","html-keyboard-response","551","521360","0.0-1.0-759.0","0","0","12999","","null","","","null","84","NaN","","","","","","","","","","","","","","",""
"","S2","","html-keyboard-response","552","521611","0.0-1.0-760.0","0","0","12999","","null","","","null","84","","NaN","","","","","","","","","","","","","",""
"","response","","html-keyboard-response","553","522320","0.0-1.0-761.0-0.0","0","0","12999","","709","","","68","84","","","2","84","training","adjacent","ED","5","4","L.jpg","O.jpg","0","0","1","",""
"","feedback","","html-keyboard-response","554","523332","0.0-1.0-762.0-0.0","0","0","12999","","null","","","null","84","","","","","","","","","","","","","","","",""
"","ITI","","html-keyboard-response","555","524333","0.0-1.0-765.0","0","0","12999","","null","","","null","84","","","","","","","","","","","","","","","NaN",""
"","S1","","html-keyboard-response","556","524584","0.0-1.0-767.0","0","0","12999","","null","","","null","85","","","","","","","","","","","","","","","",""
"","ISI","","html-keyboard-response","557","525586","0.0-1.0-768.0","0","0","12999","","null","","","null","85","NaN","","","","","","","","","","","","","","",""
"","S2","","html-keyboard-response","558","525837","0.0-1.0-769.0","0","0","12999","","null","","","null","85","","NaN","","","","","","","","","","","","","",""
"","response","","html-keyboard-response","559","526289","0.0-1.0-770.0-0.0","0","0","12999","","452","","","75","85","","","2","85","training","adjacent","FE","6","5","N.jpg","L.jpg","1","0","0","",""
"","feedback","","html-keyboard-response","560","527291","0.0-1.0-771.0-0.0","0","0","12999","","null","","","null","85","","","","","","","","","","","","","","","",""
"","time_out","","html-keyboard-response","561","529292","0.0-1.0-773.0-0.0","0","0","12999","","null","","","null","85","","","","","","","","","","","","","","","",""
"","ITI","","html-keyboard-response","562","530293","0.0-1.0-774.0","0","0","12999","","null","","","null","85","","","","","","","","","","","","","","","NaN",""
"","S1","","html-keyboard-response","563","530544","0.0-1.0-776.0","0","0","12999","","null","","","null","86","","","","","","","","","","","","","","","",""
"","ISI","","html-keyboard-response","564","531545","0.0-1.0-777.0","0","0","12999","","null","","","null","86","NaN","","","","","","","","","","","","","","",""
"","S2","","html-keyboard-response","565","531797","0.0-1.0-778.0","0","0","12999","","null","","","null","86","","NaN","","","","","","","","","","","","","",""
"","response","","html-keyboard-response","566","532377","0.0-1.0-779.0-0.0","0","0","12999","","580","","","75","86","","","2","86","training","adjacent","CD","3","4","R.jpg","O.jpg","1","1","1","",""
"","feedback","","html-keyboard-response","567","533379","0.0-1.0-780.0-0.0","0","0","12999","","null","","","null","86","","","","","","","","","","","","","","","",""
"","ITI","","html-keyboard-response","568","534381","0.0-1.0-783.0","0","0","12999","","null","","","null","86","","","","","","","","","","","","","","","NaN",""
"","S1","","html-keyboard-response","569","534632","0.0-1.0-785.0","0","0","12999","","null","","","null","87","","","","","","","","","","","","","","","",""
"","ISI","","html-keyboard-response","570","535633","0.0-1.0-786.0","0","0","12999","","null","","","null","87","NaN","","","","","","","","","","","","","","",""
"","S2","","html-keyboard-response","571","535884","0.0-1.0-787.0","0","0","12999","","null","","","null","87","","NaN","","","","","","","","","","","","","",""
"","response","","html-keyboard-response","572","537636","0.0-1.0-788.0-0.0","0","0","12999","","null","","","null","87","","","2","87","training","adjacent","GF","7","6","Q.jpg","N.jpg","NaN","0","0","",""
"","too_slow_prompt","","html-keyboard-response","573","538637","0.0-1.0-790.0-0.0","1","0","12999","","null","","","null","","","","","","","","","","","","","","","","",""
"","time_out","","html-keyboard-response","574","540639","0.0-1.0-791.0-0.0","0","0","12999","","null","","","null","87","","","","","","","","","","","","","","","",""
"","ITI","","html-keyboard-response","575","541641","0.0-1.0-792.0","0","0","12999","","null","","","null","87","","","","","","","","","","","","","","","NaN",""
"","S1","","html-keyboard-response","576","541892","0.0-1.0-794.0","0","0","12999","","null","","","null","88","","","","","","","","","","","","","","","",""
"","ISI","","html-keyboard-response","577","542893","0.0-1.0-795.0","0","0","12999","","null","","","null","88","NaN","","","","","","","","","","","","","","",""
"","S2","","html-keyboard-response","578","543147","0.0-1.0-796.0","0","0","12999","","null","","","null","88","","NaN","","","","","","","","","","","","","",""
"","response","","html-keyboard-response","579","543153","0.0-1.0-797.0-0.0","0","0","12999","","6","","","68","88","","","2","88","training","adjacent","EF","5","6","L.jpg","N.jpg","0","1","0","",""
"","feedback","","html-keyboard-response","580","544155","0.0-1.0-798.0-0.0","0","0","12999","","null","","","null","88","","","","","","","","","","","","","","","",""
