"success","ttype","start_time","trial_type","trial_index","time_elapsed","internal_node_id","warning","missed_checkup","PID","view_history","rt","responses","repeat_instructions","key_press","index","keypress_isi","keypress_S2","block","trial_num","phase","group_type","pair_type","S1_stim","S2_stim","S1_img","S2_img","S1_chosen","S1_higher","accuracy","keypress_iti","total_bonus_tally"
"true","full_screen","d04132023hr1421","fullscreen","0","28904","0.0-0.0","0","0","83866","","","","","","","","","","","","","","","","","","","","","",""
"","instructions","","instructions","1","119387","0.0-1.0-0.0-0.0","0","0","83866","[{""page_index"":0,""viewing_time"":4574},{""page_index"":1,""viewing_time"":36049},{""page_index"":0,""viewing_time"":848},{""page_index"":1,""viewing_time"":648},{""page_index"":2,""viewing_time"":7192},{""page_index"":1,""viewing_time"":17346},{""page_index"":2,""viewing_time"":8631},{""page_index"":1,""viewing_time"":10600},{""page_index"":2,""viewing_time"":1216},{""page_index"":3,""viewing_time"":3376}]","90481","","","","","","","","","","","","","","","","","","","",""
"","comprehension_check","","survey-multi-choice","2","140122","0.0-1.0-0.0-1.0","0","0","83866","","20732","{""Q0"":""True"",""Q1"":""D"",""Q2"":""Only when the screen 'MAKE A CHOICE' is shown"",""Q3"":""Green mark"",""Q4"":""either D or K""}","1","","","","","","","","","","","","","","","","","",""
"","missed_instruction_checkup","","html-keyboard-response","3","142163","0.0-1.0-0.0-2.0-0.0","0","1","83866","","2039","","","32","","","","","","","","","","","","","","","","",""
"","instructions","","instructions","4","149539","0.0-1.0-0.1-0.1","0","0","83866","[{""page_index"":0,""viewing_time"":1430},{""page_index"":1,""viewing_time"":3384},{""page_index"":2,""viewing_time"":1528},{""page_index"":3,""viewing_time"":1033}]","7375","","","","","","","","","","","","","","","","","","","",""
"","comprehension_check","","survey-multi-choice","5","164419","0.0-1.0-0.1-1.1","0","0","83866","","14877","{""Q0"":""False"",""Q1"":""D"",""Q2"":""Only when the screen 'MAKE A CHOICE' is shown"",""Q3"":"""",""Q4"":""either D or K""}","1","","","","","","","","","","","","","","","","","",""
"","missed_instruction_checkup","","html-keyboard-response","6","166948","0.0-1.0-0.1-2.1-0.1","0","1","83866","","2527","","","32","","","","","","","","","","","","","","","","",""
"","instructions","","instructions","7","181203","0.0-1.0-0.2-0.2","0","0","83866","[{""page_index"":0,""viewing_time"":1158},{""page_index"":1,""viewing_time"":11424},{""page_index"":2,""viewing_time"":977},{""page_index"":3,""viewing_time"":695}]","14254","","","","","","","","","","","","","","","","","","","",""
"","comprehension_check","","survey-multi-choice","8","200843","0.0-1.0-0.2-1.2","0","0","83866","","19638","{""Q0"":""True"",""Q1"":""D"",""Q2"":""Once the second image appears and while the screen 'MAKE A CHOICE' is shown"",""Q3"":""Green mark"",""Q4"":""either D or K""}","0","","","","","","","","","","","","","","","","","",""
"","start_exp","","html-keyboard-response","9","203019","0.0-1.0-1.0","0","0","83866","","2174","","","32","","","","","","","","","","","","","","","","",""
"","S1","","html-keyboard-response","10","203271","0.0-1.0-2.0","0","0","83866","","null","","","null","0","","","","","","","","","","","","","","","",""
"","ISI","","html-keyboard-response","11","204273","0.0-1.0-3.0","0","0","83866","","null","","","null","0","NaN","","","","","","","","","","","","","","",""
"","S2","","html-keyboard-response","12","204525","0.0-1.0-4.0","0","0","83866","","null","","","null","0","","NaN","","","","","","","","","","","","","",""
"","response","","html-keyboard-response","13","206278","0.0-1.0-5.0-0.0","0","0","83866","","null","","","null","0","","","1","0","training","adjacent","EF","5","6","Q.jpg","R.jpg","NaN","1","0","",""
"","too_slow_prompt","","html-keyboard-response","14","207279","0.0-1.0-7.0-0.0","1","0","83866","","null","","","null","","","","","","","","","","","","","","","","",""
"","time_out","","html-keyboard-response","15","209281","0.0-1.0-8.0-0.0","0","0","83866","","null","","","null","0","","","","","","","","","","","","","","","",""
"","ITI","","html-keyboard-response","16","210284","0.0-1.0-9.0","0","0","83866","","null","","","null","0","","","","","","","","","","","","","","","NaN",""
"","S1","","html-keyboard-response","17","210536","0.0-1.0-11.0","0","0","83866","","null","","","null","1","","","","","","","","","","","","","","","",""
"","ISI","","html-keyboard-response","18","211538","0.0-1.0-12.0","0","0","83866","","null","","","null","1","NaN","","","","","","","","","","","","","","",""
"","S2","","html-keyboard-response","19","211791","0.0-1.0-13.0","0","0","83866","","null","","","null","1","","NaN","","","","","","","","","","","","","",""
"","response","","html-keyboard-response","20","212403","0.0-1.0-14.0-0.0","0","0","83866","","611","","","75","1","","","1","1","training","adjacent","FE","6","5","R.jpg","Q.jpg","0","0","1","",""
"","feedback","","html-keyboard-response","21","213407","0.0-1.0-15.0-0.0","0","0","83866","","null","","","null","1","","","","","","","","","","","","","","","",""
"","ITI","","html-keyboard-response","22","214408","0.0-1.0-18.0","0","0","83866","","null","","","null","1","","","","","","","","","","","","","","","NaN",""
"","S1","","html-keyboard-response","23","214660","0.0-1.0-20.0","0","0","83866","","null","","","null","2","","","","","","","","","","","","","","","",""
"","ISI","","html-keyboard-response","24","215663","0.0-1.0-21.0","0","0","83866","","null","","","null","2","NaN","","","","","","","","","","","","","","",""
"","S2","","html-keyboard-response","25","215916","0.0-1.0-22.0","0","0","83866","","null","","","null","2","","NaN","","","","","","","","","","","","","",""
"","response","","html-keyboard-response","26","216492","0.0-1.0-23.0-0.0","0","0","83866","","575","","","75","2","","","1","2","training","adjacent","BC","2","3","N.jpg","L.jpg","0","1","0","",""
"","feedback","","html-keyboard-response","27","217494","0.0-1.0-24.0-0.0","0","0","83866","","null","","","null","2","","","","","","","","","","","","","","","",""
"","time_out","","html-keyboard-response","28","219496","0.0-1.0-26.0-0.0","0","0","83866","","null","","","null","2","","","","","","","","","","","","","","","",""
"","ITI","","html-keyboard-response","29","220498","0.0-1.0-27.0","0","0","83866","","null","","","null","2","","","","","","","","","","","","","","","NaN",""
"","S1","","html-keyboard-response","30","220751","0.0-1.0-29.0","0","0","83866","","null","","","null","3","","","","","","","","","","","","","","","",""
"","ISI","","html-keyboard-response","31","221754","0.0-1.0-30.0","0","0","83866","","null","","","null","3","NaN","","","","","","","","","","","","","","",""
"","S2","","html-keyboard-response","32","222006","0.0-1.0-31.0","0","0","83866","","null","","","null","3","","NaN","","","","","","","","","","","","","",""
"","response","","html-keyboard-response","33","222588","0.0-1.0-32.0-0.0","0","0","83866","","581","","","75","3","","","1","3","training","adjacent","EF","5","6","Q.jpg","R.jpg","0","1","0","",""
"","feedback","","html-keyboard-response","34","223591","0.0-1.0-33.0-0.0","0","0","83866","","null","","","null","3","","","","","","","","","","","","","","","",""
"","time_out","","html-keyboard-response","35","225593","0.0-1.0-35.0-0.0","0","0","83866","","null","","","null","3","","","","","","","","","","","","","","","",""
"","ITI","","html-keyboard-response","36","226595","0.0-1.0-36.0","0","0","83866","","null","","","null","3","","","","","","","","","","","","","","","NaN",""
"","S1","","html-keyboard-response","37","226848","0.0-1.0-38.0","0","0","83866","","null","","","null","4","","","","","","","","","","","","","","","",""
"","ISI","","html-keyboard-response","38","227850","0.0-1.0-39.0","0","0","83866","","null","","","null","4","NaN","","","","","","","","","","","","","","",""
"","S2","","html-keyboard-response","39","228103","0.0-1.0-40.0","0","0","83866","","null","","","null","4","","NaN","","","","","","","","","","","","","",""
"","response","","html-keyboard-response","40","228260","0.0-1.0-41.0-0.0","0","0","83866","","156","","","68","4","","","1","4","training","adjacent","CD","3","4","L.jpg","P.jpg","1","1","1","",""
"","feedback","","html-keyboard-response","41","229262","0.0-1.0-42.0-0.0","0","0","83866","","null","","","null","4","","","","","","","","","","","","","","","",""
"","ITI","","html-keyboard-response","42","230264","0.0-1.0-45.0","0","0","83866","","null","","","null","4","","","","","","","","","","","","","","","NaN",""
"","S1","","html-keyboard-response","43","230516","0.0-1.0-47.0","0","0","83866","","null","","","null","5","","","","","","","","","","","","","","","",""
"","ISI","","html-keyboard-response","44","231518","0.0-1.0-48.0","0","0","83866","","null","","","null","5","NaN","","","","","","","","","","","","","","",""
"","S2","","html-keyboard-response","45","231770","0.0-1.0-49.0","0","0","83866","","null","","","null","5","","NaN","","","","","","","","","","","","","",""
"","response","","html-keyboard-response","46","232196","0.0-1.0-50.0-0.0","0","0","83866","","425","","","68","5","","","1","5","training","adjacent","DE","4","5","P.jpg","Q.jpg","1","1","1","",""
"","feedback","","html-keyboard-response","47","233198","0.0-1.0-51.0-0.0","0","0","83866","","null","","","null","5","","","","","","","","","","","","","","","",""
"","ITI","","html-keyboard-response","48","234201","0.0-1.0-54.0","0","0","83866","","null","","","null","5","","","","","","","","","","","","","","","NaN",""
"","S1","","html-keyboard-response","49","234453","0.0-1.0-56.0","0","0","83866","","null","","","null","6","","","","","","","","","","","","","","","",""
"","ISI","","html-keyboard-response","50","235455","0.0-1.0-57.0","0","0","83866","","null","","","null","6","NaN","","","","","","","","","","","","","","",""
"","S2","","html-keyboard-response","51","235720","0.0-1.0-58.0","0","0","83866","","null","","","null","6","","NaN","","","","","","","","","","","","","",""
"","response","","html-keyboard-response","52","236332","0.0-1.0-59.0-0.0","0","0","83866","","611","","","68","6","","","1","6","training","adjacent","DE","4","5","P.jpg","Q.jpg","1","1","1","",""
"","feedback","","html-keyboard-response","53","237334","0.0-1.0-60.0-0.0","0","0","83866","","null","","","null","6","","","","","","","","","","","","","","","",""
"","ITI","","html-keyboard-response","54","238336","0.0-1.0-63.0","0","0","83866","","null","","","null","6","","","","","","","","","","","","","","","NaN",""
"","S1","","html-keyboard-response","55","238589","0.0-1.0-65.0","0","0","83866","","null","","","null","7","","","","","","","","","","","","","","","",""
"","ISI","","html-keyboard-response","56","239598","0.0-1.0-66.0","0","0","83866","","null","","","null","7","NaN","","","","","","","","","","","","","","",""
"","S2","","html-keyboard-response","57","239851","0.0-1.0-67.0","0","0","83866","","null","","","null","7","","NaN","","","","","","","","","","","","","",""
"","response","","html-keyboard-response","58","239924","0.0-1.0-68.0-0.0","0","0","83866","","72","","","75","7","","","1","7","training","adjacent","ED","5","4","Q.jpg","P.jpg","0","0","1","",""
"","feedback","","html-keyboard-response","59","240927","0.0-1.0-69.0-0.0","0","0","83866","","null","","","null","7","","","","","","","","","","","","","","","",""
"","ITI","","html-keyboard-response","60","241930","0.0-1.0-72.0","0","0","83866","","null","","","null","7","","","","","","","","","","","","","","","NaN",""
"","S1","","html-keyboard-response","61","242182","0.0-1.0-74.0","0","0","83866","","null","","","null","8","","","","","","","","","","","","","","","",""
"","ISI","","html-keyboard-response","62","243185","0.0-1.0-75.0","0","0","83866","","null","","","null","8","NaN","","","","","","","","","","","","","","",""
"","S2","","html-keyboard-response","63","243437","0.0-1.0-76.0","0","0","83866","","null","","","null","8","","NaN","","","","","","","","","","","","","",""
"","response","","html-keyboard-response","64","244171","0.0-1.0-77.0-0.0","0","0","83866","","732","","","68","8","","","1","8","training","adjacent","AB","1","2","O.jpg","N.jpg","1","1","1","",""
"","feedback","","html-keyboard-response","65","245173","0.0-1.0-78.0-0.0","0","0","83866","","null","","","null","8","","","","","","","","","","","","","","","",""
"","ITI","","html-keyboard-response","66","246176","0.0-1.0-81.0","0","0","83866","","null","","","null","8","","","","","","","","","","","","","","","NaN",""
"","S1","","html-keyboard-response","67","246428","0.0-1.0-83.0","0","0","83866","","null","","","null","9","","","","","","","","","","","","","","","",""
"","ISI","","html-keyboard-response","68","247431","0.0-1.0-84.0","0","0","83866","","null","","","null","9","NaN","","","","","","","","","","","","","","",""
"","S2","","html-keyboard-response","69","247684","0.0-1.0-85.0","0","0","83866","","null","","","null","9","","NaN","","","","","","","","","","","","","",""
"","response","","html-keyboard-response","70","247892","0.0-1.0-86.0-0.0","0","0","83866","","207","","","68","9","","","1","9","training","adjacent","BC","2","3","N.jpg","L.jpg","1","1","1","",""
"","feedback","","html-keyboard-response","71","248894","0.0-1.0-87.0-0.0","0","0","83866","","null","","","null","9","","","","","","","","","","","","","","","",""
"","ITI","","html-keyboard-response","72","249897","0.0-1.0-90.0","0","0","83866","","null","","","null","9","","","","","","","","","","","","","","","NaN",""
"","S1","","html-keyboard-response","73","250149","0.0-1.0-92.0","0","0","83866","","null","","","null","10","","","","","","","","","","","","","","","",""
"","ISI","","html-keyboard-response","74","251152","0.0-1.0-93.0","0","0","83866","","null","","","null","10","NaN","","","","","","","","","","","","","","",""
"","S2","","html-keyboard-response","75","251405","0.0-1.0-94.0","0","0","83866","","null","","","null","10","","NaN","","","","","","","","","","","","","",""
"","response","","html-keyboard-response","76","251716","0.0-1.0-95.0-0.0","0","0","83866","","310","","","68","10","","","1","10","training","adjacent","EF","5","6","Q.jpg","R.jpg","1","1","1","",""
"","feedback","","html-keyboard-response","77","252718","0.0-1.0-96.0-0.0","0","0","83866","","null","","","null","10","","","","","","","","","","","","","","","",""
"","ITI","","html-keyboard-response","78","253720","0.0-1.0-99.0","0","0","83866","","null","","","null","10","","","","","","","","","","","","","","","NaN",""
"","S1","","html-keyboard-response","79","253971","0.0-1.0-101.0","0","0","83866","","null","","","null","11","","","","","","","","","","","","","","","",""
"","ISI","","html-keyboard-response","80","254973","0.0-1.0-102.0","0","0","83866","","null","","","null","11","NaN","","","","","","","","","","","","","","",""
"","S2","","html-keyboard-response","81","255238","0.0-1.0-103.0","0","0","83866","","null","","","null","11","","NaN","","","","","","","","","","","","","",""
"","response","","html-keyboard-response","82","256299","0.0-1.0-104.0-0.0","0","0","83866","","1060","","","75","11","","","1","11","training","adjacent","AB","1","2","O.jpg","N.jpg","0","1","0","",""
"","feedback","","html-keyboard-response","83","257301","0.0-1.0-105.0-0.0","0","0","83866","","null","","","null","11","","","","","","","","","","","","","","","",""
"","time_out","","html-keyboard-response","84","259305","0.0-1.0-107.0-0.0","0","0","83866","","null","","","null","11","","","","","","","","","","","","","","","",""
"","ITI","","html-keyboard-response","85","260308","0.0-1.0-108.0","0","0","83866","","null","","","null","11","","","","","","","","","","","","","","","NaN",""
"","S1","","html-keyboard-response","86","260561","0.0-1.0-110.0","0","0","83866","","null","","","null","12","","","","","","","","","","","","","","","",""
"","ISI","","html-keyboard-response","87","261563","0.0-1.0-111.0","0","0","83866","","null","","","null","12","NaN","","","","","","","","","","","","","","",""
"","S2","","html-keyboard-response","88","261816","0.0-1.0-112.0","0","0","83866","","null","","","null","12","","NaN","","","","","","","","","","","","","",""
"","response","","html-keyboard-response","89","261836","0.0-1.0-113.0-0.0","0","0","83866","","19","","","68","12","","","1","12","training","adjacent","DE","4","5","P.jpg","Q.jpg","1","1","1","",""
"","feedback","","html-keyboard-response","90","262838","0.0-1.0-114.0-0.0","0","0","83866","","null","","","null","12","","","","","","","","","","","","","","","",""
"","ITI","","html-keyboard-response","91","263841","0.0-1.0-117.0","0","0","83866","","null","","","null","12","","","","","","","","","","","","","","","NaN",""
"","S1","","html-keyboard-response","92","264093","0.0-1.0-119.0","0","0","83866","","null","","","null","13","","","","","","","","","","","","","","","",""
"","ISI","","html-keyboard-response","93","265096","0.0-1.0-120.0","0","0","83866","","110","","","68","13","d","","","","","","","","","","","","","","",""
"","S2","","html-keyboard-response","94","265348","0.0-1.0-121.0","0","0","83866","","null","","","null","13","","NaN","","","","","","","","","","","","","",""
"","response","","html-keyboard-response","95","265371","0.0-1.0-122.0-0.0","0","0","83866","","23","","","68","13","","","1","13","training","adjacent","DC","4","3","P.jpg","L.jpg","1","0","0","",""
"","feedback","","html-keyboard-response","96","266374","0.0-1.0-123.0-0.0","0","0","83866","","null","","","null","13","","","","","","","","","","","","","","","",""
"","time_out","","html-keyboard-response","97","268376","0.0-1.0-125.0-0.0","0","0","83866","","null","","","null","13","","","","","","","","","","","","","","","",""
"","ITI","","html-keyboard-response","98","269379","0.0-1.0-126.0","0","0","83866","","null","","","null","13","","","","","","","","","","","","","","","NaN",""
"","S1","","html-keyboard-response","99","269631","0.0-1.0-128.0","0","0","83866","","null","","","null","14","","","","","","","","","","","","","","","",""
"","ISI","","html-keyboard-response","100","270632","0.0-1.0-129.0","0","0","83866","","null","","","null","14","NaN","","","","","","","","","","","","","","",""
"","S2","","html-keyboard-response","101","270885","0.0-1.0-130.0","0","0","83866","","null","","","null","14","","NaN","","","","","","","","","","","","","",""
"","response","","html-keyboard-response","102","271284","0.0-1.0-131.0-0.0","0","0","83866","","398","","","68","14","","","1","14","training","adjacent","BC","2","3","N.jpg","L.jpg","1","1","1","",""
"","feedback","","html-keyboard-response","103","272286","0.0-1.0-132.0-0.0","0","0","83866","","null","","","null","14","","","","","","","","","","","","","","","",""
"","ITI","","html-keyboard-response","104","273288","0.0-1.0-135.0","0","0","83866","","null","","","null","14","","","","","","","","","","","","","","","NaN",""
"","S1","","html-keyboard-response","105","273541","0.0-1.0-137.0","0","0","83866","","null","","","null","15","","","","","","","","","","","","","","","",""
"","ISI","","html-keyboard-response","106","274543","0.0-1.0-138.0","0","0","83866","","null","","","null","15","NaN","","","","","","","","","","","","","","",""
"","S2","","html-keyboard-response","107","274796","0.0-1.0-139.0","0","0","83866","","null","","","null","15","","NaN","","","","","","","","","","","","","",""
"","response","","html-keyboard-response","108","275156","0.0-1.0-140.0-0.0","0","0","83866","","359","","","68","15","","","1","15","training","adjacent","FG","6","7","R.jpg","M.jpg","1","1","1","",""
"","feedback","","html-keyboard-response","109","276159","0.0-1.0-141.0-0.0","0","0","83866","","null","","","null","15","","","","","","","","","","","","","","","",""
"","ITI","","html-keyboard-response","110","277161","0.0-1.0-144.0","0","0","83866","","null","","","null","15","","","","","","","","","","","","","","","NaN",""
"","S1","","html-keyboard-response","111","277413","0.0-1.0-146.0","0","0","83866","","null","","","null","16","","","","","","","","","","","","","","","",""
"","ISI","","html-keyboard-response","112","278415","0.0-1.0-147.0","0","0","83866","","null","","","null","16","NaN","","","","","","","","","","","","","","",""
"","S2","","html-keyboard-response","113","278673","0.0-1.0-148.0","0","0","83866","","null","","","null","16","","NaN","","","","","","","","","","","","","",""
"","response","","html-keyboard-response","114","279005","0.0-1.0-149.0-0.0","0","0","83866","","331","","","68","16","","","1","16","training","adjacent","BA","2","1","N.jpg","O.jpg","1","0","0","",""
"","feedback","","html-keyboard-response","115","280007","0.0-1.0-150.0-0.0","0","0","83866","","null","","","null","16","","","","","","","","","","","","","","","",""
"","time_out","","html-keyboard-response","116","282009","0.0-1.0-152.0-0.0","0","0","83866","","null","","","null","16","","","","","","","","","","","","","","","",""
"","ITI","","html-keyboard-response","117","283011","0.0-1.0-153.0","0","0","83866","","null","","","null","16","","","","","","","","","","","","","","","NaN",""
"","S1","","html-keyboard-response","118","283262","0.0-1.0-155.0","0","0","83866","","null","","","null","17","","","","","","","","","","","","","","","",""
"","ISI","","html-keyboard-response","119","284264","0.0-1.0-156.0","0","0","83866","","null","","","null","17","NaN","","","","","","","","","","","","","","",""
"","S2","","html-keyboard-response","120","284517","0.0-1.0-157.0","0","0","83866","","null","","","null","17","","NaN","","","","","","","","","","","","","",""
"","response","","html-keyboard-response","121","285341","0.0-1.0-158.0-0.0","0","0","83866","","823","","","75","17","","","1","17","training","adjacent","AB","1","2","O.jpg","N.jpg","0","1","0","",""
"","feedback","","html-keyboard-response","122","286344","0.0-1.0-159.0-0.0","0","0","83866","","null","","","null","17","","","","","","","","","","","","","","","",""
"","time_out","","html-keyboard-response","123","288355","0.0-1.0-161.0-0.0","0","0","83866","","null","","","null","17","","","","","","","","","","","","","","","",""
"","ITI","","html-keyboard-response","124","289357","0.0-1.0-162.0","0","0","83866","","null","","","null","17","","","","","","","","","","","","","","","NaN",""
"","S1","","html-keyboard-response","125","289609","0.0-1.0-164.0","0","0","83866","","null","","","null","18","","","","","","","","","","","","","","","",""
"","ISI","","html-keyboard-response","126","290612","0.0-1.0-165.0","0","0","83866","","null","","","null","18","NaN","","","","","","","","","","","","","","",""
"","S2","","html-keyboard-response","127","290864","0.0-1.0-166.0","0","0","83866","","null","","","null","18","","NaN","","","","","","","","","","","","","",""
"","response","","html-keyboard-response","128","291309","0.0-1.0-167.0-0.0","0","0","83866","","443","","","68","18","","","1","18","training","adjacent","FG","6","7","R.jpg","M.jpg","1","1","1","",""
"","feedback","","html-keyboard-response","129","292311","0.0-1.0-168.0-0.0","0","0","83866","","null","","","null","18","","","","","","","","","","","","","","","",""
"","ITI","","html-keyboard-response","130","293314","0.0-1.0-171.0","0","0","83866","","null","","","null","18","","","","","","","","","","","","","","","NaN",""
"","S1","","html-keyboard-response","131","293566","0.0-1.0-173.0","0","0","83866","","null","","","null","19","","","","","","","","","","","","","","","",""
"","ISI","","html-keyboard-response","132","294568","0.0-1.0-174.0","0","0","83866","","null","","","null","19","NaN","","","","","","","","","","","","","","",""
"","S2","","html-keyboard-response","133","294820","0.0-1.0-175.0","0","0","83866","","null","","","null","19","","NaN","","","","","","","","","","","","","",""
"","response","","html-keyboard-response","134","295237","0.0-1.0-176.0-0.0","0","0","83866","","416","","","68","19","","","1","19","training","adjacent","DE","4","5","P.jpg","Q.jpg","1","1","1","",""
"","feedback","","html-keyboard-response","135","296239","0.0-1.0-177.0-0.0","0","0","83866","","null","","","null","19","","","","","","","","","","","","","","","",""
"","ITI","","html-keyboard-response","136","297241","0.0-1.0-180.0","0","0","83866","","null","","","null","19","","","","","","","","","","","","","","","NaN",""
"","S1","","html-keyboard-response","137","297494","0.0-1.0-182.0","0","0","83866","","null","","","null","20","","","","","","","","","","","","","","","",""
"","ISI","","html-keyboard-response","138","298498","0.0-1.0-183.0","0","0","83866","","null","","","null","20","NaN","","","","","","","","","","","","","","",""
"","S2","","html-keyboard-response","139","298751","0.0-1.0-184.0","0","0","83866","","null","","","null","20","","NaN","","","","","","","","","","","","","",""
"","response","","html-keyboard-response","140","299005","0.0-1.0-185.0-0.0","0","0","83866","","253","","","68","20","","","1","20","training","adjacent","DC","4","3","P.jpg","L.jpg","1","0","0","",""
"","feedback","","html-keyboard-response","141","300007","0.0-1.0-186.0-0.0","0","0","83866","","null","","","null","20","","","","","","","","","","","","","","","",""
"","time_out","","html-keyboard-response","142","302010","0.0-1.0-188.0-0.0","0","0","83866","","null","","","null","20","","","","","","","","","","","","","","","",""
"","ITI","","html-keyboard-response","143","303012","0.0-1.0-189.0","0","0","83866","","null","","","null","20","","","","","","","","","","","","","","","NaN",""
"","S1","","html-keyboard-response","144","303264","0.0-1.0-191.0","0","0","83866","","null","","","null","21","","","","","","","","","","","","","","","",""
"","ISI","","html-keyboard-response","145","304265","0.0-1.0-192.0","0","0","83866","","null","","","null","21","NaN","","","","","","","","","","","","","","",""
"","S2","","html-keyboard-response","146","304519","0.0-1.0-193.0","0","0","83866","","null","","","null","21","","NaN","","","","","","","","","","","","","",""
"","response","","html-keyboard-response","147","304957","0.0-1.0-194.0-0.0","0","0","83866","","437","","","75","21","","","1","21","training","adjacent","GF","7","6","M.jpg","R.jpg","0","0","1","",""
"","feedback","","html-keyboard-response","148","305959","0.0-1.0-195.0-0.0","0","0","83866","","null","","","null","21","","","","","","","","","","","","","","","",""
"","ITI","","html-keyboard-response","149","306961","0.0-1.0-198.0","0","0","83866","","null","","","null","21","","","","","","","","","","","","","","","NaN",""
"","S1","","html-keyboard-response","150","307213","0.0-1.0-200.0","0","0","83866","","null","","","null","22","","","","","","","","","","","","","","","",""
"","ISI","","html-keyboard-response","151","308214","0.0-1.0-201.0","0","0","83866","","175","","","68","22","d","","","","","","","","","","","","","","",""
"","S2","","html-keyboard-response","152","308467","0.0-1.0-202.0","0","0","83866","","null","","","null","22","","NaN","","","","","","","","","","","","","",""
"","response","","html-keyboard-response","153","308653","0.0-1.0-203.0-0.0","0","0","83866","","185","","","75","22","","","1","22","training","adjacent","GF","7","6","M.jpg","R.jpg","0","0","1","",""
"","feedback","","html-keyboard-response","154","309656","0.0-1.0-204.0-0.0","0","0","83866","","null","","","null","22","","","","","","","","","","","","","","","",""
"","ITI","","html-keyboard-response","155","310658","0.0-1.0-207.0","0","0","83866","","null","","","null","22","","","","","","","","","","","","","","","NaN",""
"","S1","","html-keyboard-response","156","310910","0.0-1.0-209.0","0","0","83866","","null","","","null","23","","","","","","","","","","","","","","","",""
"","ISI","","html-keyboard-response","157","311912","0.0-1.0-210.0","0","0","83866","","null","","","null","23","NaN","","","","","","","","","","","","","","",""
"","S2","","html-keyboard-response","158","312164","0.0-1.0-211.0","0","0","83866","","null","","","null","23","","NaN","","","","","","","","","","","","","",""
"","response","","html-keyboard-response","159","312485","0.0-1.0-212.0-0.0","0","0","83866","","319","","","75","23","","","1","23","training","adjacent","BC","2","3","N.jpg","L.jpg","0","1","0","",""
"","feedback","","html-keyboard-response","160","313497","0.0-1.0-213.0-0.0","0","0","83866","","null","","","null","23","","","","","","","","","","","","","","","",""
"","time_out","","html-keyboard-response","161","315499","0.0-1.0-215.0-0.0","0","0","83866","","null","","","null","23","","","","","","","","","","","","","","","",""
"","ITI","","html-keyboard-response","162","316500","0.0-1.0-216.0","0","0","83866","","null","","","null","23","","","","","","","","","","","","","","","NaN",""
"","S1","","html-keyboard-response","163","316752","0.0-1.0-218.0","0","0","83866","","null","","","null","24","","","","","","","","","","","","","","","",""
"","ISI","","html-keyboard-response","164","317755","0.0-1.0-219.0","0","0","83866","","null","","","null","24","NaN","","","","","","","","","","","","","","",""
"","S2","","html-keyboard-response","165","318014","0.0-1.0-220.0","0","0","83866","","null","","","null","24","","NaN","","","","","","","","","","","","","",""
"","response","","html-keyboard-response","166","318261","0.0-1.0-221.0-0.0","0","0","83866","","246","","","75","24","","","1","24","training","adjacent","GF","7","6","M.jpg","R.jpg","0","0","1","",""
"","feedback","","html-keyboard-response","167","319265","0.0-1.0-222.0-0.0","0","0","83866","","null","","","null","24","","","","","","","","","","","","","","","",""
"","ITI","","html-keyboard-response","168","320267","0.0-1.0-225.0","0","0","83866","","null","","","null","24","","","","","","","","","","","","","","","NaN",""
"","S1","","html-keyboard-response","169","320519","0.0-1.0-227.0","0","0","83866","","null","","","null","25","","","","","","","","","","","","","","","",""
"","ISI","","html-keyboard-response","170","321536","0.0-1.0-228.0","0","0","83866","","null","","","null","25","NaN","","","","","","","","","","","","","","",""
"","S2","","html-keyboard-response","171","321789","0.0-1.0-229.0","0","0","83866","","null","","","null","25","","NaN","","","","","","","","","","","","","",""
"","response","","html-keyboard-response","172","322021","0.0-1.0-230.0-0.0","0","0","83866","","231","","","68","25","","","1","25","training","adjacent","FE","6","5","R.jpg","Q.jpg","1","0","0","",""
"","feedback","","html-keyboard-response","173","323023","0.0-1.0-231.0-0.0","0","0","83866","","null","","","null","25","","","","","","","","","","","","","","","",""
"","time_out","","html-keyboard-response","174","325025","0.0-1.0-233.0-0.0","0","0","83866","","null","","","null","25","","","","","","","","","","","","","","","",""
"","ITI","","html-keyboard-response","175","326027","0.0-1.0-234.0","0","0","83866","","null","","","null","25","","","","","","","","","","","","","","","NaN",""
"","S1","","html-keyboard-response","176","326279","0.0-1.0-236.0","0","0","83866","","null","","","null","26","","","","","","","","","","","","","","","",""
"","ISI","","html-keyboard-response","177","327281","0.0-1.0-237.0","0","0","83866","","null","","","null","26","NaN","","","","","","","","","","","","","","",""
"","S2","","html-keyboard-response","178","327533","0.0-1.0-238.0","0","0","83866","","null","","","null","26","","NaN","","","","","","","","","","","","","",""
"","response","","html-keyboard-response","179","328109","0.0-1.0-239.0-0.0","0","0","83866","","575","","","68","26","","","1","26","training","adjacent","FG","6","7","R.jpg","M.jpg","1","1","1","",""
"","feedback","","html-keyboard-response","180","329112","0.0-1.0-240.0-0.0","0","0","83866","","null","","","null","26","","","","","","","","","","","","","","","",""
"","ITI","","html-keyboard-response","181","330114","0.0-1.0-243.0","0","0","83866","","null","","","null","26","","","","","","","","","","","","","","","NaN",""
"","S1","","html-keyboard-response","182","330366","0.0-1.0-245.0","0","0","83866","","null","","","null","27","","","","","","","","","","","","","","","",""
"","ISI","","html-keyboard-response","183","331368","0.0-1.0-246.0","0","0","83866","","null","","","null","27","NaN","","","","","","","","","","","","","","",""
"","S2","","html-keyboard-response","184","331620","0.0-1.0-247.0","0","0","83866","","null","","","null","27","","NaN","","","","","","","","","","","","","",""
"","response","","html-keyboard-response","185","331629","0.0-1.0-248.0-0.0","0","0","83866","","8","","","75","27","","","1","27","training","adjacent","CB","3","2","L.jpg","N.jpg","0","0","1","",""
"","feedback","","html-keyboard-response","186","332631","0.0-1.0-249.0-0.0","0","0","83866","","null","","","null","27","","","","","","","","","","","","","","","",""
"","ITI","","html-keyboard-response","187","333633","0.0-1.0-252.0","0","0","83866","","null","","","null","27","","","","","","","","","","","","","","","NaN",""
"","S1","","html-keyboard-response","188","333885","0.0-1.0-254.0","0","0","83866","","null","","","null","28","","","","","","","","","","","","","","","",""
"","ISI","","html-keyboard-response","189","334887","0.0-1.0-255.0","0","0","83866","","null","","","null","28","NaN","","","","","","","","","","","","","","",""
"","S2","","html-keyboard-response","190","335139","0.0-1.0-256.0","0","0","83866","","null","","","null","28","","NaN","","","","","","","","","","","","","",""
"","response","","html-keyboard-response","191","335261","0.0-1.0-257.0-0.0","0","0","83866","","120","","","75","28","","","1","28","training","adjacent","CB","3","2","L.jpg","N.jpg","0","0","1","",""
"","feedback","","html-keyboard-response","192","336266","0.0-1.0-258.0-0.0","0","0","83866","","null","","","null","28","","","","","","","","","","","","","","","",""
"","ITI","","html-keyboard-response","193","337281","0.0-1.0-261.0","0","0","83866","","null","","","null","28","","","","","","","","","","","","","","","NaN",""
"","S1","","html-keyboard-response","194","337533","0.0-1.0-263.0","0","0","83866","","null","","","null","29","","","","","","","","","","","","","","","",""
"","ISI","","html-keyboard-response","195","338535","0.0-1.0-264.0","0","0","83866","","null","","","null","29","NaN","","","","","","","","","","","","","","",""
"","S2","","html-keyboard-response","196","338787","0.0-1.0-265.0","0","0","83866","","null","","","null","29","","NaN","","","","","","","","","","","","","",""
"","response","","html-keyboard-response","197","339239","0.0-1.0-266.0-0.0","0","0","83866","","450","","","68","29","","","1","29","training","adjacent","CB","3","2","L.jpg","N.jpg","1","0","0","",""
"","feedback","","html-keyboard-response","198","340241","0.0-1.0-267.0-0.0","0","0","83866","","null","","","null","29","","","","","","","","","","","","","","","",""
"","time_out","","html-keyboard-response","199","342243","0.0-1.0-269.0-0.0","0","0","83866","","null","","","null","29","","","","","","","","","","","","","","","",""
"","ITI","","html-keyboard-response","200","343246","0.0-1.0-270.0","0","0","83866","","null","","","null","29","","","","","","","","","","","","","","","NaN",""
"","S1","","html-keyboard-response","201","343498","0.0-1.0-272.0","0","0","83866","","null","","","null","30","","","","","","","","","","","","","","","",""
"","ISI","","html-keyboard-response","202","344499","0.0-1.0-273.0","0","0","83866","","null","","","null","30","NaN","","","","","","","","","","","","","","",""
"","S2","","html-keyboard-response","203","344751","0.0-1.0-274.0","0","0","83866","","null","","","null","30","","NaN","","","","","","","","","","","","","",""
"","response","","html-keyboard-response","204","344983","0.0-1.0-275.0-0.0","0","0","83866","","230","","","75","30","","","1","30","training","adjacent","CB","3","2","L.jpg","N.jpg","0","0","1","",""
"","feedback","","html-keyboard-response","205","345985","0.0-1.0-276.0-0.0","0","0","83866","","null","","","null","30","","","","","","","","","","","","","","","",""
"","ITI","","html-keyboard-response","206","346987","0.0-1.0-279.0","0","0","83866","","null","","","null","30","","","","","","","","","","","","","","","NaN",""
"","S1","","html-keyboard-response","207","347239","0.0-1.0-281.0","0","0","83866","","null","","","null","31","","","","","","","","","","","","","","","",""
"","ISI","","html-keyboard-response","208","348241","0.0-1.0-282.0","0","0","83866","","null","","","null","31","NaN","","","","","","","","","","","","","","",""
"","S2","","html-keyboard-response","209","348493","0.0-1.0-283.0","0","0","83866","","null","","","null","31","","NaN","","","","","","","","","","","","","",""
"","response","","html-keyboard-response","210","348695","0.0-1.0-284.0-0.0","0","0","83866","","200","","","68","31","","","1","31","training","adjacent","ED","5","4","Q.jpg","P.jpg","1","0","0","",""
"","feedback","","html-keyboard-response","211","349697","0.0-1.0-285.0-0.0","0","0","83866","","null","","","null","31","","","","","","","","","","","","","","","",""
"","time_out","","html-keyboard-response","212","351699","0.0-1.0-287.0-0.0","0","0","83866","","null","","","null","31","","","","","","","","","","","","","","","",""
"","ITI","","html-keyboard-response","213","352701","0.0-1.0-288.0","0","0","83866","","null","","","null","31","","","","","","","","","","","","","","","NaN",""
"","S1","","html-keyboard-response","214","352952","0.0-1.0-290.0","0","0","83866","","null","","","null","32","","","","","","","","","","","","","","","",""
"","ISI","","html-keyboard-response","215","353954","0.0-1.0-291.0","0","0","83866","","null","","","null","32","NaN","","","","","","","","","","","","","","",""
"","S2","","html-keyboard-response","216","354192","0.0-1.0-292.0","0","0","83866","","236","","","75","32","","k","1","32","training","adjacent","ED","5","4","Q.jpg","P.jpg","0","0","1","",""
"","feedback","","html-keyboard-response","217","355194","0.0-1.0-294.0-0.0","0","0","83866","","null","","","null","32","","","","","","","","","","","","","","","",""
"","ITI","","html-keyboard-response","218","356196","0.0-1.0-297.0","0","0","83866","","null","","","null","32","","","","","","","","","","","","","","","NaN",""
"","S1","","html-keyboard-response","219","356448","0.0-1.0-299.0","0","0","83866","","null","","","null","33","","","","","","","","","","","","","","","",""
"","ISI","","html-keyboard-response","220","357450","0.0-1.0-300.0","0","0","83866","","null","","","null","33","NaN","","","","","","","","","","","","","","",""
"","S2","","html-keyboard-response","221","357695","0.0-1.0-301.0","0","0","83866","","244","","","75","33","","k","1","33","training","adjacent","EF","5","6","Q.jpg","R.jpg","0","1","0","",""
"","feedback","","html-keyboard-response","222","358699","0.0-1.0-303.0-0.0","0","0","83866","","null","","","null","33","","","","","","","","","","","","","","","",""
"","time_out","","html-keyboard-response","223","360700","0.0-1.0-305.0-0.0","0","0","83866","","null","","","null","33","","","","","","","","","","","","","","","",""
"","ITI","","html-keyboard-response","224","361702","0.0-1.0-306.0","0","0","83866","","null","","","null","33","","","","","","","","","","","","","","","NaN",""
"","S1","","html-keyboard-response","225","361954","0.0-1.0-308.0","0","0","83866","","null","","","null","34","","","","","","","","","","","","","","","",""
"","ISI","","html-keyboard-response","226","362956","0.0-1.0-309.0","0","0","83866","","null","","","null","34","NaN","","","","","","","","","","","","","","",""
"","S2","","html-keyboard-response","227","363159","0.0-1.0-310.0","0","0","83866","","201","","","75","34","","k","1","34","training","adjacent","GF","7","6","M.jpg","R.jpg","0","0","1","",""
"","feedback","","html-keyboard-response","228","364162","0.0-1.0-312.0-0.0","0","0","83866","","null","","","null","34","","","","","","","","","","","","","","","",""
"","ITI","","html-keyboard-response","229","365164","0.0-1.0-315.0","0","0","83866","","null","","","null","34","","","","","","","","","","","","","","","NaN",""
"","S1","","html-keyboard-response","230","365416","0.0-1.0-317.0","0","0","83866","","null","","","null","35","","","","","","","","","","","","","","","",""
"","ISI","","html-keyboard-response","231","366418","0.0-1.0-318.0","0","0","83866","","null","","","null","35","NaN","","","","","","","","","","","","","","",""
"","S2","","html-keyboard-response","232","366671","0.0-1.0-319.0","0","0","83866","","null","","","null","35","","NaN","","","","","","","","","","","","","",""
"","response","","html-keyboard-response","233","366711","0.0-1.0-320.0-0.0","0","0","83866","","39","","","75","35","","","1","35","training","adjacent","CD","3","4","L.jpg","P.jpg","0","1","0","",""
"","feedback","","html-keyboard-response","234","367713","0.0-1.0-321.0-0.0","0","0","83866","","null","","","null","35","","","","","","","","","","","","","","","",""
"","time_out","","html-keyboard-response","235","369716","0.0-1.0-323.0-0.0","0","0","83866","","null","","","null","35","","","","","","","","","","","","","","","",""
"","ITI","","html-keyboard-response","236","370718","0.0-1.0-324.0","0","0","83866","","null","","","null","35","","","","","","","","","","","","","","","NaN",""
"","S1","","html-keyboard-response","237","370985","0.0-1.0-326.0","0","0","83866","","null","","","null","36","","","","","","","","","","","","","","","",""
"","ISI","","html-keyboard-response","238","371987","0.0-1.0-327.0","0","0","83866","","null","","","null","36","NaN","","","","","","","","","","","","","","",""
"","S2","","html-keyboard-response","239","372242","0.0-1.0-328.0","0","0","83866","","null","","","null","36","","NaN","","","","","","","","","","","","","",""
"","response","","html-keyboard-response","240","372407","0.0-1.0-329.0-0.0","0","0","83866","","164","","","75","36","","","1","36","training","adjacent","BA","2","1","N.jpg","O.jpg","0","0","1","",""
"","feedback","","html-keyboard-response","241","373409","0.0-1.0-330.0-0.0","0","0","83866","","null","","","null","36","","","","","","","","","","","","","","","",""
"","ITI","","html-keyboard-response","242","374411","0.0-1.0-333.0","0","0","83866","","null","","","null","36","","","","","","","","","","","","","","","NaN",""
"","S1","","html-keyboard-response","243","374663","0.0-1.0-335.0","0","0","83866","","null","","","null","37","","","","","","","","","","","","","","","",""
"","ISI","","html-keyboard-response","244","375666","0.0-1.0-336.0","0","0","83866","","null","","","null","37","NaN","","","","","","","","","","","","","","",""
"","S2","","html-keyboard-response","245","375918","0.0-1.0-337.0","0","0","83866","","null","","","null","37","","NaN","","","","","","","","","","","","","",""
"","response","","html-keyboard-response","246","376559","0.0-1.0-338.0-0.0","0","0","83866","","640","","","68","37","","","1","37","training","adjacent","CD","3","4","L.jpg","P.jpg","1","1","1","",""
"","feedback","","html-keyboard-response","247","377562","0.0-1.0-339.0-0.0","0","0","83866","","null","","","null","37","","","","","","","","","","","","","","","",""
"","ITI","","html-keyboard-response","248","378564","0.0-1.0-342.0","0","0","83866","","null","","","null","37","","","","","","","","","","","","","","","NaN",""
"","S1","","html-keyboard-response","249","378816","0.0-1.0-344.0","0","0","83866","","null","","","null","38","","","","","","","","","","","","","","","",""
"","ISI","","html-keyboard-response","250","379818","0.0-1.0-345.0","0","0","83866","","null","","","null","38","NaN","","","","","","","","","","","","","","",""
"","S2","","html-keyboard-response","251","380070","0.0-1.0-346.0","0","0","83866","","null","","","null","38","","NaN","","","","","","","","","","","","","",""
"","response","","html-keyboard-response","252","380423","0.0-1.0-347.0-0.0","0","0","83866","","351","","","68","38","","","1","38","training","adjacent","FE","6","5","R.jpg","Q.jpg","1","0","0","",""
"","feedback","","html-keyboard-response","253","381425","0.0-1.0-348.0-0.0","0","0","83866","","null","","","null","38","","","","","","","","","","","","","","","",""
"","time_out","","html-keyboard-response","254","383428","0.0-1.0-350.0-0.0","0","0","83866","","null","","","null","38","","","","","","","","","","","","","","","",""
"","ITI","","html-keyboard-response","255","384431","0.0-1.0-351.0","0","0","83866","","null","","","null","38","","","","","","","","","","","","","","","NaN",""
"","S1","","html-keyboard-response","256","384683","0.0-1.0-353.0","0","0","83866","","null","","","null","39","","","","","","","","","","","","","","","",""
"","ISI","","html-keyboard-response","257","385685","0.0-1.0-354.0","0","0","83866","","null","","","null","39","NaN","","","","","","","","","","","","","","",""
"","S2","","html-keyboard-response","258","385937","0.0-1.0-355.0","0","0","83866","","null","","","null","39","","NaN","","","","","","","","","","","","","",""
"","response","","html-keyboard-response","259","386991","0.0-1.0-356.0-0.0","0","0","83866","","1052","","","68","39","","","1","39","training","adjacent","DC","4","3","P.jpg","L.jpg","1","0","0","",""
"","feedback","","html-keyboard-response","260","387993","0.0-1.0-357.0-0.0","0","0","83866","","null","","","null","39","","","","","","","","","","","","","","","",""
"","time_out","","html-keyboard-response","261","389995","0.0-1.0-359.0-0.0","0","0","83866","","null","","","null","39","","","","","","","","","","","","","","","",""
"","ITI","","html-keyboard-response","262","390997","0.0-1.0-360.0","0","0","83866","","null","","","null","39","","","","","","","","","","","","","","","NaN",""
"","S1","","html-keyboard-response","263","391249","0.0-1.0-362.0","0","0","83866","","null","","","null","40","","","","","","","","","","","","","","","",""
"","ISI","","html-keyboard-response","264","392252","0.0-1.0-363.0","0","0","83866","","null","","","null","40","NaN","","","","","","","","","","","","","","",""
"","S2","","html-keyboard-response","265","392504","0.0-1.0-364.0","0","0","83866","","null","","","null","40","","NaN","","","","","","","","","","","","","",""
"","response","","html-keyboard-response","266","392520","0.0-1.0-365.0-0.0","0","0","83866","","15","","","75","40","","","1","40","training","adjacent","ED","5","4","Q.jpg","P.jpg","0","0","1","",""
"","feedback","","html-keyboard-response","267","393522","0.0-1.0-366.0-0.0","0","0","83866","","null","","","null","40","","","","","","","","","","","","","","","",""
"","ITI","","html-keyboard-response","268","394524","0.0-1.0-369.0","0","0","83866","","null","","","null","40","","","","","","","","","","","","","","","NaN",""
"","S1","","html-keyboard-response","269","394775","0.0-1.0-371.0","0","0","83866","","null","","","null","41","","","","","","","","","","","","","","","",""
"","ISI","","html-keyboard-response","270","395777","0.0-1.0-372.0","0","0","83866","","null","","","null","41","NaN","","","","","","","","","","","","","","",""
"","S2","","html-keyboard-response","271","396029","0.0-1.0-373.0","0","0","83866","","null","","","null","41","","NaN","","","","","","","","","","","","","",""
"","response","","html-keyboard-response","272","396087","0.0-1.0-374.0-0.0","0","0","83866","","57","","","68","41","","","1","41","training","adjacent","FE","6","5","R.jpg","Q.jpg","1","0","0","",""
"","feedback","","html-keyboard-response","273","397089","0.0-1.0-375.0-0.0","0","0","83866","","null","","","null","41","","","","","","","","","","","","","","","",""
"","time_out","","html-keyboard-response","274","399092","0.0-1.0-377.0-0.0","0","0","83866","","null","","","null","41","","","","","","","","","","","","","","","",""
"","ITI","","html-keyboard-response","275","400095","0.0-1.0-378.0","0","0","83866","","null","","","null","41","","","","","","","","","","","","","","","NaN",""
"","S1","","html-keyboard-response","276","400348","0.0-1.0-380.0","0","0","83866","","null","","","null","42","","","","","","","","","","","","","","","",""
"","ISI","","html-keyboard-response","277","401351","0.0-1.0-381.0","0","0","83866","","null","","","null","42","NaN","","","","","","","","","","","","","","",""
"","S2","","html-keyboard-response","278","401602","0.0-1.0-382.0","0","0","83866","","null","","","null","42","","NaN","","","","","","","","","","","","","",""
"","response","","html-keyboard-response","279","401688","0.0-1.0-383.0-0.0","0","0","83866","","84","","","68","42","","","1","42","training","adjacent","AB","1","2","O.jpg","N.jpg","1","1","1","",""
"","feedback","","html-keyboard-response","280","402690","0.0-1.0-384.0-0.0","0","0","83866","","null","","","null","42","","","","","","","","","","","","","","","",""
"","ITI","","html-keyboard-response","281","403699","0.0-1.0-387.0","0","0","83866","","null","","","null","42","","","","","","","","","","","","","","","NaN",""
"","S1","","html-keyboard-response","282","403951","0.0-1.0-389.0","0","0","83866","","null","","","null","43","","","","","","","","","","","","","","","",""
"","ISI","","html-keyboard-response","283","404954","0.0-1.0-390.0","0","0","83866","","null","","","null","43","NaN","","","","","","","","","","","","","","",""
"","S2","","html-keyboard-response","284","405206","0.0-1.0-391.0","0","0","83866","","null","","","null","43","","NaN","","","","","","","","","","","","","",""
"","response","","html-keyboard-response","285","405216","0.0-1.0-392.0-0.0","0","0","83866","","8","","","75","43","","","1","43","training","adjacent","CD","3","4","L.jpg","P.jpg","0","1","0","",""
"","feedback","","html-keyboard-response","286","406218","0.0-1.0-393.0-0.0","0","0","83866","","null","","","null","43","","","","","","","","","","","","","","","",""
"","time_out","","html-keyboard-response","287","408221","0.0-1.0-395.0-0.0","0","0","83866","","null","","","null","43","","","","","","","","","","","","","","","",""
"","ITI","","html-keyboard-response","288","409223","0.0-1.0-396.0","0","0","83866","","null","","","null","43","","","","","","","","","","","","","","","NaN",""
"","S1","","html-keyboard-response","289","409475","0.0-1.0-398.0","0","0","83866","","null","","","null","44","","","","","","","","","","","","","","","",""
"","ISI","","html-keyboard-response","290","410477","0.0-1.0-399.0","0","0","83866","","null","","","null","44","NaN","","","","","","","","","","","","","","",""
"","S2","","html-keyboard-response","291","410730","0.0-1.0-400.0","0","0","83866","","null","","","null","44","","NaN","","","","","","","","","","","","","",""
"","response","","html-keyboard-response","292","411185","0.0-1.0-401.0-0.0","0","0","83866","","454","","","68","44","","","1","44","training","adjacent","DC","4","3","P.jpg","L.jpg","1","0","0","",""
"","feedback","","html-keyboard-response","293","412187","0.0-1.0-402.0-0.0","0","0","83866","","null","","","null","44","","","","","","","","","","","","","","","",""
"","time_out","","html-keyboard-response","294","414189","0.0-1.0-404.0-0.0","0","0","83866","","null","","","null","44","","","","","","","","","","","","","","","",""
"","ITI","","html-keyboard-response","295","415192","0.0-1.0-405.0","0","0","83866","","null","","","null","44","","","","","","","","","","","","","","","NaN",""
"","S1","","html-keyboard-response","296","415444","0.0-1.0-407.0","0","0","83866","","null","","","null","45","","","","","","","","","","","","","","","",""
"","ISI","","html-keyboard-response","297","416446","0.0-1.0-408.0","0","0","83866","","null","","","null","45","NaN","","","","","","","","","","","","","","",""
"","S2","","html-keyboard-response","298","416699","0.0-1.0-409.0","0","0","83866","","null","","","null","45","","NaN","","","","","","","","","","","","","",""
"","response","","html-keyboard-response","299","417224","0.0-1.0-410.0-0.0","0","0","83866","","524","","","68","45","","","1","45","training","adjacent","FG","6","7","R.jpg","M.jpg","1","1","1","",""
"","feedback","","html-keyboard-response","300","418226","0.0-1.0-411.0-0.0","0","0","83866","","null","","","null","45","","","","","","","","","","","","","","","",""
"","ITI","","html-keyboard-response","301","419229","0.0-1.0-414.0","0","0","83866","","null","","","null","45","","","","","","","","","","","","","","","NaN",""
"","S1","","html-keyboard-response","302","419482","0.0-1.0-416.0","0","0","83866","","null","","","null","46","","","","","","","","","","","","","","","",""
"","ISI","","html-keyboard-response","303","420484","0.0-1.0-417.0","0","0","83866","","null","","","null","46","NaN","","","","","","","","","","","","","","",""
"","S2","","html-keyboard-response","304","420584","0.0-1.0-418.0","0","0","83866","","99","","","75","46","","k","1","46","training","adjacent","BA","2","1","N.jpg","O.jpg","0","0","1","",""
"","feedback","","html-keyboard-response","305","421587","0.0-1.0-420.0-0.0","0","0","83866","","null","","","null","46","","","","","","","","","","","","","","","",""
"","ITI","","html-keyboard-response","306","422590","0.0-1.0-423.0","0","0","83866","","null","","","null","46","","","","","","","","","","","","","","","NaN",""
"","S1","","html-keyboard-response","307","422842","0.0-1.0-425.0","0","0","83866","","null","","","null","47","","","","","","","","","","","","","","","",""
"","ISI","","html-keyboard-response","308","423844","0.0-1.0-426.0","0","0","83866","","null","","","null","47","NaN","","","","","","","","","","","","","","",""
"","S2","","html-keyboard-response","309","424096","0.0-1.0-427.0","0","0","83866","","null","","","null","47","","NaN","","","","","","","","","","","","","",""
"","response","","html-keyboard-response","310","424256","0.0-1.0-428.0-0.0","0","0","83866","","158","","","75","47","","","1","47","training","adjacent","BA","2","1","N.jpg","O.jpg","0","0","1","",""
"","feedback","","html-keyboard-response","311","425259","0.0-1.0-429.0-0.0","0","0","83866","","null","","","null","47","","","","","","","","","","","","","","","",""
"","ITI","","html-keyboard-response","312","426262","0.0-1.0-432.0","0","0","83866","","null","","","null","47","","","","","","","","","","","","","","","NaN",""
"","block_over","","html-keyboard-response","313","436520","0.0-1.0-433.0-0.0","0","0","83866","","10257","","","32","47","","","","","","","","","","","","","","","",""
"","S1","","html-keyboard-response","314","436772","0.0-1.0-434.0","0","0","83866","","null","","","null","48","","","","","","","","","","","","","","","",""
"","ISI","","html-keyboard-response","315","437773","0.0-1.0-435.0","0","0","83866","","null","","","null","48","NaN","","","","","","","","","","","","","","",""
"","S2","","html-keyboard-response","316","438026","0.0-1.0-436.0","0","0","83866","","null","","","null","48","","NaN","","","","","","","","","","","","","",""
"","response","","html-keyboard-response","317","439064","0.0-1.0-437.0-0.0","0","0","83866","","1037","","","75","48","","","2","48","training","adjacent","EF","5","6","Q.jpg","R.jpg","0","1","0","",""
"","feedback","","html-keyboard-response","318","440066","0.0-1.0-438.0-0.0","0","0","83866","","null","","","null","48","","","","","","","","","","","","","","","",""
"","time_out","","html-keyboard-response","319","442068","0.0-1.0-440.0-0.0","0","0","83866","","null","","","null","48","","","","","","","","","","","","","","","",""
"","ITI","","html-keyboard-response","320","443070","0.0-1.0-441.0","0","0","83866","","null","","","null","48","","","","","","","","","","","","","","","NaN",""
"","S1","","html-keyboard-response","321","443323","0.0-1.0-443.0","0","0","83866","","null","","","null","49","","","","","","","","","","","","","","","",""
"","ISI","","html-keyboard-response","322","444324","0.0-1.0-444.0","0","0","83866","","null","","","null","49","NaN","","","","","","","","","","","","","","",""
"","S2","","html-keyboard-response","323","444577","0.0-1.0-445.0","0","0","83866","","null","","","null","49","","NaN","","","","","","","","","","","","","",""
"","response","","html-keyboard-response","324","444720","0.0-1.0-446.0-0.0","0","0","83866","","142","","","68","49","","","2","49","training","adjacent","FG","6","7","R.jpg","M.jpg","1","1","1","",""
"","feedback","","html-keyboard-response","325","445722","0.0-1.0-447.0-0.0","0","0","83866","","null","","","null","49","","","","","","","","","","","","","","","",""
"","ITI","","html-keyboard-response","326","446724","0.0-1.0-450.0","0","0","83866","","null","","","null","49","","","","","","","","","","","","","","","NaN",""
"","S1","","html-keyboard-response","327","446976","0.0-1.0-452.0","0","0","83866","","null","","","null","50","","","","","","","","","","","","","","","",""
"","ISI","","html-keyboard-response","328","447978","0.0-1.0-453.0","0","0","83866","","null","","","null","50","NaN","","","","","","","","","","","","","","",""
"","S2","","html-keyboard-response","329","448246","0.0-1.0-454.0","0","0","83866","","null","","","null","50","","NaN","","","","","","","","","","","","","",""
"","response","","html-keyboard-response","330","448928","0.0-1.0-455.0-0.0","0","0","83866","","680","","","68","50","","","2","50","training","adjacent","FE","6","5","R.jpg","Q.jpg","1","0","0","",""
"","feedback","","html-keyboard-response","331","449931","0.0-1.0-456.0-0.0","0","0","83866","","null","","","null","50","","","","","","","","","","","","","","","",""
"","time_out","","html-keyboard-response","332","451933","0.0-1.0-458.0-0.0","0","0","83866","","null","","","null","50","","","","","","","","","","","","","","","",""
"","ITI","","html-keyboard-response","333","452935","0.0-1.0-459.0","0","0","83866","","null","","","null","50","","","","","","","","","","","","","","","NaN",""
"","S1","","html-keyboard-response","334","453187","0.0-1.0-461.0","0","0","83866","","null","","","null","51","","","","","","","","","","","","","","","",""
"","ISI","","html-keyboard-response","335","454190","0.0-1.0-462.0","0","0","83866","","null","","","null","51","NaN","","","","","","","","","","","","","","",""
"","S2","","html-keyboard-response","336","454442","0.0-1.0-463.0","0","0","83866","","null","","","null","51","","NaN","","","","","","","","","","","","","",""
"","response","","html-keyboard-response","337","454504","0.0-1.0-464.0-0.0","0","0","83866","","61","","","75","51","","","2","51","training","adjacent","ED","5","4","Q.jpg","P.jpg","0","0","1","",""
"","feedback","","html-keyboard-response","338","455506","0.0-1.0-465.0-0.0","0","0","83866","","null","","","null","51","","","","","","","","","","","","","","","",""
"","ITI","","html-keyboard-response","339","456508","0.0-1.0-468.0","0","0","83866","","null","","","null","51","","","","","","","","","","","","","","","NaN",""
"","S1","","html-keyboard-response","340","456760","0.0-1.0-470.0","0","0","83866","","null","","","null","52","","","","","","","","","","","","","","","",""
"","ISI","","html-keyboard-response","341","457762","0.0-1.0-471.0","0","0","83866","","null","","","null","52","NaN","","","","","","","","","","","","","","",""
"","S2","","html-keyboard-response","342","458014","0.0-1.0-472.0","0","0","83866","","null","","","null","52","","NaN","","","","","","","","","","","","","",""
"","response","","html-keyboard-response","343","459097","0.0-1.0-473.0-0.0","0","0","83866","","1082","","","68","52","","","2","52","training","adjacent","FG","6","7","R.jpg","M.jpg","1","1","1","",""
"","feedback","","html-keyboard-response","344","460099","0.0-1.0-474.0-0.0","0","0","83866","","null","","","null","52","","","","","","","","","","","","","","","",""
"","ITI","","html-keyboard-response","345","461102","0.0-1.0-477.0","0","0","83866","","null","","","null","52","","","","","","","","","","","","","","","NaN",""
"","S1","","html-keyboard-response","346","461354","0.0-1.0-479.0","0","0","83866","","null","","","null","53","","","","","","","","","","","","","","","",""
"","ISI","","html-keyboard-response","347","462356","0.0-1.0-480.0","0","0","83866","","null","","","null","53","NaN","","","","","","","","","","","","","","",""
"","S2","","html-keyboard-response","348","462609","0.0-1.0-481.0","0","0","83866","","null","","","null","53","","NaN","","","","","","","","","","","","","",""
"","response","","html-keyboard-response","349","463528","0.0-1.0-482.0-0.0","0","0","83866","","918","","","75","53","","","2","53","training","adjacent","BA","2","1","N.jpg","O.jpg","0","0","1","",""
"","feedback","","html-keyboard-response","350","464530","0.0-1.0-483.0-0.0","0","0","83866","","null","","","null","53","","","","","","","","","","","","","","","",""
"","ITI","","html-keyboard-response","351","465532","0.0-1.0-486.0","0","0","83866","","null","","","null","53","","","","","","","","","","","","","","","NaN",""
"","S1","","html-keyboard-response","352","465785","0.0-1.0-488.0","0","0","83866","","null","","","null","54","","","","","","","","","","","","","","","",""
"","ISI","","html-keyboard-response","353","466786","0.0-1.0-489.0","0","0","83866","","null","","","null","54","NaN","","","","","","","","","","","","","","",""
"","S2","","html-keyboard-response","354","467038","0.0-1.0-490.0","0","0","83866","","null","","","null","54","","NaN","","","","","","","","","","","","","",""
"","response","","html-keyboard-response","355","467512","0.0-1.0-491.0-0.0","0","0","83866","","473","","","75","54","","","2","54","training","adjacent","FE","6","5","R.jpg","Q.jpg","0","0","1","",""
"","feedback","","html-keyboard-response","356","468515","0.0-1.0-492.0-0.0","0","0","83866","","null","","","null","54","","","","","","","","","","","","","","","",""
"","ITI","","html-keyboard-response","357","469517","0.0-1.0-495.0","0","0","83866","","null","","","null","54","","","","","","","","","","","","","","","NaN",""
"","S1","","html-keyboard-response","358","469769","0.0-1.0-497.0","0","0","83866","","null","","","null","55","","","","","","","","","","","","","","","",""
"","ISI","","html-keyboard-response","359","470772","0.0-1.0-498.0","0","0","83866","","null","","","null","55","NaN","","","","","","","","","","","","","","",""
"","S2","","html-keyboard-response","360","471025","0.0-1.0-499.0","0","0","83866","","null","","","null","55","","NaN","","","","","","","","","","","","","",""
"","response","","html-keyboard-response","361","471368","0.0-1.0-500.0-0.0","0","0","83866","","342","","","75","55","","","2","55","training","adjacent","CB","3","2","L.jpg","N.jpg","0","0","1","",""
"","feedback","","html-keyboard-response","362","472371","0.0-1.0-501.0-0.0","0","0","83866","","null","","","null","55","","","","","","","","","","","","","","","",""
"","ITI","","html-keyboard-response","363","473373","0.0-1.0-504.0","0","0","83866","","null","","","null","55","","","","","","","","","","","","","","","NaN",""
"","S1","","html-keyboard-response","364","473625","0.0-1.0-506.0","0","0","83866","","null","","","null","56","","","","","","","","","","","","","","","",""
"","ISI","","html-keyboard-response","365","474628","0.0-1.0-507.0","0","0","83866","","null","","","null","56","NaN","","","","","","","","","","","","","","",""
"","S2","","html-keyboard-response","366","474880","0.0-1.0-508.0","0","0","83866","","null","","","null","56","","NaN","","","","","","","","","","","","","",""
"","response","","html-keyboard-response","367","475072","0.0-1.0-509.0-0.0","0","0","83866","","190","","","75","56","","","2","56","training","adjacent","CB","3","2","L.jpg","N.jpg","0","0","1","",""
"","feedback","","html-keyboard-response","368","476074","0.0-1.0-510.0-0.0","0","0","83866","","null","","","null","56","","","","","","","","","","","","","","","",""
"","ITI","","html-keyboard-response","369","477076","0.0-1.0-513.0","0","0","83866","","null","","","null","56","","","","","","","","","","","","","","","NaN",""
"","S1","","html-keyboard-response","370","477329","0.0-1.0-515.0","0","0","83866","","null","","","null","57","","","","","","","","","","","","","","","",""
"","ISI","","html-keyboard-response","371","478331","0.0-1.0-516.0","0","0","83866","","null","","","null","57","NaN","","","","","","","","","","","","","","",""
"","S2","","html-keyboard-response","372","478583","0.0-1.0-517.0","0","0","83866","","null","","","null","57","","NaN","","","","","","","","","","","","","",""
"","response","","html-keyboard-response","373","478952","0.0-1.0-518.0-0.0","0","0","83866","","368","","","68","57","","","2","57","training","adjacent","BC","2","3","N.jpg","L.jpg","1","1","1","",""
"","feedback","","html-keyboard-response","374","479954","0.0-1.0-519.0-0.0","0","0","83866","","null","","","null","57","","","","","","","","","","","","","","","",""
"","ITI","","html-keyboard-response","375","480957","0.0-1.0-522.0","0","0","83866","","null","","","null","57","","","","","","","","","","","","","","","NaN",""
"","S1","","html-keyboard-response","376","481209","0.0-1.0-524.0","0","0","83866","","null","","","null","58","","","","","","","","","","","","","","","",""
"","ISI","","html-keyboard-response","377","482212","0.0-1.0-525.0","0","0","83866","","null","","","null","58","NaN","","","","","","","","","","","","","","",""
"","S2","","html-keyboard-response","378","482464","0.0-1.0-526.0","0","0","83866","","null","","","null","58","","NaN","","","","","","","","","","","","","",""
"","response","","html-keyboard-response","379","482856","0.0-1.0-527.0-0.0","0","0","83866","","391","","","75","58","","","2","58","training","adjacent","GF","7","6","M.jpg","R.jpg","0","0","1","",""
"","feedback","","html-keyboard-response","380","483872","0.0-1.0-528.0-0.0","0","0","83866","","null","","","null","58","","","","","","","","","","","","","","","",""
"","ITI","","html-keyboard-response","381","484875","0.0-1.0-531.0","0","0","83866","","null","","","null","58","","","","","","","","","","","","","","","NaN",""
"","S1","","html-keyboard-response","382","485127","0.0-1.0-533.0","0","0","83866","","null","","","null","59","","","","","","","","","","","","","","","",""
"","ISI","","html-keyboard-response","383","486129","0.0-1.0-534.0","0","0","83866","","null","","","null","59","NaN","","","","","","","","","","","","","","",""
"","S2","","html-keyboard-response","384","486382","0.0-1.0-535.0","0","0","83866","","null","","","null","59","","NaN","","","","","","","","","","","","","",""
"","response","","html-keyboard-response","385","486976","0.0-1.0-536.0-0.0","0","0","83866","","593","","","75","59","","","2","59","training","adjacent","EF","5","6","Q.jpg","R.jpg","0","1","0","",""
"","feedback","","html-keyboard-response","386","487978","0.0-1.0-537.0-0.0","0","0","83866","","null","","","null","59","","","","","","","","","","","","","","","",""
"","time_out","","html-keyboard-response","387","489980","0.0-1.0-539.0-0.0","0","0","83866","","null","","","null","59","","","","","","","","","","","","","","","",""
"","ITI","","html-keyboard-response","388","490983","0.0-1.0-540.0","0","0","83866","","null","","","null","59","","","","","","","","","","","","","","","NaN",""
"","S1","","html-keyboard-response","389","491235","0.0-1.0-542.0","0","0","83866","","null","","","null","60","","","","","","","","","","","","","","","",""
"","ISI","","html-keyboard-response","390","492237","0.0-1.0-543.0","0","0","83866","","null","","","null","60","NaN","","","","","","","","","","","","","","",""
"","S2","","html-keyboard-response","391","492490","0.0-1.0-544.0","0","0","83866","","null","","","null","60","","NaN","","","","","","","","","","","","","",""
"","response","","html-keyboard-response","392","492872","0.0-1.0-545.0-0.0","0","0","83866","","381","","","75","60","","","2","60","training","adjacent","AB","1","2","O.jpg","N.jpg","0","1","0","",""
"","feedback","","html-keyboard-response","393","493875","0.0-1.0-546.0-0.0","0","0","83866","","null","","","null","60","","","","","","","","","","","","","","","",""
"","time_out","","html-keyboard-response","394","495877","0.0-1.0-548.0-0.0","0","0","83866","","null","","","null","60","","","","","","","","","","","","","","","",""
"","ITI","","html-keyboard-response","395","496879","0.0-1.0-549.0","0","0","83866","","null","","","null","60","","","","","","","","","","","","","","","NaN",""
"","S1","","html-keyboard-response","396","497134","0.0-1.0-551.0","0","0","83866","","null","","","null","61","","","","","","","","","","","","","","","",""
"","ISI","","html-keyboard-response","397","498136","0.0-1.0-552.0","0","0","83866","","null","","","null","61","NaN","","","","","","","","","","","","","","",""
"","S2","","html-keyboard-response","398","498388","0.0-1.0-553.0","0","0","83866","","null","","","null","61","","NaN","","","","","","","","","","","","","",""
"","response","","html-keyboard-response","399","498728","0.0-1.0-554.0-0.0","0","0","83866","","338","","","68","61","","","2","61","training","adjacent","CD","3","4","L.jpg","P.jpg","1","1","1","",""
"","feedback","","html-keyboard-response","400","499731","0.0-1.0-555.0-0.0","0","0","83866","","null","","","null","61","","","","","","","","","","","","","","","",""
"","ITI","","html-keyboard-response","401","500733","0.0-1.0-558.0","0","0","83866","","null","","","null","61","","","","","","","","","","","","","","","NaN",""
"","S1","","html-keyboard-response","402","500985","0.0-1.0-560.0","0","0","83866","","null","","","null","62","","","","","","","","","","","","","","","",""
"","ISI","","html-keyboard-response","403","501987","0.0-1.0-561.0","0","0","83866","","null","","","null","62","NaN","","","","","","","","","","","","","","",""
"","S2","","html-keyboard-response","404","502239","0.0-1.0-562.0","0","0","83866","","null","","","null","62","","NaN","","","","","","","","","","","","","",""
"","response","","html-keyboard-response","405","502464","0.0-1.0-563.0-0.0","0","0","83866","","224","","","75","62","","","2","62","training","adjacent","BC","2","3","N.jpg","L.jpg","0","1","0","",""
"","feedback","","html-keyboard-response","406","503467","0.0-1.0-564.0-0.0","0","0","83866","","null","","","null","62","","","","","","","","","","","","","","","",""
"","time_out","","html-keyboard-response","407","505469","0.0-1.0-566.0-0.0","0","0","83866","","null","","","null","62","","","","","","","","","","","","","","","",""
"","ITI","","html-keyboard-response","408","506470","0.0-1.0-567.0","0","0","83866","","null","","","null","62","","","","","","","","","","","","","","","NaN",""
"","S1","","html-keyboard-response","409","506723","0.0-1.0-569.0","0","0","83866","","null","","","null","63","","","","","","","","","","","","","","","",""
"","ISI","","html-keyboard-response","410","507726","0.0-1.0-570.0","0","0","83866","","69","","","68","63","d","","","","","","","","","","","","","","",""
"","S2","","html-keyboard-response","411","507978","0.0-1.0-571.0","0","0","83866","","null","","","null","63","","NaN","","","","","","","","","","","","","",""
"","response","","html-keyboard-response","412","508208","0.0-1.0-572.0-0.0","0","0","83866","","229","","","75","63","","","2","63","training","adjacent","GF","7","6","M.jpg","R.jpg","0","0","1","",""
"","feedback","","html-keyboard-response","413","509210","0.0-1.0-573.0-0.0","0","0","83866","","null","","","null","63","","","","","","","","","","","","","","","",""
"","ITI","","html-keyboard-response","414","510213","0.0-1.0-576.0","0","0","83866","","null","","","null","63","","","","","","","","","","","","","","","NaN",""
"","S1","","html-keyboard-response","415","510465","0.0-1.0-578.0","0","0","83866","","null","","","null","64","","","","","","","","","","","","","","","",""
"","ISI","","html-keyboard-response","416","511468","0.0-1.0-579.0","0","0","83866","","null","","","null","64","NaN","","","","","","","","","","","","","","",""
"","S2","","html-keyboard-response","417","511721","0.0-1.0-580.0","0","0","83866","","null","","","null","64","","NaN","","","","","","","","","","","","","",""
"","response","","html-keyboard-response","418","511888","0.0-1.0-581.0-0.0","0","0","83866","","166","","","75","64","","","2","64","training","adjacent","ED","5","4","Q.jpg","P.jpg","0","0","1","",""
"","feedback","","html-keyboard-response","419","512892","0.0-1.0-582.0-0.0","0","0","83866","","null","","","null","64","","","","","","","","","","","","","","","",""
"","ITI","","html-keyboard-response","420","513894","0.0-1.0-585.0","0","0","83866","","null","","","null","64","","","","","","","","","","","","","","","NaN",""
"","S1","","html-keyboard-response","421","514146","0.0-1.0-587.0","0","0","83866","","null","","","null","65","","","","","","","","","","","","","","","",""
"","ISI","","html-keyboard-response","422","515149","0.0-1.0-588.0","0","0","83866","","null","","","null","65","NaN","","","","","","","","","","","","","","",""
"","S2","","html-keyboard-response","423","515402","0.0-1.0-589.0","0","0","83866","","null","","","null","65","","NaN","","","","","","","","","","","","","",""
"","response","","html-keyboard-response","424","515712","0.0-1.0-590.0-0.0","0","0","83866","","309","","","75","65","","","2","65","training","adjacent","AB","1","2","O.jpg","N.jpg","0","1","0","",""
"","feedback","","html-keyboard-response","425","516715","0.0-1.0-591.0-0.0","0","0","83866","","null","","","null","65","","","","","","","","","","","","","","","",""
"","time_out","","html-keyboard-response","426","518718","0.0-1.0-593.0-0.0","0","0","83866","","null","","","null","65","","","","","","","","","","","","","","","",""
"","ITI","","html-keyboard-response","427","519720","0.0-1.0-594.0","0","0","83866","","null","","","null","65","","","","","","","","","","","","","","","NaN",""
"","S1","","html-keyboard-response","428","519973","0.0-1.0-596.0","0","0","83866","","null","","","null","66","","","","","","","","","","","","","","","",""
"","ISI","","html-keyboard-response","429","520975","0.0-1.0-597.0","0","0","83866","","null","","","null","66","NaN","","","","","","","","","","","","","","",""
"","S2","","html-keyboard-response","430","521228","0.0-1.0-598.0","0","0","83866","","null","","","null","66","","NaN","","","","","","","","","","","","","",""
"","response","","html-keyboard-response","431","521649","0.0-1.0-599.0-0.0","0","0","83866","","420","","","68","66","","","2","66","training","adjacent","DE","4","5","P.jpg","Q.jpg","1","1","1","",""
"","feedback","","html-keyboard-response","432","522651","0.0-1.0-600.0-0.0","0","0","83866","","null","","","null","66","","","","","","","","","","","","","","","",""
"","ITI","","html-keyboard-response","433","523654","0.0-1.0-603.0","0","0","83866","","null","","","null","66","","","","","","","","","","","","","","","NaN",""
"","S1","","html-keyboard-response","434","523905","0.0-1.0-605.0","0","0","83866","","null","","","null","67","","","","","","","","","","","","","","","",""
"","ISI","","html-keyboard-response","435","524908","0.0-1.0-606.0","0","0","83866","","null","","","null","67","NaN","","","","","","","","","","","","","","",""
"","S2","","html-keyboard-response","436","525160","0.0-1.0-607.0","0","0","83866","","null","","","null","67","","NaN","","","","","","","","","","","","","",""
"","response","","html-keyboard-response","437","525681","0.0-1.0-608.0-0.0","0","0","83866","","520","","","75","67","","","2","67","training","adjacent","AB","1","2","O.jpg","N.jpg","0","1","0","",""
"","feedback","","html-keyboard-response","438","526684","0.0-1.0-609.0-0.0","0","0","83866","","null","","","null","67","","","","","","","","","","","","","","","",""
"","time_out","","html-keyboard-response","439","528686","0.0-1.0-611.0-0.0","0","0","83866","","null","","","null","67","","","","","","","","","","","","","","","",""
"","ITI","","html-keyboard-response","440","529687","0.0-1.0-612.0","0","0","83866","","null","","","null","67","","","","","","","","","","","","","","","NaN",""
"","S1","","html-keyboard-response","441","529939","0.0-1.0-614.0","0","0","83866","","null","","","null","68","","","","","","","","","","","","","","","",""
"","ISI","","html-keyboard-response","442","530941","0.0-1.0-615.0","0","0","83866","","null","","","null","68","NaN","","","","","","","","","","","","","","",""
"","S2","","html-keyboard-response","443","531193","0.0-1.0-616.0","0","0","83866","","null","","","null","68","","NaN","","","","","","","","","","","","","",""
"","response","","html-keyboard-response","444","531705","0.0-1.0-617.0-0.0","0","0","83866","","510","","","75","68","","","2","68","training","adjacent","ED","5","4","Q.jpg","P.jpg","0","0","1","",""
"","feedback","","html-keyboard-response","445","532708","0.0-1.0-618.0-0.0","0","0","83866","","null","","","null","68","","","","","","","","","","","","","","","",""
"","ITI","","html-keyboard-response","446","533711","0.0-1.0-621.0","0","0","83866","","null","","","null","68","","","","","","","","","","","","","","","NaN",""
"","S1","","html-keyboard-response","447","533962","0.0-1.0-623.0","0","0","83866","","null","","","null","69","","","","","","","","","","","","","","","",""
"","ISI","","html-keyboard-response","448","534964","0.0-1.0-624.0","0","0","83866","","null","","","null","69","NaN","","","","","","","","","","","","","","",""
"","S2","","html-keyboard-response","449","535216","0.0-1.0-625.0","0","0","83866","","null","","","null","69","","NaN","","","","","","","","","","","","","",""
"","response","","html-keyboard-response","450","535313","0.0-1.0-626.0-0.0","0","0","83866","","96","","","75","69","","","2","69","training","adjacent","GF","7","6","M.jpg","R.jpg","0","0","1","",""
"","feedback","","html-keyboard-response","451","536315","0.0-1.0-627.0-0.0","0","0","83866","","null","","","null","69","","","","","","","","","","","","","","","",""
"","ITI","","html-keyboard-response","452","537318","0.0-1.0-630.0","0","0","83866","","null","","","null","69","","","","","","","","","","","","","","","NaN",""
"","S1","","html-keyboard-response","453","537570","0.0-1.0-632.0","0","0","83866","","null","","","null","70","","","","","","","","","","","","","","","",""
"","ISI","","html-keyboard-response","454","538573","0.0-1.0-633.0","0","0","83866","","null","","","null","70","NaN","","","","","","","","","","","","","","",""
"","S2","","html-keyboard-response","455","538826","0.0-1.0-634.0","0","0","83866","","null","","","null","70","","NaN","","","","","","","","","","","","","",""
"","response","","html-keyboard-response","456","539882","0.0-1.0-635.0-0.0","0","0","83866","","1055","","","68","70","","","2","70","training","adjacent","CB","3","2","L.jpg","N.jpg","1","0","0","",""
"","feedback","","html-keyboard-response","457","540884","0.0-1.0-636.0-0.0","0","0","83866","","null","","","null","70","","","","","","","","","","","","","","","",""
"","time_out","","html-keyboard-response","458","542886","0.0-1.0-638.0-0.0","0","0","83866","","null","","","null","70","","","","","","","","","","","","","","","",""
"","ITI","","html-keyboard-response","459","543887","0.0-1.0-639.0","0","0","83866","","null","","","null","70","","","","","","","","","","","","","","","NaN",""
"","S1","","html-keyboard-response","460","544140","0.0-1.0-641.0","0","0","83866","","null","","","null","71","","","","","","","","","","","","","","","",""
"","ISI","","html-keyboard-response","461","545142","0.0-1.0-642.0","0","0","83866","","null","","","null","71","NaN","","","","","","","","","","","","","","",""
"","S2","","html-keyboard-response","462","545394","0.0-1.0-643.0","0","0","83866","","null","","","null","71","","NaN","","","","","","","","","","","","","",""
"","response","","html-keyboard-response","463","546201","0.0-1.0-644.0-0.0","0","0","83866","","806","","","68","71","","","2","71","training","adjacent","ED","5","4","Q.jpg","P.jpg","1","0","0","",""
"","feedback","","html-keyboard-response","464","547203","0.0-1.0-645.0-0.0","0","0","83866","","null","","","null","71","","","","","","","","","","","","","","","",""
"","time_out","","html-keyboard-response","465","549205","0.0-1.0-647.0-0.0","0","0","83866","","null","","","null","71","","","","","","","","","","","","","","","",""
"","ITI","","html-keyboard-response","466","550207","0.0-1.0-648.0","0","0","83866","","null","","","null","71","","","","","","","","","","","","","","","NaN",""
"","S1","","html-keyboard-response","467","550458","0.0-1.0-650.0","0","0","83866","","null","","","null","72","","","","","","","","","","","","","","","",""
"","ISI","","html-keyboard-response","468","551460","0.0-1.0-651.0","0","0","83866","","null","","","null","72","NaN","","","","","","","","","","","","","","",""
"","S2","","html-keyboard-response","469","551712","0.0-1.0-652.0","0","0","83866","","null","","","null","72","","NaN","","","","","","","","","","","","","",""
"","response","","html-keyboard-response","470","552201","0.0-1.0-653.0-0.0","0","0","83866","","488","","","75","72","","","2","72","training","adjacent","GF","7","6","M.jpg","R.jpg","0","0","1","",""
"","feedback","","html-keyboard-response","471","553204","0.0-1.0-654.0-0.0","0","0","83866","","null","","","null","72","","","","","","","","","","","","","","","",""
"","ITI","","html-keyboard-response","472","554206","0.0-1.0-657.0","0","0","83866","","null","","","null","72","","","","","","","","","","","","","","","NaN",""
"","S1","","html-keyboard-response","473","554458","0.0-1.0-659.0","0","0","83866","","null","","","null","73","","","","","","","","","","","","","","","",""
"","ISI","","html-keyboard-response","474","555460","0.0-1.0-660.0","0","0","83866","","null","","","null","73","NaN","","","","","","","","","","","","","","",""
"","S2","","html-keyboard-response","475","555713","0.0-1.0-661.0","0","0","83866","","null","","","null","73","","NaN","","","","","","","","","","","","","",""
"","response","","html-keyboard-response","476","556001","0.0-1.0-662.0-0.0","0","0","83866","","288","","","68","73","","","2","73","training","adjacent","DE","4","5","P.jpg","Q.jpg","1","1","1","",""
"","feedback","","html-keyboard-response","477","557004","0.0-1.0-663.0-0.0","0","0","83866","","null","","","null","73","","","","","","","","","","","","","","","",""
"","ITI","","html-keyboard-response","478","558007","0.0-1.0-666.0","0","0","83866","","null","","","null","73","","","","","","","","","","","","","","","NaN",""
"","S1","","html-keyboard-response","479","558260","0.0-1.0-668.0","0","0","83866","","null","","","null","74","","","","","","","","","","","","","","","",""
"","ISI","","html-keyboard-response","480","559261","0.0-1.0-669.0","0","0","83866","","null","","","null","74","NaN","","","","","","","","","","","","","","",""
"","S2","","html-keyboard-response","481","559515","0.0-1.0-670.0","0","0","83866","","null","","","null","74","","NaN","","","","","","","","","","","","","",""
"","response","","html-keyboard-response","482","560009","0.0-1.0-671.0-0.0","0","0","83866","","493","","","75","74","","","2","74","training","adjacent","AB","1","2","O.jpg","N.jpg","0","1","0","",""
"","feedback","","html-keyboard-response","483","561011","0.0-1.0-672.0-0.0","0","0","83866","","null","","","null","74","","","","","","","","","","","","","","","",""
"","time_out","","html-keyboard-response","484","563014","0.0-1.0-674.0-0.0","0","0","83866","","null","","","null","74","","","","","","","","","","","","","","","",""
"","ITI","","html-keyboard-response","485","564016","0.0-1.0-675.0","0","0","83866","","null","","","null","74","","","","","","","","","","","","","","","NaN",""
"","S1","","html-keyboard-response","486","564268","0.0-1.0-677.0","0","0","83866","","null","","","null","75","","","","","","","","","","","","","","","",""
"","ISI","","html-keyboard-response","487","565270","0.0-1.0-678.0","0","0","83866","","null","","","null","75","NaN","","","","","","","","","","","","","","",""
"","S2","","html-keyboard-response","488","565523","0.0-1.0-679.0","0","0","83866","","null","","","null","75","","NaN","","","","","","","","","","","","","",""
"","response","","html-keyboard-response","489","566433","0.0-1.0-680.0-0.0","0","0","83866","","909","","","68","75","","","2","75","training","adjacent","BC","2","3","N.jpg","L.jpg","1","1","1","",""
"","feedback","","html-keyboard-response","490","567435","0.0-1.0-681.0-0.0","0","0","83866","","null","","","null","75","","","","","","","","","","","","","","","",""
"","ITI","","html-keyboard-response","491","568438","0.0-1.0-684.0","0","0","83866","","null","","","null","75","","","","","","","","","","","","","","","NaN",""
"","S1","","html-keyboard-response","492","568690","0.0-1.0-686.0","0","0","83866","","null","","","null","76","","","","","","","","","","","","","","","",""
"","ISI","","html-keyboard-response","493","569693","0.0-1.0-687.0","0","0","83866","","null","","","null","76","NaN","","","","","","","","","","","","","","",""
"","S2","","html-keyboard-response","494","569946","0.0-1.0-688.0","0","0","83866","","null","","","null","76","","NaN","","","","","","","","","","","","","",""
"","response","","html-keyboard-response","495","571161","0.0-1.0-689.0-0.0","0","0","83866","","1214","","","68","76","","","2","76","training","adjacent","DE","4","5","P.jpg","Q.jpg","1","1","1","",""
"","feedback","","html-keyboard-response","496","572164","0.0-1.0-690.0-0.0","0","0","83866","","null","","","null","76","","","","","","","","","","","","","","","",""
"","ITI","","html-keyboard-response","497","573166","0.0-1.0-693.0","0","0","83866","","null","","","null","76","","","","","","","","","","","","","","","NaN",""
"","S1","","html-keyboard-response","498","573417","0.0-1.0-695.0","0","0","83866","","null","","","null","77","","","","","","","","","","","","","","","",""
"","ISI","","html-keyboard-response","499","574420","0.0-1.0-696.0","0","0","83866","","null","","","null","77","NaN","","","","","","","","","","","","","","",""
"","S2","","html-keyboard-response","500","574684","0.0-1.0-697.0","0","0","83866","","null","","","null","77","","NaN","","","","","","","","","","","","","",""
"","response","","html-keyboard-response","501","575297","0.0-1.0-698.0-0.0","0","0","83866","","611","","","75","77","","","2","77","training","adjacent","EF","5","6","Q.jpg","R.jpg","0","1","0","",""
"","feedback","","html-keyboard-response","502","576300","0.0-1.0-699.0-0.0","0","0","83866","","null","","","null","77","","","","","","","","","","","","","","","",""
"","time_out","","html-keyboard-response","503","578304","0.0-1.0-701.0-0.0","0","0","83866","","null","","","null","77","","","","","","","","","","","","","","","",""
"","ITI","","html-keyboard-response","504","579306","0.0-1.0-702.0","0","0","83866","","null","","","null","77","","","","","","","","","","","","","","","NaN",""
"","S1","","html-keyboard-response","505","579557","0.0-1.0-704.0","0","0","83866","","null","","","null","78","","","","","","","","","","","","","","","",""
"","ISI","","html-keyboard-response","506","580560","0.0-1.0-705.0","0","0","83866","","null","","","null","78","NaN","","","","","","","","","","","","","","",""
"","S2","","html-keyboard-response","507","580813","0.0-1.0-706.0","0","0","83866","","null","","","null","78","","NaN","","","","","","","","","","","","","",""
"","response","","html-keyboard-response","508","581460","0.0-1.0-707.0-0.0","0","0","83866","","646","","","68","78","","","2","78","training","adjacent","DC","4","3","P.jpg","L.jpg","1","0","0","",""
"","feedback","","html-keyboard-response","509","582462","0.0-1.0-708.0-0.0","0","0","83866","","null","","","null","78","","","","","","","","","","","","","","","",""
"","time_out","","html-keyboard-response","510","584465","0.0-1.0-710.0-0.0","0","0","83866","","null","","","null","78","","","","","","","","","","","","","","","",""
"","ITI","","html-keyboard-response","511","585466","0.0-1.0-711.0","0","0","83866","","null","","","null","78","","","","","","","","","","","","","","","NaN",""
"","S1","","html-keyboard-response","512","585718","0.0-1.0-713.0","0","0","83866","","null","","","null","79","","","","","","","","","","","","","","","",""
"","ISI","","html-keyboard-response","513","586720","0.0-1.0-714.0","0","0","83866","","null","","","null","79","NaN","","","","","","","","","","","","","","",""
"","S2","","html-keyboard-response","514","586972","0.0-1.0-715.0","0","0","83866","","null","","","null","79","","NaN","","","","","","","","","","","","","",""
"","response","","html-keyboard-response","515","587443","0.0-1.0-716.0-0.0","0","0","83866","","470","","","75","79","","","2","79","training","adjacent","DC","4","3","P.jpg","L.jpg","0","0","1","",""
"","feedback","","html-keyboard-response","516","588446","0.0-1.0-717.0-0.0","0","0","83866","","null","","","null","79","","","","","","","","","","","","","","","",""
"","ITI","","html-keyboard-response","517","589448","0.0-1.0-720.0","0","0","83866","","null","","","null","79","","","","","","","","","","","","","","","NaN",""
"","S1","","html-keyboard-response","518","589701","0.0-1.0-722.0","0","0","83866","","null","","","null","80","","","","","","","","","","","","","","","",""
"","ISI","","html-keyboard-response","519","590703","0.0-1.0-723.0","0","0","83866","","null","","","null","80","NaN","","","","","","","","","","","","","","",""
"","S2","","html-keyboard-response","520","590955","0.0-1.0-724.0","0","0","83866","","null","","","null","80","","NaN","","","","","","","","","","","","","",""
"","response","","html-keyboard-response","521","591443","0.0-1.0-725.0-0.0","0","0","83866","","487","","","68","80","","","2","80","training","adjacent","DE","4","5","P.jpg","Q.jpg","1","1","1","",""
"","feedback","","html-keyboard-response","522","592445","0.0-1.0-726.0-0.0","0","0","83866","","null","","","null","80","","","","","","","","","","","","","","","",""
"","ITI","","html-keyboard-response","523","593447","0.0-1.0-729.0","0","0","83866","","null","","","null","80","","","","","","","","","","","","","","","NaN",""
"","S1","","html-keyboard-response","524","593699","0.0-1.0-731.0","0","0","83866","","null","","","null","81","","","","","","","","","","","","","","","",""
"","ISI","","html-keyboard-response","525","594700","0.0-1.0-732.0","0","0","83866","","null","","","null","81","NaN","","","","","","","","","","","","","","",""
"","S2","","html-keyboard-response","526","594954","0.0-1.0-733.0","0","0","83866","","null","","","null","81","","NaN","","","","","","","","","","","","","",""
"","response","","html-keyboard-response","527","595355","0.0-1.0-734.0-0.0","0","0","83866","","399","","","68","81","","","2","81","training","adjacent","FG","6","7","R.jpg","M.jpg","1","1","1","",""
"","feedback","","html-keyboard-response","528","596357","0.0-1.0-735.0-0.0","0","0","83866","","null","","","null","81","","","","","","","","","","","","","","","",""
"","ITI","","html-keyboard-response","529","597359","0.0-1.0-738.0","0","0","83866","","null","","","null","81","","","","","","","","","","","","","","","NaN",""
"","S1","","html-keyboard-response","530","597611","0.0-1.0-740.0","0","0","83866","","null","","","null","82","","","","","","","","","","","","","","","",""
"","ISI","","html-keyboard-response","531","598614","0.0-1.0-741.0","0","0","83866","","null","","","null","82","NaN","","","","","","","","","","","","","","",""
"","S2","","html-keyboard-response","532","598866","0.0-1.0-742.0","0","0","83866","","null","","","null","82","","NaN","","","","","","","","","","","","","",""
"","response","","html-keyboard-response","533","599419","0.0-1.0-743.0-0.0","0","0","83866","","552","","","75","82","","","2","82","training","adjacent","EF","5","6","Q.jpg","R.jpg","0","1","0","",""
"","feedback","","html-keyboard-response","534","600422","0.0-1.0-744.0-0.0","0","0","83866","","null","","","null","82","","","","","","","","","","","","","","","",""
"","time_out","","html-keyboard-response","535","602423","0.0-1.0-746.0-0.0","0","0","83866","","null","","","null","82","","","","","","","","","","","","","","","",""
"","ITI","","html-keyboard-response","536","603426","0.0-1.0-747.0","0","0","83866","","null","","","null","82","","","","","","","","","","","","","","","NaN",""
"","S1","","html-keyboard-response","537","603678","0.0-1.0-749.0","0","0","83866","","null","","","null","83","","","","","","","","","","","","","","","",""
"","ISI","","html-keyboard-response","538","604681","0.0-1.0-750.0","0","0","83866","","null","","","null","83","NaN","","","","","","","","","","","","","","",""
"","S2","","html-keyboard-response","539","604937","0.0-1.0-751.0","0","0","83866","","null","","","null","83","","NaN","","","","","","","","","","","","","",""
"","response","","html-keyboard-response","540","605251","0.0-1.0-752.0-0.0","0","0","83866","","314","","","68","83","","","2","83","training","adjacent","DC","4","3","P.jpg","L.jpg","1","0","0","",""
"","feedback","","html-keyboard-response","541","606253","0.0-1.0-753.0-0.0","0","0","83866","","null","","","null","83","","","","","","","","","","","","","","","",""
"","time_out","","html-keyboard-response","542","608256","0.0-1.0-755.0-0.0","0","0","83866","","null","","","null","83","","","","","","","","","","","","","","","",""
"","ITI","","html-keyboard-response","543","609258","0.0-1.0-756.0","0","0","83866","","null","","","null","83","","","","","","","","","","","","","","","NaN",""
"","S1","","html-keyboard-response","544","609510","0.0-1.0-758.0","0","0","83866","","null","","","null","84","","","","","","","","","","","","","","","",""
"","ISI","","html-keyboard-response","545","610512","0.0-1.0-759.0","0","0","83866","","null","","","null","84","NaN","","","","","","","","","","","","","","",""
"","S2","","html-keyboard-response","546","610763","0.0-1.0-760.0","0","0","83866","","null","","","null","84","","NaN","","","","","","","","","","","","","",""
"","response","","html-keyboard-response","547","611419","0.0-1.0-761.0-0.0","0","0","83866","","655","","","68","84","","","2","84","training","adjacent","BA","2","1","N.jpg","O.jpg","1","0","0","",""
"","feedback","","html-keyboard-response","548","612422","0.0-1.0-762.0-0.0","0","0","83866","","null","","","null","84","","","","","","","","","","","","","","","",""
"","time_out","","html-keyboard-response","549","614423","0.0-1.0-764.0-0.0","0","0","83866","","null","","","null","84","","","","","","","","","","","","","","","",""
"","ITI","","html-keyboard-response","550","615425","0.0-1.0-765.0","0","0","83866","","null","","","null","84","","","","","","","","","","","","","","","NaN",""
"","S1","","html-keyboard-response","551","615683","0.0-1.0-767.0","0","0","83866","","null","","","null","85","","","","","","","","","","","","","","","",""
"","ISI","","html-keyboard-response","552","616686","0.0-1.0-768.0","0","0","83866","","null","","","null","85","NaN","","","","","","","","","","","","","","",""
"","S2","","html-keyboard-response","553","616938","0.0-1.0-769.0","0","0","83866","","null","","","null","85","","NaN","","","","","","","","","","","","","",""
"","response","","html-keyboard-response","554","617131","0.0-1.0-770.0-0.0","0","0","83866","","192","","","75","85","","","2","85","training","adjacent","CD","3","4","L.jpg","P.jpg","0","1","0","",""
"","feedback","","html-keyboard-response","555","618134","0.0-1.0-771.0-0.0","0","0","83866","","null","","","null","85","","","","","","","","","","","","","","","",""
"","time_out","","html-keyboard-response","556","620137","0.0-1.0-773.0-0.0","0","0","83866","","null","","","null","85","","","","","","","","","","","","","","","",""
"","ITI","","html-keyboard-response","557","621138","0.0-1.0-774.0","0","0","83866","","null","","","null","85","","","","","","","","","","","","","","","NaN",""
"","S1","","html-keyboard-response","558","621392","0.0-1.0-776.0","0","0","83866","","null","","","null","86","","","","","","","","","","","","","","","",""
"","ISI","","html-keyboard-response","559","622394","0.0-1.0-777.0","0","0","83866","","null","","","null","86","NaN","","","","","","","","","","","","","","",""
"","S2","","html-keyboard-response","560","622646","0.0-1.0-778.0","0","0","83866","","null","","","null","86","","NaN","","","","","","","","","","","","","",""
"","response","","html-keyboard-response","561","622939","0.0-1.0-779.0-0.0","0","0","83866","","292","","","68","86","","","2","86","training","adjacent","DC","4","3","P.jpg","L.jpg","1","0","0","",""
"","feedback","","html-keyboard-response","562","623942","0.0-1.0-780.0-0.0","0","0","83866","","null","","","null","86","","","","","","","","","","","","","","","",""
"","time_out","","html-keyboard-response","563","625944","0.0-1.0-782.0-0.0","0","0","83866","","null","","","null","86","","","","","","","","","","","","","","","",""
"","ITI","","html-keyboard-response","564","626946","0.0-1.0-783.0","0","0","83866","","null","","","null","86","","","","","","","","","","","","","","","NaN",""
"","S1","","html-keyboard-response","565","627198","0.0-1.0-785.0","0","0","83866","","null","","","null","87","","","","","","","","","","","","","","","",""
"","ISI","","html-keyboard-response","566","628200","0.0-1.0-786.0","0","0","83866","","null","","","null","87","NaN","","","","","","","","","","","","","","",""
"","S2","","html-keyboard-response","567","628453","0.0-1.0-787.0","0","0","83866","","null","","","null","87","","NaN","","","","","","","","","","","","","",""
"","response","","html-keyboard-response","568","629323","0.0-1.0-788.0-0.0","0","0","83866","","870","","","68","87","","","2","87","training","adjacent","BA","2","1","N.jpg","O.jpg","1","0","0","",""
"","feedback","","html-keyboard-response","569","630326","0.0-1.0-789.0-0.0","0","0","83866","","null","","","null","87","","","","","","","","","","","","","","","",""
"","time_out","","html-keyboard-response","570","632328","0.0-1.0-791.0-0.0","0","0","83866","","null","","","null","87","","","","","","","","","","","","","","","",""
"","ITI","","html-keyboard-response","571","633330","0.0-1.0-792.0","0","0","83866","","null","","","null","87","","","","","","","","","","","","","","","NaN",""
"","S1","","html-keyboard-response","572","633582","0.0-1.0-794.0","0","0","83866","","null","","","null","88","","","","","","","","","","","","","","","",""
"","ISI","","html-keyboard-response","573","634588","0.0-1.0-795.0","0","0","83866","","668","","","75","88","k","","","","","","","","","","","","","","",""
"","S2","","html-keyboard-response","574","634840","0.0-1.0-796.0","0","0","83866","","null","","","null","88","","NaN","","","","","","","","","","","","","",""
"","response","","html-keyboard-response","575","634955","0.0-1.0-797.0-0.0","0","0","83866","","114","","","75","88","","","2","88","training","adjacent","BC","2","3","N.jpg","L.jpg","0","1","0","",""
"","feedback","","html-keyboard-response","576","635957","0.0-1.0-798.0-0.0","0","0","83866","","null","","","null","88","","","","","","","","","","","","","","","",""
"","time_out","","html-keyboard-response","577","637960","0.0-1.0-800.0-0.0","0","0","83866","","null","","","null","88","","","","","","","","","","","","","","","",""
