"success","ttype","start_time","trial_type","trial_index","time_elapsed","internal_node_id","warning","missed_checkup","PID","view_history","rt","responses","repeat_instructions","key_press","index","keypress_isi","keypress_S2","block","trial_num","phase","group_type","pair_type","S1_stim","S2_stim","S1_img","S2_img","S1_chosen","S1_higher","accuracy","keypress_iti","total_bonus_tally"
"true","full_screen","d08052022hr1313","fullscreen","0","21803","0.0-0.0","0","0","44491","","","","","","","","","","","","","","","","","","","","","",""
"","instructions","","instructions","1","61172","0.0-1.0-0.0-0.0","0","0","44491","[{""page_index"":0,""viewing_time"":5228},{""page_index"":1,""viewing_time"":14978},{""page_index"":2,""viewing_time"":17593},{""page_index"":3,""viewing_time"":1569}]","39368","","","","","","","","","","","","","","","","","","","",""
"","comprehension_check","","survey-multi-choice","2","81566","0.0-1.0-0.0-1.0","0","0","44491","","20392","{""Q0"":""True"",""Q1"":""D"",""Q2"":""Once the second image appears and while the screen 'MAKE A CHOICE' is shown"",""Q3"":""Green mark"",""Q4"":""either D or K""}","1","","","","","","","","","","","","","","","","","",""
"","missed_instruction_checkup","","html-keyboard-response","3","84374","0.0-1.0-0.0-2.0-0.0","0","1","44491","","2807","","","32","","","","","","","","","","","","","","","","",""
"","instructions","","instructions","4","96567","0.0-1.0-0.1-0.1","0","0","44491","[{""page_index"":0,""viewing_time"":2639},{""page_index"":1,""viewing_time"":8313},{""page_index"":2,""viewing_time"":688},{""page_index"":3,""viewing_time"":552}]","12192","","","","","","","","","","","","","","","","","","","",""
"","comprehension_check","","survey-multi-choice","5","106153","0.0-1.0-0.1-1.1","0","0","44491","","9582","{""Q0"":""True"",""Q1"":""K"",""Q2"":""Once the second image appears and while the screen 'MAKE A CHOICE' is shown"",""Q3"":""Green mark"",""Q4"":""either D or K""}","0","","","","","","","","","","","","","","","","","",""
"","start_exp","","html-keyboard-response","6","108321","0.0-1.0-1.0","0","0","44491","","2167","","","32","","","","","","","","","","","","","","","","",""
"","S1","","html-keyboard-response","7","108573","0.0-1.0-2.0","0","0","44491","","null","","","null","0","","","","","","","","","","","","","","","",""
"","ISI","","html-keyboard-response","8","110575","0.0-1.0-3.0","0","0","44491","","null","","","null","0","NaN","","","","","","","","","","","","","","",""
"","S2","","html-keyboard-response","9","110827","0.0-1.0-4.0","0","0","44491","","null","","","null","0","","NaN","","","","","","","","","","","","","",""
"","response","","html-keyboard-response","10","111369","0.0-1.0-5.0-0.0","0","0","44491","","541","","","75","0","","","1","0","training","adjacent","AB","1","2","R.jpg","N.jpg","1","1","1","",""
"","feedback","","html-keyboard-response","11","112371","0.0-1.0-6.0-0.0","0","0","44491","","null","","","null","0","","","","","","","","","","","","","","","",""
"","ITI","","html-keyboard-response","12","113372","0.0-1.0-9.0","0","0","44491","","null","","","null","0","","","","","","","","","","","","","","","NaN",""
"","S1","","html-keyboard-response","13","113624","0.0-1.0-11.0","0","0","44491","","null","","","null","1","","","","","","","","","","","","","","","",""
"","ISI","","html-keyboard-response","14","115626","0.0-1.0-12.0","0","0","44491","","289","","","68","1","d","","","","","","","","","","","","","","",""
"","S2","","html-keyboard-response","15","115878","0.0-1.0-13.0","0","0","44491","","null","","","null","1","","NaN","","","","","","","","","","","","","",""
"","response","","html-keyboard-response","16","115882","0.0-1.0-14.0-0.0","0","0","44491","","3","","","75","1","","","1","1","training","adjacent","FE","6","5","O.jpg","P.jpg","1","0","0","",""
"","feedback","","html-keyboard-response","17","116884","0.0-1.0-15.0-0.0","0","0","44491","","null","","","null","1","","","","","","","","","","","","","","","",""
"","time_out","","html-keyboard-response","18","118885","0.0-1.0-17.0-0.0","0","0","44491","","null","","","null","1","","","","","","","","","","","","","","","",""
"","ITI","","html-keyboard-response","19","119887","0.0-1.0-18.0","0","0","44491","","null","","","null","1","","","","","","","","","","","","","","","NaN",""
"","S1","","html-keyboard-response","20","120139","0.0-1.0-20.0","0","0","44491","","null","","","null","2","","","","","","","","","","","","","","","",""
"","ISI","","html-keyboard-response","21","122141","0.0-1.0-21.0","0","0","44491","","null","","","null","2","NaN","","","","","","","","","","","","","","",""
"","S2","","html-keyboard-response","22","122393","0.0-1.0-22.0","0","0","44491","","null","","","null","2","","NaN","","","","","","","","","","","","","",""
"","response","","html-keyboard-response","23","122586","0.0-1.0-23.0-0.0","0","0","44491","","193","","","75","2","","","1","2","training","adjacent","DE","4","5","L.jpg","P.jpg","1","1","1","",""
"","feedback","","html-keyboard-response","24","123588","0.0-1.0-24.0-0.0","0","0","44491","","null","","","null","2","","","","","","","","","","","","","","","",""
"","ITI","","html-keyboard-response","25","124590","0.0-1.0-27.0","0","0","44491","","null","","","null","2","","","","","","","","","","","","","","","NaN",""
"","S1","","html-keyboard-response","26","124842","0.0-1.0-29.0","0","0","44491","","null","","","null","3","","","","","","","","","","","","","","","",""
"","ISI","","html-keyboard-response","27","126843","0.0-1.0-30.0","0","0","44491","","null","","","null","3","NaN","","","","","","","","","","","","","","",""
"","S2","","html-keyboard-response","28","127095","0.0-1.0-31.0","0","0","44491","","null","","","null","3","","NaN","","","","","","","","","","","","","",""
"","response","","html-keyboard-response","29","127131","0.0-1.0-32.0-0.0","0","0","44491","","34","","","75","3","","","1","3","training","adjacent","CB","3","2","M.jpg","N.jpg","1","0","0","",""
"","feedback","","html-keyboard-response","30","128133","0.0-1.0-33.0-0.0","0","0","44491","","null","","","null","3","","","","","","","","","","","","","","","",""
"","time_out","","html-keyboard-response","31","130135","0.0-1.0-35.0-0.0","0","0","44491","","null","","","null","3","","","","","","","","","","","","","","","",""
"","ITI","","html-keyboard-response","32","131137","0.0-1.0-36.0","0","0","44491","","null","","","null","3","","","","","","","","","","","","","","","NaN",""
"","S1","","html-keyboard-response","33","131389","0.0-1.0-38.0","0","0","44491","","null","","","null","4","","","","","","","","","","","","","","","",""
"","ISI","","html-keyboard-response","34","133391","0.0-1.0-39.0","0","0","44491","","null","","","null","4","NaN","","","","","","","","","","","","","","",""
"","S2","","html-keyboard-response","35","133643","0.0-1.0-40.0","0","0","44491","","null","","","null","4","","NaN","","","","","","","","","","","","","",""
"","response","","html-keyboard-response","36","134140","0.0-1.0-41.0-0.0","0","0","44491","","496","","","68","4","","","1","4","training","adjacent","EF","5","6","P.jpg","O.jpg","0","1","0","",""
"","feedback","","html-keyboard-response","37","135141","0.0-1.0-42.0-0.0","0","0","44491","","null","","","null","4","","","","","","","","","","","","","","","",""
"","time_out","","html-keyboard-response","38","137143","0.0-1.0-44.0-0.0","0","0","44491","","null","","","null","4","","","","","","","","","","","","","","","",""
"","ITI","","html-keyboard-response","39","138146","0.0-1.0-45.0","0","0","44491","","null","","","null","4","","","","","","","","","","","","","","","NaN",""
"","S1","","html-keyboard-response","40","138398","0.0-1.0-47.0","0","0","44491","","null","","","null","5","","","","","","","","","","","","","","","",""
"","ISI","","html-keyboard-response","41","140400","0.0-1.0-48.0","0","0","44491","","null","","","null","5","NaN","","","","","","","","","","","","","","",""
"","S2","","html-keyboard-response","42","140651","0.0-1.0-49.0","0","0","44491","","null","","","null","5","","NaN","","","","","","","","","","","","","",""
"","response","","html-keyboard-response","43","140876","0.0-1.0-50.0-0.0","0","0","44491","","224","","","75","5","","","1","5","training","adjacent","GF","7","6","Q.jpg","O.jpg","1","0","0","",""
"","feedback","","html-keyboard-response","44","141878","0.0-1.0-51.0-0.0","0","0","44491","","null","","","null","5","","","","","","","","","","","","","","","",""
"","time_out","","html-keyboard-response","45","143880","0.0-1.0-53.0-0.0","0","0","44491","","null","","","null","5","","","","","","","","","","","","","","","",""
"","ITI","","html-keyboard-response","46","144882","0.0-1.0-54.0","0","0","44491","","null","","","null","5","","","","","","","","","","","","","","","NaN",""
"","S1","","html-keyboard-response","47","145133","0.0-1.0-56.0","0","0","44491","","null","","","null","6","","","","","","","","","","","","","","","",""
"","ISI","","html-keyboard-response","48","147135","0.0-1.0-57.0","0","0","44491","","null","","","null","6","NaN","","","","","","","","","","","","","","",""
"","S2","","html-keyboard-response","49","147386","0.0-1.0-58.0","0","0","44491","","null","","","null","6","","NaN","","","","","","","","","","","","","",""
"","response","","html-keyboard-response","50","147517","0.0-1.0-59.0-0.0","0","0","44491","","131","","","75","6","","","1","6","training","adjacent","EF","5","6","P.jpg","O.jpg","1","1","1","",""
"","feedback","","html-keyboard-response","51","148519","0.0-1.0-60.0-0.0","0","0","44491","","null","","","null","6","","","","","","","","","","","","","","","",""
"","ITI","","html-keyboard-response","52","149521","0.0-1.0-63.0","0","0","44491","","null","","","null","6","","","","","","","","","","","","","","","NaN",""
"","S1","","html-keyboard-response","53","149772","0.0-1.0-65.0","0","0","44491","","null","","","null","7","","","","","","","","","","","","","","","",""
"","ISI","","html-keyboard-response","54","151774","0.0-1.0-66.0","0","0","44491","","null","","","null","7","NaN","","","","","","","","","","","","","","",""
"","S2","","html-keyboard-response","55","152025","0.0-1.0-67.0","0","0","44491","","null","","","null","7","","NaN","","","","","","","","","","","","","",""
"","response","","html-keyboard-response","56","152038","0.0-1.0-68.0-0.0","0","0","44491","","12","","","75","7","","","1","7","training","adjacent","BA","2","1","N.jpg","R.jpg","1","0","0","",""
"","feedback","","html-keyboard-response","57","153039","0.0-1.0-69.0-0.0","0","0","44491","","null","","","null","7","","","","","","","","","","","","","","","",""
"","time_out","","html-keyboard-response","58","155040","0.0-1.0-71.0-0.0","0","0","44491","","null","","","null","7","","","","","","","","","","","","","","","",""
"","ITI","","html-keyboard-response","59","156042","0.0-1.0-72.0","0","0","44491","","null","","","null","7","","","","","","","","","","","","","","","NaN",""
"","S1","","html-keyboard-response","60","156293","0.0-1.0-74.0","0","0","44491","","null","","","null","8","","","","","","","","","","","","","","","",""
"","ISI","","html-keyboard-response","61","158295","0.0-1.0-75.0","0","0","44491","","null","","","null","8","NaN","","","","","","","","","","","","","","",""
"","S2","","html-keyboard-response","62","158543","0.0-1.0-76.0","0","0","44491","","246","","","75","8","","k","1","8","training","adjacent","FE","6","5","O.jpg","P.jpg","1","0","0","",""
"","feedback","","html-keyboard-response","63","159544","0.0-1.0-78.0-0.0","0","0","44491","","null","","","null","8","","","","","","","","","","","","","","","",""
"","time_out","","html-keyboard-response","64","161546","0.0-1.0-80.0-0.0","0","0","44491","","null","","","null","8","","","","","","","","","","","","","","","",""
"","ITI","","html-keyboard-response","65","162548","0.0-1.0-81.0","0","0","44491","","null","","","null","8","","","","","","","","","","","","","","","NaN",""
"","S1","","html-keyboard-response","66","162799","0.0-1.0-83.0","0","0","44491","","null","","","null","9","","","","","","","","","","","","","","","",""
"","ISI","","html-keyboard-response","67","164801","0.0-1.0-84.0","0","0","44491","","null","","","null","9","NaN","","","","","","","","","","","","","","",""
"","S2","","html-keyboard-response","68","165053","0.0-1.0-85.0","0","0","44491","","null","","","null","9","","NaN","","","","","","","","","","","","","",""
"","response","","html-keyboard-response","69","165071","0.0-1.0-86.0-0.0","0","0","44491","","17","","","68","9","","","1","9","training","adjacent","BA","2","1","N.jpg","R.jpg","0","0","1","",""
"","feedback","","html-keyboard-response","70","166073","0.0-1.0-87.0-0.0","0","0","44491","","null","","","null","9","","","","","","","","","","","","","","","",""
"","ITI","","html-keyboard-response","71","167074","0.0-1.0-90.0","0","0","44491","","null","","","null","9","","","","","","","","","","","","","","","NaN",""
"","S1","","html-keyboard-response","72","167326","0.0-1.0-92.0","0","0","44491","","null","","","null","10","","","","","","","","","","","","","","","",""
"","ISI","","html-keyboard-response","73","169328","0.0-1.0-93.0","0","0","44491","","null","","","null","10","NaN","","","","","","","","","","","","","","",""
"","S2","","html-keyboard-response","74","169579","0.0-1.0-94.0","0","0","44491","","null","","","null","10","","NaN","","","","","","","","","","","","","",""
"","response","","html-keyboard-response","75","169656","0.0-1.0-95.0-0.0","0","0","44491","","76","","","68","10","","","1","10","training","adjacent","FG","6","7","O.jpg","Q.jpg","0","1","0","",""
"","feedback","","html-keyboard-response","76","170658","0.0-1.0-96.0-0.0","0","0","44491","","null","","","null","10","","","","","","","","","","","","","","","",""
"","time_out","","html-keyboard-response","77","172660","0.0-1.0-98.0-0.0","0","0","44491","","null","","","null","10","","","","","","","","","","","","","","","",""
"","ITI","","html-keyboard-response","78","173661","0.0-1.0-99.0","0","0","44491","","null","","","null","10","","","","","","","","","","","","","","","NaN",""
"","S1","","html-keyboard-response","79","173913","0.0-1.0-101.0","0","0","44491","","null","","","null","11","","","","","","","","","","","","","","","",""
"","ISI","","html-keyboard-response","80","175914","0.0-1.0-102.0","0","0","44491","","null","","","null","11","NaN","","","","","","","","","","","","","","",""
"","S2","","html-keyboard-response","81","176166","0.0-1.0-103.0","0","0","44491","","null","","","null","11","","NaN","","","","","","","","","","","","","",""
"","response","","html-keyboard-response","82","176184","0.0-1.0-104.0-0.0","0","0","44491","","18","","","68","11","","","1","11","training","adjacent","DE","4","5","L.jpg","P.jpg","0","1","0","",""
"","feedback","","html-keyboard-response","83","177186","0.0-1.0-105.0-0.0","0","0","44491","","null","","","null","11","","","","","","","","","","","","","","","",""
"","time_out","","html-keyboard-response","84","179188","0.0-1.0-107.0-0.0","0","0","44491","","null","","","null","11","","","","","","","","","","","","","","","",""
"","ITI","","html-keyboard-response","85","180190","0.0-1.0-108.0","0","0","44491","","null","","","null","11","","","","","","","","","","","","","","","NaN",""
"","S1","","html-keyboard-response","86","180441","0.0-1.0-110.0","0","0","44491","","null","","","null","12","","","","","","","","","","","","","","","",""
"","ISI","","html-keyboard-response","87","182443","0.0-1.0-111.0","0","0","44491","","null","","","null","12","NaN","","","","","","","","","","","","","","",""
"","S2","","html-keyboard-response","88","182665","0.0-1.0-112.0","0","0","44491","","221","","","68","12","","d","1","12","training","adjacent","ED","5","4","P.jpg","L.jpg","0","0","1","",""
"","feedback","","html-keyboard-response","89","183667","0.0-1.0-114.0-0.0","0","0","44491","","null","","","null","12","","","","","","","","","","","","","","","",""
"","ITI","","html-keyboard-response","90","184669","0.0-1.0-117.0","0","0","44491","","null","","","null","12","","","","","","","","","","","","","","","NaN",""
"","S1","","html-keyboard-response","91","184920","0.0-1.0-119.0","0","0","44491","","null","","","null","13","","","","","","","","","","","","","","","",""
"","ISI","","html-keyboard-response","92","186921","0.0-1.0-120.0","0","0","44491","","null","","","null","13","NaN","","","","","","","","","","","","","","",""
"","S2","","html-keyboard-response","93","187173","0.0-1.0-121.0","0","0","44491","","null","","","null","13","","NaN","","","","","","","","","","","","","",""
"","response","","html-keyboard-response","94","187578","0.0-1.0-122.0-0.0","0","0","44491","","403","","","68","13","","","1","13","training","adjacent","CB","3","2","M.jpg","N.jpg","0","0","1","",""
"","feedback","","html-keyboard-response","95","188579","0.0-1.0-123.0-0.0","0","0","44491","","null","","","null","13","","","","","","","","","","","","","","","",""
"","ITI","","html-keyboard-response","96","189581","0.0-1.0-126.0","0","0","44491","","null","","","null","13","","","","","","","","","","","","","","","NaN",""
"","S1","","html-keyboard-response","97","189832","0.0-1.0-128.0","0","0","44491","","null","","","null","14","","","","","","","","","","","","","","","",""
"","ISI","","html-keyboard-response","98","191834","0.0-1.0-129.0","0","0","44491","","null","","","null","14","NaN","","","","","","","","","","","","","","",""
"","S2","","html-keyboard-response","99","192085","0.0-1.0-130.0","0","0","44491","","null","","","null","14","","NaN","","","","","","","","","","","","","",""
"","response","","html-keyboard-response","100","192362","0.0-1.0-131.0-0.0","0","0","44491","","275","","","75","14","","","1","14","training","adjacent","AB","1","2","R.jpg","N.jpg","1","1","1","",""
"","feedback","","html-keyboard-response","101","193364","0.0-1.0-132.0-0.0","0","0","44491","","null","","","null","14","","","","","","","","","","","","","","","",""
"","ITI","","html-keyboard-response","102","194366","0.0-1.0-135.0","0","0","44491","","null","","","null","14","","","","","","","","","","","","","","","NaN",""
"","S1","","html-keyboard-response","103","194618","0.0-1.0-137.0","0","0","44491","","null","","","null","15","","","","","","","","","","","","","","","",""
"","ISI","","html-keyboard-response","104","196620","0.0-1.0-138.0","0","0","44491","","null","","","null","15","NaN","","","","","","","","","","","","","","",""
"","S2","","html-keyboard-response","105","196867","0.0-1.0-139.0","0","0","44491","","246","","","75","15","","k","1","15","training","adjacent","BC","2","3","N.jpg","M.jpg","1","1","1","",""
"","feedback","","html-keyboard-response","106","197869","0.0-1.0-141.0-0.0","0","0","44491","","null","","","null","15","","","","","","","","","","","","","","","",""
"","ITI","","html-keyboard-response","107","198871","0.0-1.0-144.0","0","0","44491","","null","","","null","15","","","","","","","","","","","","","","","NaN",""
"","S1","","html-keyboard-response","108","199122","0.0-1.0-146.0","0","0","44491","","null","","","null","16","","","","","","","","","","","","","","","",""
"","ISI","","html-keyboard-response","109","201124","0.0-1.0-147.0","0","0","44491","","null","","","null","16","NaN","","","","","","","","","","","","","","",""
"","S2","","html-keyboard-response","110","201376","0.0-1.0-148.0","0","0","44491","","null","","","null","16","","NaN","","","","","","","","","","","","","",""
"","response","","html-keyboard-response","111","201387","0.0-1.0-149.0-0.0","0","0","44491","","10","","","68","16","","","1","16","training","adjacent","DC","4","3","L.jpg","M.jpg","0","0","1","",""
"","feedback","","html-keyboard-response","112","202388","0.0-1.0-150.0-0.0","0","0","44491","","null","","","null","16","","","","","","","","","","","","","","","",""
"","ITI","","html-keyboard-response","113","203390","0.0-1.0-153.0","0","0","44491","","null","","","null","16","","","","","","","","","","","","","","","NaN",""
"","S1","","html-keyboard-response","114","203641","0.0-1.0-155.0","0","0","44491","","null","","","null","17","","","","","","","","","","","","","","","",""
"","ISI","","html-keyboard-response","115","205643","0.0-1.0-156.0","0","0","44491","","null","","","null","17","NaN","","","","","","","","","","","","","","",""
"","S2","","html-keyboard-response","116","205902","0.0-1.0-157.0","0","0","44491","","null","","","null","17","","NaN","","","","","","","","","","","","","",""
"","response","","html-keyboard-response","117","206140","0.0-1.0-158.0-0.0","0","0","44491","","236","","","75","17","","","1","17","training","adjacent","AB","1","2","R.jpg","N.jpg","1","1","1","",""
"","feedback","","html-keyboard-response","118","207142","0.0-1.0-159.0-0.0","0","0","44491","","null","","","null","17","","","","","","","","","","","","","","","",""
"","ITI","","html-keyboard-response","119","208144","0.0-1.0-162.0","0","0","44491","","null","","","null","17","","","","","","","","","","","","","","","NaN",""
"","S1","","html-keyboard-response","120","208395","0.0-1.0-164.0","0","0","44491","","null","","","null","18","","","","","","","","","","","","","","","",""
"","ISI","","html-keyboard-response","121","210397","0.0-1.0-165.0","0","0","44491","","null","","","null","18","NaN","","","","","","","","","","","","","","",""
"","S2","","html-keyboard-response","122","210649","0.0-1.0-166.0","0","0","44491","","null","","","null","18","","NaN","","","","","","","","","","","","","",""
"","response","","html-keyboard-response","123","210876","0.0-1.0-167.0-0.0","0","0","44491","","227","","","75","18","","","1","18","training","adjacent","FG","6","7","O.jpg","Q.jpg","1","1","1","",""
"","feedback","","html-keyboard-response","124","211878","0.0-1.0-168.0-0.0","0","0","44491","","null","","","null","18","","","","","","","","","","","","","","","",""
"","ITI","","html-keyboard-response","125","212880","0.0-1.0-171.0","0","0","44491","","null","","","null","18","","","","","","","","","","","","","","","NaN",""
"","S1","","html-keyboard-response","126","213132","0.0-1.0-173.0","0","0","44491","","null","","","null","19","","","","","","","","","","","","","","","",""
"","ISI","","html-keyboard-response","127","215134","0.0-1.0-174.0","0","0","44491","","null","","","null","19","NaN","","","","","","","","","","","","","","",""
"","S2","","html-keyboard-response","128","215386","0.0-1.0-175.0","0","0","44491","","null","","","null","19","","NaN","","","","","","","","","","","","","",""
"","response","","html-keyboard-response","129","215517","0.0-1.0-176.0-0.0","0","0","44491","","129","","","68","19","","","1","19","training","adjacent","DC","4","3","L.jpg","M.jpg","0","0","1","",""
"","feedback","","html-keyboard-response","130","216518","0.0-1.0-177.0-0.0","0","0","44491","","null","","","null","19","","","","","","","","","","","","","","","",""
"","ITI","","html-keyboard-response","131","217520","0.0-1.0-180.0","0","0","44491","","null","","","null","19","","","","","","","","","","","","","","","NaN",""
"","S1","","html-keyboard-response","132","217771","0.0-1.0-182.0","0","0","44491","","null","","","null","20","","","","","","","","","","","","","","","",""
"","ISI","","html-keyboard-response","133","219773","0.0-1.0-183.0","0","0","44491","","null","","","null","20","NaN","","","","","","","","","","","","","","",""
"","S2","","html-keyboard-response","134","220013","0.0-1.0-184.0","0","0","44491","","240","","","68","20","","d","1","20","training","adjacent","ED","5","4","P.jpg","L.jpg","0","0","1","",""
"","feedback","","html-keyboard-response","135","221015","0.0-1.0-186.0-0.0","0","0","44491","","null","","","null","20","","","","","","","","","","","","","","","",""
"","ITI","","html-keyboard-response","136","222017","0.0-1.0-189.0","0","0","44491","","null","","","null","20","","","","","","","","","","","","","","","NaN",""
"","S1","","html-keyboard-response","137","222268","0.0-1.0-191.0","0","0","44491","","null","","","null","21","","","","","","","","","","","","","","","",""
"","ISI","","html-keyboard-response","138","224270","0.0-1.0-192.0","0","0","44491","","null","","","null","21","NaN","","","","","","","","","","","","","","",""
"","S2","","html-keyboard-response","139","224462","0.0-1.0-193.0","0","0","44491","","191","","","75","21","","k","1","21","training","adjacent","DE","4","5","L.jpg","P.jpg","1","1","1","",""
"","feedback","","html-keyboard-response","140","225464","0.0-1.0-195.0-0.0","0","0","44491","","null","","","null","21","","","","","","","","","","","","","","","",""
"","ITI","","html-keyboard-response","141","226466","0.0-1.0-198.0","0","0","44491","","null","","","null","21","","","","","","","","","","","","","","","NaN",""
"","S1","","html-keyboard-response","142","226717","0.0-1.0-200.0","0","0","44491","","null","","","null","22","","","","","","","","","","","","","","","",""
"","ISI","","html-keyboard-response","143","228718","0.0-1.0-201.0","0","0","44491","","null","","","null","22","NaN","","","","","","","","","","","","","","",""
"","S2","","html-keyboard-response","144","228966","0.0-1.0-202.0","0","0","44491","","247","","","75","22","","k","1","22","training","adjacent","EF","5","6","P.jpg","O.jpg","1","1","1","",""
"","feedback","","html-keyboard-response","145","229968","0.0-1.0-204.0-0.0","0","0","44491","","null","","","null","22","","","","","","","","","","","","","","","",""
"","ITI","","html-keyboard-response","146","230969","0.0-1.0-207.0","0","0","44491","","null","","","null","22","","","","","","","","","","","","","","","NaN",""
"","S1","","html-keyboard-response","147","231221","0.0-1.0-209.0","0","0","44491","","null","","","null","23","","","","","","","","","","","","","","","",""
"","ISI","","html-keyboard-response","148","233223","0.0-1.0-210.0","0","0","44491","","null","","","null","23","NaN","","","","","","","","","","","","","","",""
"","S2","","html-keyboard-response","149","233474","0.0-1.0-211.0","0","0","44491","","null","","","null","23","","NaN","","","","","","","","","","","","","",""
"","response","","html-keyboard-response","150","233503","0.0-1.0-212.0-0.0","0","0","44491","","28","","","68","23","","","1","23","training","adjacent","FG","6","7","O.jpg","Q.jpg","0","1","0","",""
"","feedback","","html-keyboard-response","151","234505","0.0-1.0-213.0-0.0","0","0","44491","","null","","","null","23","","","","","","","","","","","","","","","",""
"","time_out","","html-keyboard-response","152","236507","0.0-1.0-215.0-0.0","0","0","44491","","null","","","null","23","","","","","","","","","","","","","","","",""
"","ITI","","html-keyboard-response","153","237508","0.0-1.0-216.0","0","0","44491","","null","","","null","23","","","","","","","","","","","","","","","NaN",""
"","S1","","html-keyboard-response","154","237760","0.0-1.0-218.0","0","0","44491","","null","","","null","24","","","","","","","","","","","","","","","",""
"","ISI","","html-keyboard-response","155","239761","0.0-1.0-219.0","0","0","44491","","null","","","null","24","NaN","","","","","","","","","","","","","","",""
"","S2","","html-keyboard-response","156","240012","0.0-1.0-220.0","0","0","44491","","null","","","null","24","","NaN","","","","","","","","","","","","","",""
"","response","","html-keyboard-response","157","240296","0.0-1.0-221.0-0.0","0","0","44491","","283","","","68","24","","","1","24","training","adjacent","CD","3","4","M.jpg","L.jpg","0","1","0","",""
"","feedback","","html-keyboard-response","158","241297","0.0-1.0-222.0-0.0","0","0","44491","","null","","","null","24","","","","","","","","","","","","","","","",""
"","time_out","","html-keyboard-response","159","243307","0.0-1.0-224.0-0.0","0","0","44491","","null","","","null","24","","","","","","","","","","","","","","","",""
"","ITI","","html-keyboard-response","160","244309","0.0-1.0-225.0","0","0","44491","","null","","","null","24","","","","","","","","","","","","","","","NaN",""
"","S1","","html-keyboard-response","161","244560","0.0-1.0-227.0","0","0","44491","","null","","","null","25","","","","","","","","","","","","","","","",""
"","ISI","","html-keyboard-response","162","246562","0.0-1.0-228.0","0","0","44491","","null","","","null","25","NaN","","","","","","","","","","","","","","",""
"","S2","","html-keyboard-response","163","246813","0.0-1.0-229.0","0","0","44491","","null","","","null","25","","NaN","","","","","","","","","","","","","",""
"","response","","html-keyboard-response","164","247008","0.0-1.0-230.0-0.0","0","0","44491","","194","","","68","25","","","1","25","training","adjacent","BC","2","3","N.jpg","M.jpg","0","1","0","",""
"","feedback","","html-keyboard-response","165","248023","0.0-1.0-231.0-0.0","0","0","44491","","null","","","null","25","","","","","","","","","","","","","","","",""
"","time_out","","html-keyboard-response","166","250025","0.0-1.0-233.0-0.0","0","0","44491","","null","","","null","25","","","","","","","","","","","","","","","",""
"","ITI","","html-keyboard-response","167","251027","0.0-1.0-234.0","0","0","44491","","null","","","null","25","","","","","","","","","","","","","","","NaN",""
"","S1","","html-keyboard-response","168","251278","0.0-1.0-236.0","0","0","44491","","null","","","null","26","","","","","","","","","","","","","","","",""
"","ISI","","html-keyboard-response","169","253280","0.0-1.0-237.0","0","0","44491","","null","","","null","26","NaN","","","","","","","","","","","","","","",""
"","S2","","html-keyboard-response","170","253532","0.0-1.0-238.0","0","0","44491","","null","","","null","26","","NaN","","","","","","","","","","","","","",""
"","response","","html-keyboard-response","171","253665","0.0-1.0-239.0-0.0","0","0","44491","","132","","","68","26","","","1","26","training","adjacent","FE","6","5","O.jpg","P.jpg","0","0","1","",""
"","feedback","","html-keyboard-response","172","254679","0.0-1.0-240.0-0.0","0","0","44491","","null","","","null","26","","","","","","","","","","","","","","","",""
"","ITI","","html-keyboard-response","173","255681","0.0-1.0-243.0","0","0","44491","","null","","","null","26","","","","","","","","","","","","","","","NaN",""
"","S1","","html-keyboard-response","174","255932","0.0-1.0-245.0","0","0","44491","","null","","","null","27","","","","","","","","","","","","","","","",""
"","ISI","","html-keyboard-response","175","257934","0.0-1.0-246.0","0","0","44491","","null","","","null","27","NaN","","","","","","","","","","","","","","",""
"","S2","","html-keyboard-response","176","258185","0.0-1.0-247.0","0","0","44491","","null","","","null","27","","NaN","","","","","","","","","","","","","",""
"","response","","html-keyboard-response","177","258330","0.0-1.0-248.0-0.0","0","0","44491","","144","","","68","27","","","1","27","training","adjacent","GF","7","6","Q.jpg","O.jpg","0","0","1","",""
"","feedback","","html-keyboard-response","178","259332","0.0-1.0-249.0-0.0","0","0","44491","","null","","","null","27","","","","","","","","","","","","","","","",""
"","ITI","","html-keyboard-response","179","260334","0.0-1.0-252.0","0","0","44491","","null","","","null","27","","","","","","","","","","","","","","","NaN",""
"","S1","","html-keyboard-response","180","260594","0.0-1.0-254.0","0","0","44491","","null","","","null","28","","","","","","","","","","","","","","","",""
"","ISI","","html-keyboard-response","181","262596","0.0-1.0-255.0","0","0","44491","","null","","","null","28","NaN","","","","","","","","","","","","","","",""
"","S2","","html-keyboard-response","182","262847","0.0-1.0-256.0","0","0","44491","","null","","","null","28","","NaN","","","","","","","","","","","","","",""
"","response","","html-keyboard-response","183","263106","0.0-1.0-257.0-0.0","0","0","44491","","258","","","75","28","","","1","28","training","adjacent","ED","5","4","P.jpg","L.jpg","1","0","0","",""
"","feedback","","html-keyboard-response","184","264108","0.0-1.0-258.0-0.0","0","0","44491","","null","","","null","28","","","","","","","","","","","","","","","",""
"","time_out","","html-keyboard-response","185","266110","0.0-1.0-260.0-0.0","0","0","44491","","null","","","null","28","","","","","","","","","","","","","","","",""
"","ITI","","html-keyboard-response","186","267112","0.0-1.0-261.0","0","0","44491","","null","","","null","28","","","","","","","","","","","","","","","NaN",""
"","S1","","html-keyboard-response","187","267364","0.0-1.0-263.0","0","0","44491","","null","","","null","29","","","","","","","","","","","","","","","",""
"","ISI","","html-keyboard-response","188","269366","0.0-1.0-264.0","0","0","44491","","null","","","null","29","NaN","","","","","","","","","","","","","","",""
"","S2","","html-keyboard-response","189","269618","0.0-1.0-265.0","0","0","44491","","null","","","null","29","","NaN","","","","","","","","","","","","","",""
"","response","","html-keyboard-response","190","269651","0.0-1.0-266.0-0.0","0","0","44491","","32","","","75","29","","","1","29","training","adjacent","BA","2","1","N.jpg","R.jpg","1","0","0","",""
"","feedback","","html-keyboard-response","191","270661","0.0-1.0-267.0-0.0","0","0","44491","","null","","","null","29","","","","","","","","","","","","","","","",""
"","time_out","","html-keyboard-response","192","272662","0.0-1.0-269.0-0.0","0","0","44491","","null","","","null","29","","","","","","","","","","","","","","","",""
"","ITI","","html-keyboard-response","193","273664","0.0-1.0-270.0","0","0","44491","","null","","","null","29","","","","","","","","","","","","","","","NaN",""
"","S1","","html-keyboard-response","194","273915","0.0-1.0-272.0","0","0","44491","","null","","","null","30","","","","","","","","","","","","","","","",""
"","ISI","","html-keyboard-response","195","275917","0.0-1.0-273.0","0","0","44491","","null","","","null","30","NaN","","","","","","","","","","","","","","",""
"","S2","","html-keyboard-response","196","276170","0.0-1.0-274.0","0","0","44491","","null","","","null","30","","NaN","","","","","","","","","","","","","",""
"","response","","html-keyboard-response","197","276364","0.0-1.0-275.0-0.0","0","0","44491","","193","","","75","30","","","1","30","training","adjacent","DC","4","3","L.jpg","M.jpg","1","0","0","",""
"","feedback","","html-keyboard-response","198","277366","0.0-1.0-276.0-0.0","0","0","44491","","null","","","null","30","","","","","","","","","","","","","","","",""
"","time_out","","html-keyboard-response","199","279368","0.0-1.0-278.0-0.0","0","0","44491","","null","","","null","30","","","","","","","","","","","","","","","",""
"","ITI","","html-keyboard-response","200","280369","0.0-1.0-279.0","0","0","44491","","null","","","null","30","","","","","","","","","","","","","","","NaN",""
"","S1","","html-keyboard-response","201","280620","0.0-1.0-281.0","0","0","44491","","null","","","null","31","","","","","","","","","","","","","","","",""
"","ISI","","html-keyboard-response","202","282622","0.0-1.0-282.0","0","0","44491","","null","","","null","31","NaN","","","","","","","","","","","","","","",""
"","S2","","html-keyboard-response","203","282874","0.0-1.0-283.0","0","0","44491","","null","","","null","31","","NaN","","","","","","","","","","","","","",""
"","response","","html-keyboard-response","204","282924","0.0-1.0-284.0-0.0","0","0","44491","","50","","","75","31","","","1","31","training","adjacent","FE","6","5","O.jpg","P.jpg","1","0","0","",""
"","feedback","","html-keyboard-response","205","283926","0.0-1.0-285.0-0.0","0","0","44491","","null","","","null","31","","","","","","","","","","","","","","","",""
"","time_out","","html-keyboard-response","206","285928","0.0-1.0-287.0-0.0","0","0","44491","","null","","","null","31","","","","","","","","","","","","","","","",""
"","ITI","","html-keyboard-response","207","286930","0.0-1.0-288.0","0","0","44491","","null","","","null","31","","","","","","","","","","","","","","","NaN",""
"","S1","","html-keyboard-response","208","287181","0.0-1.0-290.0","0","0","44491","","null","","","null","32","","","","","","","","","","","","","","","",""
"","ISI","","html-keyboard-response","209","289183","0.0-1.0-291.0","0","0","44491","","null","","","null","32","NaN","","","","","","","","","","","","","","",""
"","S2","","html-keyboard-response","210","289434","0.0-1.0-292.0","0","0","44491","","null","","","null","32","","NaN","","","","","","","","","","","","","",""
"","response","","html-keyboard-response","211","289445","0.0-1.0-293.0-0.0","0","0","44491","","10","","","75","32","","","1","32","training","adjacent","DE","4","5","L.jpg","P.jpg","1","1","1","",""
"","feedback","","html-keyboard-response","212","290447","0.0-1.0-294.0-0.0","0","0","44491","","null","","","null","32","","","","","","","","","","","","","","","",""
"","ITI","","html-keyboard-response","213","291449","0.0-1.0-297.0","0","0","44491","","null","","","null","32","","","","","","","","","","","","","","","NaN",""
"","S1","","html-keyboard-response","214","291701","0.0-1.0-299.0","0","0","44491","","null","","","null","33","","","","","","","","","","","","","","","",""
"","ISI","","html-keyboard-response","215","293703","0.0-1.0-300.0","0","0","44491","","null","","","null","33","NaN","","","","","","","","","","","","","","",""
"","S2","","html-keyboard-response","216","293957","0.0-1.0-301.0","0","0","44491","","null","","","null","33","","NaN","","","","","","","","","","","","","",""
"","response","","html-keyboard-response","217","294006","0.0-1.0-302.0-0.0","0","0","44491","","48","","","75","33","","","1","33","training","adjacent","GF","7","6","Q.jpg","O.jpg","1","0","0","",""
"","feedback","","html-keyboard-response","218","295007","0.0-1.0-303.0-0.0","0","0","44491","","null","","","null","33","","","","","","","","","","","","","","","",""
"","time_out","","html-keyboard-response","219","297009","0.0-1.0-305.0-0.0","0","0","44491","","null","","","null","33","","","","","","","","","","","","","","","",""
"","ITI","","html-keyboard-response","220","298011","0.0-1.0-306.0","0","0","44491","","null","","","null","33","","","","","","","","","","","","","","","NaN",""
"","S1","","html-keyboard-response","221","298262","0.0-1.0-308.0","0","0","44491","","null","","","null","34","","","","","","","","","","","","","","","",""
"","ISI","","html-keyboard-response","222","300264","0.0-1.0-309.0","0","0","44491","","null","","","null","34","NaN","","","","","","","","","","","","","","",""
"","S2","","html-keyboard-response","223","300516","0.0-1.0-310.0","0","0","44491","","null","","","null","34","","NaN","","","","","","","","","","","","","",""
"","response","","html-keyboard-response","224","300526","0.0-1.0-311.0-0.0","0","0","44491","","10","","","68","34","","","1","34","training","adjacent","EF","5","6","P.jpg","O.jpg","0","1","0","",""
"","feedback","","html-keyboard-response","225","301527","0.0-1.0-312.0-0.0","0","0","44491","","null","","","null","34","","","","","","","","","","","","","","","",""
"","time_out","","html-keyboard-response","226","303529","0.0-1.0-314.0-0.0","0","0","44491","","null","","","null","34","","","","","","","","","","","","","","","",""
"","ITI","","html-keyboard-response","227","304531","0.0-1.0-315.0","0","0","44491","","null","","","null","34","","","","","","","","","","","","","","","NaN",""
"","S1","","html-keyboard-response","228","304782","0.0-1.0-317.0","0","0","44491","","null","","","null","35","","","","","","","","","","","","","","","",""
"","ISI","","html-keyboard-response","229","306784","0.0-1.0-318.0","0","0","44491","","null","","","null","35","NaN","","","","","","","","","","","","","","",""
"","S2","","html-keyboard-response","230","306975","0.0-1.0-319.0","0","0","44491","","189","","","68","35","","d","1","35","training","adjacent","FG","6","7","O.jpg","Q.jpg","0","1","0","",""
"","feedback","","html-keyboard-response","231","307977","0.0-1.0-321.0-0.0","0","0","44491","","null","","","null","35","","","","","","","","","","","","","","","",""
"","time_out","","html-keyboard-response","232","309979","0.0-1.0-323.0-0.0","0","0","44491","","null","","","null","35","","","","","","","","","","","","","","","",""
"","ITI","","html-keyboard-response","233","310981","0.0-1.0-324.0","0","0","44491","","null","","","null","35","","","","","","","","","","","","","","","NaN",""
"","S1","","html-keyboard-response","234","311232","0.0-1.0-326.0","0","0","44491","","null","","","null","36","","","","","","","","","","","","","","","",""
"","ISI","","html-keyboard-response","235","313234","0.0-1.0-327.0","0","0","44491","","null","","","null","36","NaN","","","","","","","","","","","","","","",""
"","S2","","html-keyboard-response","236","313456","0.0-1.0-328.0","0","0","44491","","221","","","68","36","","d","1","36","training","adjacent","DC","4","3","L.jpg","M.jpg","0","0","1","",""
"","feedback","","html-keyboard-response","237","314458","0.0-1.0-330.0-0.0","0","0","44491","","null","","","null","36","","","","","","","","","","","","","","","",""
"","ITI","","html-keyboard-response","238","315460","0.0-1.0-333.0","0","0","44491","","null","","","null","36","","","","","","","","","","","","","","","NaN",""
"","S1","","html-keyboard-response","239","315711","0.0-1.0-335.0","0","0","44491","","null","","","null","37","","","","","","","","","","","","","","","",""
"","ISI","","html-keyboard-response","240","317713","0.0-1.0-336.0","0","0","44491","","null","","","null","37","NaN","","","","","","","","","","","","","","",""
"","S2","","html-keyboard-response","241","317964","0.0-1.0-337.0","0","0","44491","","null","","","null","37","","NaN","","","","","","","","","","","","","",""
"","response","","html-keyboard-response","242","318024","0.0-1.0-338.0-0.0","0","0","44491","","59","","","68","37","","","1","37","training","adjacent","CD","3","4","M.jpg","L.jpg","0","1","0","",""
"","feedback","","html-keyboard-response","243","319026","0.0-1.0-339.0-0.0","0","0","44491","","null","","","null","37","","","","","","","","","","","","","","","",""
"","time_out","","html-keyboard-response","244","321028","0.0-1.0-341.0-0.0","0","0","44491","","null","","","null","37","","","","","","","","","","","","","","","",""
"","ITI","","html-keyboard-response","245","322030","0.0-1.0-342.0","0","0","44491","","null","","","null","37","","","","","","","","","","","","","","","NaN",""
"","S1","","html-keyboard-response","246","322281","0.0-1.0-344.0","0","0","44491","","null","","","null","38","","","","","","","","","","","","","","","",""
"","ISI","","html-keyboard-response","247","324283","0.0-1.0-345.0","0","0","44491","","null","","","null","38","NaN","","","","","","","","","","","","","","",""
"","S2","","html-keyboard-response","248","324535","0.0-1.0-346.0","0","0","44491","","null","","","null","38","","NaN","","","","","","","","","","","","","",""
"","response","","html-keyboard-response","249","324593","0.0-1.0-347.0-0.0","0","0","44491","","56","","","75","38","","","1","38","training","adjacent","CD","3","4","M.jpg","L.jpg","1","1","1","",""
"","feedback","","html-keyboard-response","250","325595","0.0-1.0-348.0-0.0","0","0","44491","","null","","","null","38","","","","","","","","","","","","","","","",""
"","ITI","","html-keyboard-response","251","326597","0.0-1.0-351.0","0","0","44491","","null","","","null","38","","","","","","","","","","","","","","","NaN",""
"","S1","","html-keyboard-response","252","326848","0.0-1.0-353.0","0","0","44491","","null","","","null","39","","","","","","","","","","","","","","","",""
"","ISI","","html-keyboard-response","253","328850","0.0-1.0-354.0","0","0","44491","","null","","","null","39","NaN","","","","","","","","","","","","","","",""
"","S2","","html-keyboard-response","254","329102","0.0-1.0-355.0","0","0","44491","","null","","","null","39","","NaN","","","","","","","","","","","","","",""
"","response","","html-keyboard-response","255","329138","0.0-1.0-356.0-0.0","0","0","44491","","35","","","75","39","","","1","39","training","adjacent","BC","2","3","N.jpg","M.jpg","1","1","1","",""
"","feedback","","html-keyboard-response","256","330140","0.0-1.0-357.0-0.0","0","0","44491","","null","","","null","39","","","","","","","","","","","","","","","",""
"","ITI","","html-keyboard-response","257","331142","0.0-1.0-360.0","0","0","44491","","null","","","null","39","","","","","","","","","","","","","","","NaN",""
"","S1","","html-keyboard-response","258","331394","0.0-1.0-362.0","0","0","44491","","null","","","null","40","","","","","","","","","","","","","","","",""
"","ISI","","html-keyboard-response","259","333396","0.0-1.0-363.0","0","0","44491","","null","","","null","40","NaN","","","","","","","","","","","","","","",""
"","S2","","html-keyboard-response","260","333647","0.0-1.0-364.0","0","0","44491","","null","","","null","40","","NaN","","","","","","","","","","","","","",""
"","response","","html-keyboard-response","261","333962","0.0-1.0-365.0-0.0","0","0","44491","","314","","","75","40","","","1","40","training","adjacent","CB","3","2","M.jpg","N.jpg","1","0","0","",""
"","feedback","","html-keyboard-response","262","334964","0.0-1.0-366.0-0.0","0","0","44491","","null","","","null","40","","","","","","","","","","","","","","","",""
"","time_out","","html-keyboard-response","263","336966","0.0-1.0-368.0-0.0","0","0","44491","","null","","","null","40","","","","","","","","","","","","","","","",""
"","ITI","","html-keyboard-response","264","337968","0.0-1.0-369.0","0","0","44491","","null","","","null","40","","","","","","","","","","","","","","","NaN",""
"","S1","","html-keyboard-response","265","338219","0.0-1.0-371.0","0","0","44491","","null","","","null","41","","","","","","","","","","","","","","","",""
"","ISI","","html-keyboard-response","266","340221","0.0-1.0-372.0","0","0","44491","","null","","","null","41","NaN","","","","","","","","","","","","","","",""
"","S2","","html-keyboard-response","267","340472","0.0-1.0-373.0","0","0","44491","","null","","","null","41","","NaN","","","","","","","","","","","","","",""
"","response","","html-keyboard-response","268","340523","0.0-1.0-374.0-0.0","0","0","44491","","50","","","75","41","","","1","41","training","adjacent","GF","7","6","Q.jpg","O.jpg","1","0","0","",""
"","feedback","","html-keyboard-response","269","341525","0.0-1.0-375.0-0.0","0","0","44491","","null","","","null","41","","","","","","","","","","","","","","","",""
"","time_out","","html-keyboard-response","270","343527","0.0-1.0-377.0-0.0","0","0","44491","","null","","","null","41","","","","","","","","","","","","","","","",""
"","ITI","","html-keyboard-response","271","344528","0.0-1.0-378.0","0","0","44491","","null","","","null","41","","","","","","","","","","","","","","","NaN",""
"","S1","","html-keyboard-response","272","344780","0.0-1.0-380.0","0","0","44491","","null","","","null","42","","","","","","","","","","","","","","","",""
"","ISI","","html-keyboard-response","273","346781","0.0-1.0-381.0","0","0","44491","","null","","","null","42","NaN","","","","","","","","","","","","","","",""
"","S2","","html-keyboard-response","274","347027","0.0-1.0-382.0","0","0","44491","","245","","","68","42","","d","1","42","training","adjacent","BC","2","3","N.jpg","M.jpg","0","1","0","",""
"","feedback","","html-keyboard-response","275","348033","0.0-1.0-384.0-0.0","0","0","44491","","null","","","null","42","","","","","","","","","","","","","","","",""
"","time_out","","html-keyboard-response","276","350034","0.0-1.0-386.0-0.0","0","0","44491","","null","","","null","42","","","","","","","","","","","","","","","",""
"","ITI","","html-keyboard-response","277","351036","0.0-1.0-387.0","0","0","44491","","null","","","null","42","","","","","","","","","","","","","","","NaN",""
"","S1","","html-keyboard-response","278","351287","0.0-1.0-389.0","0","0","44491","","null","","","null","43","","","","","","","","","","","","","","","",""
"","ISI","","html-keyboard-response","279","353289","0.0-1.0-390.0","0","0","44491","","null","","","null","43","NaN","","","","","","","","","","","","","","",""
"","S2","","html-keyboard-response","280","353540","0.0-1.0-391.0","0","0","44491","","null","","","null","43","","NaN","","","","","","","","","","","","","",""
"","response","","html-keyboard-response","281","353580","0.0-1.0-392.0-0.0","0","0","44491","","40","","","75","43","","","1","43","training","adjacent","CD","3","4","M.jpg","L.jpg","1","1","1","",""
"","feedback","","html-keyboard-response","282","354582","0.0-1.0-393.0-0.0","0","0","44491","","null","","","null","43","","","","","","","","","","","","","","","",""
"","ITI","","html-keyboard-response","283","355584","0.0-1.0-396.0","0","0","44491","","null","","","null","43","","","","","","","","","","","","","","","NaN",""
"","S1","","html-keyboard-response","284","355836","0.0-1.0-398.0","0","0","44491","","null","","","null","44","","","","","","","","","","","","","","","",""
"","ISI","","html-keyboard-response","285","357838","0.0-1.0-399.0","0","0","44491","","null","","","null","44","NaN","","","","","","","","","","","","","","",""
"","S2","","html-keyboard-response","286","358089","0.0-1.0-400.0","0","0","44491","","null","","","null","44","","NaN","","","","","","","","","","","","","",""
"","response","","html-keyboard-response","287","358125","0.0-1.0-401.0-0.0","0","0","44491","","35","","","75","44","","","1","44","training","adjacent","ED","5","4","P.jpg","L.jpg","1","0","0","",""
"","feedback","","html-keyboard-response","288","359127","0.0-1.0-402.0-0.0","0","0","44491","","null","","","null","44","","","","","","","","","","","","","","","",""
"","time_out","","html-keyboard-response","289","361128","0.0-1.0-404.0-0.0","0","0","44491","","null","","","null","44","","","","","","","","","","","","","","","",""
"","ITI","","html-keyboard-response","290","362130","0.0-1.0-405.0","0","0","44491","","null","","","null","44","","","","","","","","","","","","","","","NaN",""
"","S1","","html-keyboard-response","291","362383","0.0-1.0-407.0","0","0","44491","","null","","","null","45","","","","","","","","","","","","","","","",""
"","ISI","","html-keyboard-response","292","364384","0.0-1.0-408.0","0","0","44491","","310","","","75","45","k","","","","","","","","","","","","","","",""
"","S2","","html-keyboard-response","293","364598","0.0-1.0-409.0","0","0","44491","","212","","","75","45","","k","1","45","training","adjacent","CB","3","2","M.jpg","N.jpg","1","0","0","",""
"","feedback","","html-keyboard-response","294","365599","0.0-1.0-411.0-0.0","0","0","44491","","null","","","null","45","","","","","","","","","","","","","","","",""
"","time_out","","html-keyboard-response","295","367601","0.0-1.0-413.0-0.0","0","0","44491","","null","","","null","45","","","","","","","","","","","","","","","",""
"","ITI","","html-keyboard-response","296","368603","0.0-1.0-414.0","0","0","44491","","null","","","null","45","","","","","","","","","","","","","","","NaN",""
"","S1","","html-keyboard-response","297","368854","0.0-1.0-416.0","0","0","44491","","null","","","null","46","","","","","","","","","","","","","","","",""
"","ISI","","html-keyboard-response","298","370856","0.0-1.0-417.0","0","0","44491","","null","","","null","46","NaN","","","","","","","","","","","","","","",""
"","S2","","html-keyboard-response","299","371107","0.0-1.0-418.0","0","0","44491","","null","","","null","46","","NaN","","","","","","","","","","","","","",""
"","response","","html-keyboard-response","300","371470","0.0-1.0-419.0-0.0","0","0","44491","","363","","","75","46","","","1","46","training","adjacent","AB","1","2","R.jpg","N.jpg","1","1","1","",""
"","feedback","","html-keyboard-response","301","372472","0.0-1.0-420.0-0.0","0","0","44491","","null","","","null","46","","","","","","","","","","","","","","","",""
"","ITI","","html-keyboard-response","302","373474","0.0-1.0-423.0","0","0","44491","","null","","","null","46","","","","","","","","","","","","","","","NaN",""
"","S1","","html-keyboard-response","303","373725","0.0-1.0-425.0","0","0","44491","","null","","","null","47","","","","","","","","","","","","","","","",""
"","ISI","","html-keyboard-response","304","375727","0.0-1.0-426.0","0","0","44491","","null","","","null","47","NaN","","","","","","","","","","","","","","",""
"","S2","","html-keyboard-response","305","375978","0.0-1.0-427.0","0","0","44491","","null","","","null","47","","NaN","","","","","","","","","","","","","",""
"","response","","html-keyboard-response","306","376439","0.0-1.0-428.0-0.0","0","0","44491","","459","","","75","47","","","1","47","training","adjacent","BA","2","1","N.jpg","R.jpg","1","0","0","",""
"","feedback","","html-keyboard-response","307","377441","0.0-1.0-429.0-0.0","0","0","44491","","null","","","null","47","","","","","","","","","","","","","","","",""
"","time_out","","html-keyboard-response","308","379444","0.0-1.0-431.0-0.0","0","0","44491","","null","","","null","47","","","","","","","","","","","","","","","",""
"","ITI","","html-keyboard-response","309","380454","0.0-1.0-432.0","0","0","44491","","null","","","null","47","","","","","","","","","","","","","","","NaN",""
"","block_over","","html-keyboard-response","310","384832","0.0-1.0-433.0-0.0","0","0","44491","","4376","","","32","47","","","","","","","","","","","","","","","",""
"","S1","","html-keyboard-response","311","385083","0.0-1.0-434.0","0","0","44491","","null","","","null","48","","","","","","","","","","","","","","","",""
"","ISI","","html-keyboard-response","312","387085","0.0-1.0-435.0","0","0","44491","","null","","","null","48","NaN","","","","","","","","","","","","","","",""
"","S2","","html-keyboard-response","313","387336","0.0-1.0-436.0","0","0","44491","","null","","","null","48","","NaN","","","","","","","","","","","","","",""
"","response","","html-keyboard-response","314","387992","0.0-1.0-437.0-0.0","0","0","44491","","656","","","75","48","","","2","48","training","adjacent","CB","3","2","M.jpg","N.jpg","1","0","0","",""
"","feedback","","html-keyboard-response","315","388995","0.0-1.0-438.0-0.0","0","0","44491","","null","","","null","48","","","","","","","","","","","","","","","",""
"","time_out","","html-keyboard-response","316","390997","0.0-1.0-440.0-0.0","0","0","44491","","null","","","null","48","","","","","","","","","","","","","","","",""
"","ITI","","html-keyboard-response","317","391999","0.0-1.0-441.0","0","0","44491","","null","","","null","48","","","","","","","","","","","","","","","NaN",""
"","S1","","html-keyboard-response","318","392250","0.0-1.0-443.0","0","0","44491","","null","","","null","49","","","","","","","","","","","","","","","",""
"","ISI","","html-keyboard-response","319","394252","0.0-1.0-444.0","0","0","44491","","null","","","null","49","NaN","","","","","","","","","","","","","","",""
"","S2","","html-keyboard-response","320","394497","0.0-1.0-445.0","0","0","44491","","244","","","75","49","","k","2","49","training","adjacent","EF","5","6","P.jpg","O.jpg","1","1","1","",""
"","feedback","","html-keyboard-response","321","395499","0.0-1.0-447.0-0.0","0","0","44491","","null","","","null","49","","","","","","","","","","","","","","","",""
"","ITI","","html-keyboard-response","322","396501","0.0-1.0-450.0","0","0","44491","","null","","","null","49","","","","","","","","","","","","","","","NaN",""
"","S1","","html-keyboard-response","323","396753","0.0-1.0-452.0","0","0","44491","","null","","","null","50","","","","","","","","","","","","","","","",""
"","ISI","","html-keyboard-response","324","398755","0.0-1.0-453.0","0","0","44491","","null","","","null","50","NaN","","","","","","","","","","","","","","",""
"","S2","","html-keyboard-response","325","399006","0.0-1.0-454.0","0","0","44491","","null","","","null","50","","NaN","","","","","","","","","","","","","",""
"","response","","html-keyboard-response","326","399161","0.0-1.0-455.0-0.0","0","0","44491","","154","","","75","50","","","2","50","training","adjacent","DC","4","3","L.jpg","M.jpg","1","0","0","",""
"","feedback","","html-keyboard-response","327","400163","0.0-1.0-456.0-0.0","0","0","44491","","null","","","null","50","","","","","","","","","","","","","","","",""
"","time_out","","html-keyboard-response","328","402165","0.0-1.0-458.0-0.0","0","0","44491","","null","","","null","50","","","","","","","","","","","","","","","",""
"","ITI","","html-keyboard-response","329","403166","0.0-1.0-459.0","0","0","44491","","null","","","null","50","","","","","","","","","","","","","","","NaN",""
"","S1","","html-keyboard-response","330","403418","0.0-1.0-461.0","0","0","44491","","null","","","null","51","","","","","","","","","","","","","","","",""
"","ISI","","html-keyboard-response","331","405420","0.0-1.0-462.0","0","0","44491","","null","","","null","51","NaN","","","","","","","","","","","","","","",""
"","S2","","html-keyboard-response","332","405650","0.0-1.0-463.0","0","0","44491","","230","","","75","51","","k","2","51","training","adjacent","AB","1","2","R.jpg","N.jpg","1","1","1","",""
"","feedback","","html-keyboard-response","333","406652","0.0-1.0-465.0-0.0","0","0","44491","","null","","","null","51","","","","","","","","","","","","","","","",""
"","ITI","","html-keyboard-response","334","407654","0.0-1.0-468.0","0","0","44491","","null","","","null","51","","","","","","","","","","","","","","","NaN",""
"","S1","","html-keyboard-response","335","407906","0.0-1.0-470.0","0","0","44491","","null","","","null","52","","","","","","","","","","","","","","","",""
"","ISI","","html-keyboard-response","336","409908","0.0-1.0-471.0","0","0","44491","","null","","","null","52","NaN","","","","","","","","","","","","","","",""
"","S2","","html-keyboard-response","337","410159","0.0-1.0-472.0","0","0","44491","","null","","","null","52","","NaN","","","","","","","","","","","","","",""
"","response","","html-keyboard-response","338","410547","0.0-1.0-473.0-0.0","0","0","44491","","388","","","75","52","","","2","52","training","adjacent","FG","6","7","O.jpg","Q.jpg","1","1","1","",""
"","feedback","","html-keyboard-response","339","411549","0.0-1.0-474.0-0.0","0","0","44491","","null","","","null","52","","","","","","","","","","","","","","","",""
"","ITI","","html-keyboard-response","340","412551","0.0-1.0-477.0","0","0","44491","","null","","","null","52","","","","","","","","","","","","","","","NaN",""
"","S1","","html-keyboard-response","341","412802","0.0-1.0-479.0","0","0","44491","","null","","","null","53","","","","","","","","","","","","","","","",""
"","ISI","","html-keyboard-response","342","414804","0.0-1.0-480.0","0","0","44491","","null","","","null","53","NaN","","","","","","","","","","","","","","",""
"","S2","","html-keyboard-response","343","415055","0.0-1.0-481.0","0","0","44491","","null","","","null","53","","NaN","","","","","","","","","","","","","",""
"","response","","html-keyboard-response","344","415460","0.0-1.0-482.0-0.0","0","0","44491","","404","","","75","53","","","2","53","training","adjacent","ED","5","4","P.jpg","L.jpg","1","0","0","",""
"","feedback","","html-keyboard-response","345","416461","0.0-1.0-483.0-0.0","0","0","44491","","null","","","null","53","","","","","","","","","","","","","","","",""
"","time_out","","html-keyboard-response","346","418463","0.0-1.0-485.0-0.0","0","0","44491","","null","","","null","53","","","","","","","","","","","","","","","",""
"","ITI","","html-keyboard-response","347","419465","0.0-1.0-486.0","0","0","44491","","null","","","null","53","","","","","","","","","","","","","","","NaN",""
"","S1","","html-keyboard-response","348","419716","0.0-1.0-488.0","0","0","44491","","null","","","null","54","","","","","","","","","","","","","","","",""
"","ISI","","html-keyboard-response","349","421718","0.0-1.0-489.0","0","0","44491","","null","","","null","54","NaN","","","","","","","","","","","","","","",""
"","S2","","html-keyboard-response","350","421969","0.0-1.0-490.0","0","0","44491","","null","","","null","54","","NaN","","","","","","","","","","","","","",""
"","response","","html-keyboard-response","351","422204","0.0-1.0-491.0-0.0","0","0","44491","","234","","","75","54","","","2","54","training","adjacent","CB","3","2","M.jpg","N.jpg","1","0","0","",""
"","feedback","","html-keyboard-response","352","423206","0.0-1.0-492.0-0.0","0","0","44491","","null","","","null","54","","","","","","","","","","","","","","","",""
"","time_out","","html-keyboard-response","353","425208","0.0-1.0-494.0-0.0","0","0","44491","","null","","","null","54","","","","","","","","","","","","","","","",""
"","ITI","","html-keyboard-response","354","426210","0.0-1.0-495.0","0","0","44491","","null","","","null","54","","","","","","","","","","","","","","","NaN",""
"","S1","","html-keyboard-response","355","426462","0.0-1.0-497.0","0","0","44491","","null","","","null","55","","","","","","","","","","","","","","","",""
"","ISI","","html-keyboard-response","356","428464","0.0-1.0-498.0","0","0","44491","","null","","","null","55","NaN","","","","","","","","","","","","","","",""
"","S2","","html-keyboard-response","357","428715","0.0-1.0-499.0","0","0","44491","","null","","","null","55","","NaN","","","","","","","","","","","","","",""
"","response","","html-keyboard-response","358","428877","0.0-1.0-500.0-0.0","0","0","44491","","161","","","75","55","","","2","55","training","adjacent","FG","6","7","O.jpg","Q.jpg","1","1","1","",""
"","feedback","","html-keyboard-response","359","429879","0.0-1.0-501.0-0.0","0","0","44491","","null","","","null","55","","","","","","","","","","","","","","","",""
"","ITI","","html-keyboard-response","360","430881","0.0-1.0-504.0","0","0","44491","","null","","","null","55","","","","","","","","","","","","","","","NaN",""
"","S1","","html-keyboard-response","361","431132","0.0-1.0-506.0","0","0","44491","","null","","","null","56","","","","","","","","","","","","","","","",""
"","ISI","","html-keyboard-response","362","433134","0.0-1.0-507.0","0","0","44491","","null","","","null","56","NaN","","","","","","","","","","","","","","",""
"","S2","","html-keyboard-response","363","433394","0.0-1.0-508.0","0","0","44491","","null","","","null","56","","NaN","","","","","","","","","","","","","",""
"","response","","html-keyboard-response","364","434046","0.0-1.0-509.0-0.0","0","0","44491","","651","","","75","56","","","2","56","training","adjacent","CD","3","4","M.jpg","L.jpg","1","1","1","",""
"","feedback","","html-keyboard-response","365","435048","0.0-1.0-510.0-0.0","0","0","44491","","null","","","null","56","","","","","","","","","","","","","","","",""
"","ITI","","html-keyboard-response","366","436050","0.0-1.0-513.0","0","0","44491","","null","","","null","56","","","","","","","","","","","","","","","NaN",""
"","S1","","html-keyboard-response","367","436301","0.0-1.0-515.0","0","0","44491","","null","","","null","57","","","","","","","","","","","","","","","",""
"","ISI","","html-keyboard-response","368","438303","0.0-1.0-516.0","0","0","44491","","null","","","null","57","NaN","","","","","","","","","","","","","","",""
"","S2","","html-keyboard-response","369","438554","0.0-1.0-517.0","0","0","44491","","null","","","null","57","","NaN","","","","","","","","","","","","","",""
"","response","","html-keyboard-response","370","438975","0.0-1.0-518.0-0.0","0","0","44491","","419","","","75","57","","","2","57","training","adjacent","GF","7","6","Q.jpg","O.jpg","1","0","0","",""
"","feedback","","html-keyboard-response","371","439977","0.0-1.0-519.0-0.0","0","0","44491","","null","","","null","57","","","","","","","","","","","","","","","",""
"","time_out","","html-keyboard-response","372","441979","0.0-1.0-521.0-0.0","0","0","44491","","null","","","null","57","","","","","","","","","","","","","","","",""
"","ITI","","html-keyboard-response","373","442981","0.0-1.0-522.0","0","0","44491","","null","","","null","57","","","","","","","","","","","","","","","NaN",""
"","S1","","html-keyboard-response","374","443233","0.0-1.0-524.0","0","0","44491","","null","","","null","58","","","","","","","","","","","","","","","",""
"","ISI","","html-keyboard-response","375","445234","0.0-1.0-525.0","0","0","44491","","null","","","null","58","NaN","","","","","","","","","","","","","","",""
"","S2","","html-keyboard-response","376","445485","0.0-1.0-526.0","0","0","44491","","null","","","null","58","","NaN","","","","","","","","","","","","","",""
"","response","","html-keyboard-response","377","445815","0.0-1.0-527.0-0.0","0","0","44491","","329","","","75","58","","","2","58","training","adjacent","FE","6","5","O.jpg","P.jpg","1","0","0","",""
"","feedback","","html-keyboard-response","378","446817","0.0-1.0-528.0-0.0","0","0","44491","","null","","","null","58","","","","","","","","","","","","","","","",""
"","time_out","","html-keyboard-response","379","448833","0.0-1.0-530.0-0.0","0","0","44491","","null","","","null","58","","","","","","","","","","","","","","","",""
"","ITI","","html-keyboard-response","380","449835","0.0-1.0-531.0","0","0","44491","","null","","","null","58","","","","","","","","","","","","","","","NaN",""
"","S1","","html-keyboard-response","381","450086","0.0-1.0-533.0","0","0","44491","","null","","","null","59","","","","","","","","","","","","","","","",""
"","ISI","","html-keyboard-response","382","452088","0.0-1.0-534.0","0","0","44491","","null","","","null","59","NaN","","","","","","","","","","","","","","",""
"","S2","","html-keyboard-response","383","452340","0.0-1.0-535.0","0","0","44491","","null","","","null","59","","NaN","","","","","","","","","","","","","",""
"","response","","html-keyboard-response","384","452360","0.0-1.0-536.0-0.0","0","0","44491","","18","","","75","59","","","2","59","training","adjacent","CB","3","2","M.jpg","N.jpg","1","0","0","",""
"","feedback","","html-keyboard-response","385","453361","0.0-1.0-537.0-0.0","0","0","44491","","null","","","null","59","","","","","","","","","","","","","","","",""
"","time_out","","html-keyboard-response","386","455363","0.0-1.0-539.0-0.0","0","0","44491","","null","","","null","59","","","","","","","","","","","","","","","",""
"","ITI","","html-keyboard-response","387","456365","0.0-1.0-540.0","0","0","44491","","null","","","null","59","","","","","","","","","","","","","","","NaN",""
"","S1","","html-keyboard-response","388","456616","0.0-1.0-542.0","0","0","44491","","null","","","null","60","","","","","","","","","","","","","","","",""
"","ISI","","html-keyboard-response","389","458618","0.0-1.0-543.0","0","0","44491","","null","","","null","60","NaN","","","","","","","","","","","","","","",""
"","S2","","html-keyboard-response","390","458870","0.0-1.0-544.0","0","0","44491","","null","","","null","60","","NaN","","","","","","","","","","","","","",""
"","response","","html-keyboard-response","391","458945","0.0-1.0-545.0-0.0","0","0","44491","","74","","","75","60","","","2","60","training","adjacent","BA","2","1","N.jpg","R.jpg","1","0","0","",""
"","feedback","","html-keyboard-response","392","459947","0.0-1.0-546.0-0.0","0","0","44491","","null","","","null","60","","","","","","","","","","","","","","","",""
"","time_out","","html-keyboard-response","393","461949","0.0-1.0-548.0-0.0","0","0","44491","","null","","","null","60","","","","","","","","","","","","","","","",""
"","ITI","","html-keyboard-response","394","462951","0.0-1.0-549.0","0","0","44491","","null","","","null","60","","","","","","","","","","","","","","","NaN",""
"","S1","","html-keyboard-response","395","463202","0.0-1.0-551.0","0","0","44491","","null","","","null","61","","","","","","","","","","","","","","","",""
"","ISI","","html-keyboard-response","396","465203","0.0-1.0-552.0","0","0","44491","","null","","","null","61","NaN","","","","","","","","","","","","","","",""
"","S2","","html-keyboard-response","397","465455","0.0-1.0-553.0","0","0","44491","","null","","","null","61","","NaN","","","","","","","","","","","","","",""
"","response","","html-keyboard-response","398","465673","0.0-1.0-554.0-0.0","0","0","44491","","217","","","75","61","","","2","61","training","adjacent","FE","6","5","O.jpg","P.jpg","1","0","0","",""
"","feedback","","html-keyboard-response","399","466675","0.0-1.0-555.0-0.0","0","0","44491","","null","","","null","61","","","","","","","","","","","","","","","",""
"","time_out","","html-keyboard-response","400","468677","0.0-1.0-557.0-0.0","0","0","44491","","null","","","null","61","","","","","","","","","","","","","","","",""
"","ITI","","html-keyboard-response","401","469679","0.0-1.0-558.0","0","0","44491","","null","","","null","61","","","","","","","","","","","","","","","NaN",""
"","S1","","html-keyboard-response","402","469930","0.0-1.0-560.0","0","0","44491","","null","","","null","62","","","","","","","","","","","","","","","",""
"","ISI","","html-keyboard-response","403","471932","0.0-1.0-561.0","0","0","44491","","null","","","null","62","NaN","","","","","","","","","","","","","","",""
"","S2","","html-keyboard-response","404","472183","0.0-1.0-562.0","0","0","44491","","null","","","null","62","","NaN","","","","","","","","","","","","","",""
"","response","","html-keyboard-response","405","472466","0.0-1.0-563.0-0.0","0","0","44491","","282","","","75","62","","","2","62","training","adjacent","AB","1","2","R.jpg","N.jpg","1","1","1","",""
"","feedback","","html-keyboard-response","406","473470","0.0-1.0-564.0-0.0","0","0","44491","","null","","","null","62","","","","","","","","","","","","","","","",""
"","ITI","","html-keyboard-response","407","474472","0.0-1.0-567.0","0","0","44491","","null","","","null","62","","","","","","","","","","","","","","","NaN",""
"","S1","","html-keyboard-response","408","474723","0.0-1.0-569.0","0","0","44491","","null","","","null","63","","","","","","","","","","","","","","","",""
"","ISI","","html-keyboard-response","409","476725","0.0-1.0-570.0","0","0","44491","","null","","","null","63","NaN","","","","","","","","","","","","","","",""
"","S2","","html-keyboard-response","410","476976","0.0-1.0-571.0","0","0","44491","","null","","","null","63","","NaN","","","","","","","","","","","","","",""
"","response","","html-keyboard-response","411","477243","0.0-1.0-572.0-0.0","0","0","44491","","265","","","75","63","","","2","63","training","adjacent","CD","3","4","M.jpg","L.jpg","1","1","1","",""
"","feedback","","html-keyboard-response","412","478245","0.0-1.0-573.0-0.0","0","0","44491","","null","","","null","63","","","","","","","","","","","","","","","",""
"","ITI","","html-keyboard-response","413","479246","0.0-1.0-576.0","0","0","44491","","null","","","null","63","","","","","","","","","","","","","","","NaN",""
"","S1","","html-keyboard-response","414","479498","0.0-1.0-578.0","0","0","44491","","null","","","null","64","","","","","","","","","","","","","","","",""
"","ISI","","html-keyboard-response","415","481499","0.0-1.0-579.0","0","0","44491","","null","","","null","64","NaN","","","","","","","","","","","","","","",""
"","S2","","html-keyboard-response","416","481751","0.0-1.0-580.0","0","0","44491","","null","","","null","64","","NaN","","","","","","","","","","","","","",""
"","response","","html-keyboard-response","417","482315","0.0-1.0-581.0-0.0","0","0","44491","","564","","","68","64","","","2","64","training","adjacent","BA","2","1","N.jpg","R.jpg","0","0","1","",""
"","feedback","","html-keyboard-response","418","483317","0.0-1.0-582.0-0.0","0","0","44491","","null","","","null","64","","","","","","","","","","","","","","","",""
"","ITI","","html-keyboard-response","419","484319","0.0-1.0-585.0","0","0","44491","","null","","","null","64","","","","","","","","","","","","","","","NaN",""
"","S1","","html-keyboard-response","420","484570","0.0-1.0-587.0","0","0","44491","","null","","","null","65","","","","","","","","","","","","","","","",""
"","ISI","","html-keyboard-response","421","486571","0.0-1.0-588.0","0","0","44491","","null","","","null","65","NaN","","","","","","","","","","","","","","",""
"","S2","","html-keyboard-response","422","486823","0.0-1.0-589.0","0","0","44491","","null","","","null","65","","NaN","","","","","","","","","","","","","",""
"","response","","html-keyboard-response","423","488575","0.0-1.0-590.0-0.0","0","0","44491","","null","","","null","65","","","2","65","training","adjacent","FE","6","5","O.jpg","P.jpg","NaN","0","0","",""
"","too_slow_prompt","","html-keyboard-response","424","489576","0.0-1.0-592.0-0.0","1","0","44491","","null","","","null","","","","","","","","","","","","","","","","",""
"","time_out","","html-keyboard-response","425","491578","0.0-1.0-593.0-0.0","0","0","44491","","null","","","null","65","","","","","","","","","","","","","","","",""
"","ITI","","html-keyboard-response","426","492580","0.0-1.0-594.0","0","0","44491","","null","","","null","65","","","","","","","","","","","","","","","NaN",""
"","S1","","html-keyboard-response","427","492831","0.0-1.0-596.0","0","0","44491","","null","","","null","66","","","","","","","","","","","","","","","",""
"","ISI","","html-keyboard-response","428","494833","0.0-1.0-597.0","0","0","44491","","null","","","null","66","NaN","","","","","","","","","","","","","","",""
"","S2","","html-keyboard-response","429","495084","0.0-1.0-598.0","0","0","44491","","null","","","null","66","","NaN","","","","","","","","","","","","","",""
"","response","","html-keyboard-response","430","495533","0.0-1.0-599.0-0.0","0","0","44491","","448","","","75","66","","","2","66","training","adjacent","DE","4","5","L.jpg","P.jpg","1","1","1","",""
"","feedback","","html-keyboard-response","431","496534","0.0-1.0-600.0-0.0","0","0","44491","","null","","","null","66","","","","","","","","","","","","","","","",""
"","ITI","","html-keyboard-response","432","497537","0.0-1.0-603.0","0","0","44491","","null","","","null","66","","","","","","","","","","","","","","","NaN",""
"","S1","","html-keyboard-response","433","497788","0.0-1.0-605.0","0","0","44491","","null","","","null","67","","","","","","","","","","","","","","","",""
"","ISI","","html-keyboard-response","434","499790","0.0-1.0-606.0","0","0","44491","","null","","","null","67","NaN","","","","","","","","","","","","","","",""
"","S2","","html-keyboard-response","435","500041","0.0-1.0-607.0","0","0","44491","","null","","","null","67","","NaN","","","","","","","","","","","","","",""
"","response","","html-keyboard-response","436","500629","0.0-1.0-608.0-0.0","0","0","44491","","587","","","75","67","","","2","67","training","adjacent","BC","2","3","N.jpg","M.jpg","1","1","1","",""
"","feedback","","html-keyboard-response","437","501632","0.0-1.0-609.0-0.0","0","0","44491","","null","","","null","67","","","","","","","","","","","","","","","",""
"","ITI","","html-keyboard-response","438","502634","0.0-1.0-612.0","0","0","44491","","null","","","null","67","","","","","","","","","","","","","","","NaN",""
"","S1","","html-keyboard-response","439","502886","0.0-1.0-614.0","0","0","44491","","null","","","null","68","","","","","","","","","","","","","","","",""
"","ISI","","html-keyboard-response","440","504888","0.0-1.0-615.0","0","0","44491","","null","","","null","68","NaN","","","","","","","","","","","","","","",""
"","S2","","html-keyboard-response","441","505140","0.0-1.0-616.0","0","0","44491","","null","","","null","68","","NaN","","","","","","","","","","","","","",""
"","response","","html-keyboard-response","442","505382","0.0-1.0-617.0-0.0","0","0","44491","","241","","","68","68","","","2","68","training","adjacent","DC","4","3","L.jpg","M.jpg","0","0","1","",""
"","feedback","","html-keyboard-response","443","506383","0.0-1.0-618.0-0.0","0","0","44491","","null","","","null","68","","","","","","","","","","","","","","","",""
"","ITI","","html-keyboard-response","444","507385","0.0-1.0-621.0","0","0","44491","","null","","","null","68","","","","","","","","","","","","","","","NaN",""
"","S1","","html-keyboard-response","445","507637","0.0-1.0-623.0","0","0","44491","","null","","","null","69","","","","","","","","","","","","","","","",""
"","ISI","","html-keyboard-response","446","509639","0.0-1.0-624.0","0","0","44491","","null","","","null","69","NaN","","","","","","","","","","","","","","",""
"","S2","","html-keyboard-response","447","509891","0.0-1.0-625.0","0","0","44491","","null","","","null","69","","NaN","","","","","","","","","","","","","",""
"","response","","html-keyboard-response","448","509926","0.0-1.0-626.0-0.0","0","0","44491","","35","","","75","69","","","2","69","training","adjacent","EF","5","6","P.jpg","O.jpg","1","1","1","",""
"","feedback","","html-keyboard-response","449","510929","0.0-1.0-627.0-0.0","0","0","44491","","null","","","null","69","","","","","","","","","","","","","","","",""
"","ITI","","html-keyboard-response","450","511930","0.0-1.0-630.0","0","0","44491","","null","","","null","69","","","","","","","","","","","","","","","NaN",""
"","S1","","html-keyboard-response","451","512182","0.0-1.0-632.0","0","0","44491","","null","","","null","70","","","","","","","","","","","","","","","",""
"","ISI","","html-keyboard-response","452","514184","0.0-1.0-633.0","0","0","44491","","null","","","null","70","NaN","","","","","","","","","","","","","","",""
"","S2","","html-keyboard-response","453","514435","0.0-1.0-634.0","0","0","44491","","null","","","null","70","","NaN","","","","","","","","","","","","","",""
"","response","","html-keyboard-response","454","514575","0.0-1.0-635.0-0.0","0","0","44491","","139","","","75","70","","","2","70","training","adjacent","BA","2","1","N.jpg","R.jpg","1","0","0","",""
"","feedback","","html-keyboard-response","455","515577","0.0-1.0-636.0-0.0","0","0","44491","","null","","","null","70","","","","","","","","","","","","","","","",""
"","time_out","","html-keyboard-response","456","517579","0.0-1.0-638.0-0.0","0","0","44491","","null","","","null","70","","","","","","","","","","","","","","","",""
"","ITI","","html-keyboard-response","457","518580","0.0-1.0-639.0","0","0","44491","","null","","","null","70","","","","","","","","","","","","","","","NaN",""
"","S1","","html-keyboard-response","458","518831","0.0-1.0-641.0","0","0","44491","","null","","","null","71","","","","","","","","","","","","","","","",""
"","ISI","","html-keyboard-response","459","520833","0.0-1.0-642.0","0","0","44491","","null","","","null","71","NaN","","","","","","","","","","","","","","",""
"","S2","","html-keyboard-response","460","521084","0.0-1.0-643.0","0","0","44491","","null","","","null","71","","NaN","","","","","","","","","","","","","",""
"","response","","html-keyboard-response","461","521096","0.0-1.0-644.0-0.0","0","0","44491","","10","","","68","71","","","2","71","training","adjacent","EF","5","6","P.jpg","O.jpg","0","1","0","",""
"","feedback","","html-keyboard-response","462","522097","0.0-1.0-645.0-0.0","0","0","44491","","null","","","null","71","","","","","","","","","","","","","","","",""
"","time_out","","html-keyboard-response","463","524099","0.0-1.0-647.0-0.0","0","0","44491","","null","","","null","71","","","","","","","","","","","","","","","",""
"","ITI","","html-keyboard-response","464","525101","0.0-1.0-648.0","0","0","44491","","null","","","null","71","","","","","","","","","","","","","","","NaN",""
"","S1","","html-keyboard-response","465","525352","0.0-1.0-650.0","0","0","44491","","null","","","null","72","","","","","","","","","","","","","","","",""
"","ISI","","html-keyboard-response","466","527354","0.0-1.0-651.0","0","0","44491","","null","","","null","72","NaN","","","","","","","","","","","","","","",""
"","S2","","html-keyboard-response","467","527605","0.0-1.0-652.0","0","0","44491","","null","","","null","72","","NaN","","","","","","","","","","","","","",""
"","response","","html-keyboard-response","468","527793","0.0-1.0-653.0-0.0","0","0","44491","","187","","","75","72","","","2","72","training","adjacent","BC","2","3","N.jpg","M.jpg","1","1","1","",""
"","feedback","","html-keyboard-response","469","528795","0.0-1.0-654.0-0.0","0","0","44491","","null","","","null","72","","","","","","","","","","","","","","","",""
"","ITI","","html-keyboard-response","470","529797","0.0-1.0-657.0","0","0","44491","","null","","","null","72","","","","","","","","","","","","","","","NaN",""
"","S1","","html-keyboard-response","471","530048","0.0-1.0-659.0","0","0","44491","","null","","","null","73","","","","","","","","","","","","","","","",""
"","ISI","","html-keyboard-response","472","532050","0.0-1.0-660.0","0","0","44491","","null","","","null","73","NaN","","","","","","","","","","","","","","",""
"","S2","","html-keyboard-response","473","532301","0.0-1.0-661.0","0","0","44491","","null","","","null","73","","NaN","","","","","","","","","","","","","",""
"","response","","html-keyboard-response","474","532465","0.0-1.0-662.0-0.0","0","0","44491","","163","","","75","73","","","2","73","training","adjacent","AB","1","2","R.jpg","N.jpg","1","1","1","",""
"","feedback","","html-keyboard-response","475","533467","0.0-1.0-663.0-0.0","0","0","44491","","null","","","null","73","","","","","","","","","","","","","","","",""
"","ITI","","html-keyboard-response","476","534469","0.0-1.0-666.0","0","0","44491","","null","","","null","73","","","","","","","","","","","","","","","NaN",""
"","S1","","html-keyboard-response","477","534721","0.0-1.0-668.0","0","0","44491","","null","","","null","74","","","","","","","","","","","","","","","",""
"","ISI","","html-keyboard-response","478","536723","0.0-1.0-669.0","0","0","44491","","null","","","null","74","NaN","","","","","","","","","","","","","","",""
"","S2","","html-keyboard-response","479","536974","0.0-1.0-670.0","0","0","44491","","null","","","null","74","","NaN","","","","","","","","","","","","","",""
"","response","","html-keyboard-response","480","537017","0.0-1.0-671.0-0.0","0","0","44491","","42","","","68","74","","","2","74","training","adjacent","FG","6","7","O.jpg","Q.jpg","0","1","0","",""
"","feedback","","html-keyboard-response","481","538020","0.0-1.0-672.0-0.0","0","0","44491","","null","","","null","74","","","","","","","","","","","","","","","",""
"","time_out","","html-keyboard-response","482","540022","0.0-1.0-674.0-0.0","0","0","44491","","null","","","null","74","","","","","","","","","","","","","","","",""
"","ITI","","html-keyboard-response","483","541024","0.0-1.0-675.0","0","0","44491","","null","","","null","74","","","","","","","","","","","","","","","NaN",""
"","S1","","html-keyboard-response","484","541275","0.0-1.0-677.0","0","0","44491","","null","","","null","75","","","","","","","","","","","","","","","",""
"","ISI","","html-keyboard-response","485","543277","0.0-1.0-678.0","0","0","44491","","null","","","null","75","NaN","","","","","","","","","","","","","","",""
"","S2","","html-keyboard-response","486","543528","0.0-1.0-679.0","0","0","44491","","null","","","null","75","","NaN","","","","","","","","","","","","","",""
"","response","","html-keyboard-response","487","543571","0.0-1.0-680.0-0.0","0","0","44491","","42","","","68","75","","","2","75","training","adjacent","BA","2","1","N.jpg","R.jpg","0","0","1","",""
"","feedback","","html-keyboard-response","488","544572","0.0-1.0-681.0-0.0","0","0","44491","","null","","","null","75","","","","","","","","","","","","","","","",""
"","ITI","","html-keyboard-response","489","545574","0.0-1.0-684.0","0","0","44491","","null","","","null","75","","","","","","","","","","","","","","","NaN",""
"","S1","","html-keyboard-response","490","545825","0.0-1.0-686.0","0","0","44491","","null","","","null","76","","","","","","","","","","","","","","","",""
"","ISI","","html-keyboard-response","491","547826","0.0-1.0-687.0","0","0","44491","","null","","","null","76","NaN","","","","","","","","","","","","","","",""
"","S2","","html-keyboard-response","492","548077","0.0-1.0-688.0","0","0","44491","","null","","","null","76","","NaN","","","","","","","","","","","","","",""
"","response","","html-keyboard-response","493","548139","0.0-1.0-689.0-0.0","0","0","44491","","60","","","75","76","","","2","76","training","adjacent","FG","6","7","O.jpg","Q.jpg","1","1","1","",""
"","feedback","","html-keyboard-response","494","549141","0.0-1.0-690.0-0.0","0","0","44491","","null","","","null","76","","","","","","","","","","","","","","","",""
"","ITI","","html-keyboard-response","495","550144","0.0-1.0-693.0","0","0","44491","","null","","","null","76","","","","","","","","","","","","","","","NaN",""
"","S1","","html-keyboard-response","496","550396","0.0-1.0-695.0","0","0","44491","","null","","","null","77","","","","","","","","","","","","","","","",""
"","ISI","","html-keyboard-response","497","552397","0.0-1.0-696.0","0","0","44491","","null","","","null","77","NaN","","","","","","","","","","","","","","",""
"","S2","","html-keyboard-response","498","552649","0.0-1.0-697.0","0","0","44491","","null","","","null","77","","NaN","","","","","","","","","","","","","",""
"","response","","html-keyboard-response","499","552732","0.0-1.0-698.0-0.0","0","0","44491","","82","","","68","77","","","2","77","training","adjacent","BC","2","3","N.jpg","M.jpg","0","1","0","",""
"","feedback","","html-keyboard-response","500","553734","0.0-1.0-699.0-0.0","0","0","44491","","null","","","null","77","","","","","","","","","","","","","","","",""
"","time_out","","html-keyboard-response","501","555735","0.0-1.0-701.0-0.0","0","0","44491","","null","","","null","77","","","","","","","","","","","","","","","",""
"","ITI","","html-keyboard-response","502","556737","0.0-1.0-702.0","0","0","44491","","null","","","null","77","","","","","","","","","","","","","","","NaN",""
"","S1","","html-keyboard-response","503","556989","0.0-1.0-704.0","0","0","44491","","null","","","null","78","","","","","","","","","","","","","","","",""
"","ISI","","html-keyboard-response","504","558990","0.0-1.0-705.0","0","0","44491","","null","","","null","78","NaN","","","","","","","","","","","","","","",""
"","S2","","html-keyboard-response","505","559241","0.0-1.0-706.0","0","0","44491","","null","","","null","78","","NaN","","","","","","","","","","","","","",""
"","response","","html-keyboard-response","506","559380","0.0-1.0-707.0-0.0","0","0","44491","","139","","","75","78","","","2","78","training","adjacent","GF","7","6","Q.jpg","O.jpg","1","0","0","",""
"","feedback","","html-keyboard-response","507","560382","0.0-1.0-708.0-0.0","0","0","44491","","null","","","null","78","","","","","","","","","","","","","","","",""
"","time_out","","html-keyboard-response","508","562384","0.0-1.0-710.0-0.0","0","0","44491","","null","","","null","78","","","","","","","","","","","","","","","",""
"","ITI","","html-keyboard-response","509","563386","0.0-1.0-711.0","0","0","44491","","null","","","null","78","","","","","","","","","","","","","","","NaN",""
"","S1","","html-keyboard-response","510","563637","0.0-1.0-713.0","0","0","44491","","null","","","null","79","","","","","","","","","","","","","","","",""
"","ISI","","html-keyboard-response","511","565639","0.0-1.0-714.0","0","0","44491","","null","","","null","79","NaN","","","","","","","","","","","","","","",""
"","S2","","html-keyboard-response","512","565890","0.0-1.0-715.0","0","0","44491","","null","","","null","79","","NaN","","","","","","","","","","","","","",""
"","response","","html-keyboard-response","513","566061","0.0-1.0-716.0-0.0","0","0","44491","","169","","","75","79","","","2","79","training","adjacent","CD","3","4","M.jpg","L.jpg","1","1","1","",""
"","feedback","","html-keyboard-response","514","567063","0.0-1.0-717.0-0.0","0","0","44491","","null","","","null","79","","","","","","","","","","","","","","","",""
"","ITI","","html-keyboard-response","515","568065","0.0-1.0-720.0","0","0","44491","","null","","","null","79","","","","","","","","","","","","","","","NaN",""
"","S1","","html-keyboard-response","516","568316","0.0-1.0-722.0","0","0","44491","","null","","","null","80","","","","","","","","","","","","","","","",""
"","ISI","","html-keyboard-response","517","570319","0.0-1.0-723.0","0","0","44491","","null","","","null","80","NaN","","","","","","","","","","","","","","",""
"","S2","","html-keyboard-response","518","570570","0.0-1.0-724.0","0","0","44491","","null","","","null","80","","NaN","","","","","","","","","","","","","",""
"","response","","html-keyboard-response","519","570654","0.0-1.0-725.0-0.0","0","0","44491","","83","","","68","80","","","2","80","training","adjacent","BC","2","3","N.jpg","M.jpg","0","1","0","",""
"","feedback","","html-keyboard-response","520","571656","0.0-1.0-726.0-0.0","0","0","44491","","null","","","null","80","","","","","","","","","","","","","","","",""
"","time_out","","html-keyboard-response","521","573658","0.0-1.0-728.0-0.0","0","0","44491","","null","","","null","80","","","","","","","","","","","","","","","",""
"","ITI","","html-keyboard-response","522","574660","0.0-1.0-729.0","0","0","44491","","null","","","null","80","","","","","","","","","","","","","","","NaN",""
"","S1","","html-keyboard-response","523","574911","0.0-1.0-731.0","0","0","44491","","null","","","null","81","","","","","","","","","","","","","","","",""
"","ISI","","html-keyboard-response","524","576913","0.0-1.0-732.0","0","0","44491","","null","","","null","81","NaN","","","","","","","","","","","","","","",""
"","S2","","html-keyboard-response","525","577164","0.0-1.0-733.0","0","0","44491","","null","","","null","81","","NaN","","","","","","","","","","","","","",""
"","response","","html-keyboard-response","526","577486","0.0-1.0-734.0-0.0","0","0","44491","","322","","","75","81","","","2","81","training","adjacent","GF","7","6","Q.jpg","O.jpg","1","0","0","",""
"","feedback","","html-keyboard-response","527","578488","0.0-1.0-735.0-0.0","0","0","44491","","null","","","null","81","","","","","","","","","","","","","","","",""
"","time_out","","html-keyboard-response","528","580490","0.0-1.0-737.0-0.0","0","0","44491","","null","","","null","81","","","","","","","","","","","","","","","",""
"","ITI","","html-keyboard-response","529","581491","0.0-1.0-738.0","0","0","44491","","null","","","null","81","","","","","","","","","","","","","","","NaN",""
"","S1","","html-keyboard-response","530","581743","0.0-1.0-740.0","0","0","44491","","null","","","null","82","","","","","","","","","","","","","","","",""
"","ISI","","html-keyboard-response","531","583744","0.0-1.0-741.0","0","0","44491","","null","","","null","82","NaN","","","","","","","","","","","","","","",""
"","S2","","html-keyboard-response","532","583967","0.0-1.0-742.0","0","0","44491","","221","","","75","82","","k","2","82","training","adjacent","CD","3","4","M.jpg","L.jpg","1","1","1","",""
"","feedback","","html-keyboard-response","533","584968","0.0-1.0-744.0-0.0","0","0","44491","","null","","","null","82","","","","","","","","","","","","","","","",""
"","ITI","","html-keyboard-response","534","585970","0.0-1.0-747.0","0","0","44491","","null","","","null","82","","","","","","","","","","","","","","","NaN",""
"","S1","","html-keyboard-response","535","586222","0.0-1.0-749.0","0","0","44491","","null","","","null","83","","","","","","","","","","","","","","","",""
"","ISI","","html-keyboard-response","536","588223","0.0-1.0-750.0","0","0","44491","","null","","","null","83","NaN","","","","","","","","","","","","","","",""
"","S2","","html-keyboard-response","537","588475","0.0-1.0-751.0","0","0","44491","","null","","","null","83","","NaN","","","","","","","","","","","","","",""
"","response","","html-keyboard-response","538","588639","0.0-1.0-752.0-0.0","0","0","44491","","164","","","75","83","","","2","83","training","adjacent","GF","7","6","Q.jpg","O.jpg","1","0","0","",""
"","feedback","","html-keyboard-response","539","589642","0.0-1.0-753.0-0.0","0","0","44491","","null","","","null","83","","","","","","","","","","","","","","","",""
"","time_out","","html-keyboard-response","540","591643","0.0-1.0-755.0-0.0","0","0","44491","","null","","","null","83","","","","","","","","","","","","","","","",""
"","ITI","","html-keyboard-response","541","592645","0.0-1.0-756.0","0","0","44491","","null","","","null","83","","","","","","","","","","","","","","","NaN",""
"","S1","","html-keyboard-response","542","592896","0.0-1.0-758.0","0","0","44491","","null","","","null","84","","","","","","","","","","","","","","","",""
"","ISI","","html-keyboard-response","543","594898","0.0-1.0-759.0","0","0","44491","","71","","","75","84","k","","","","","","","","","","","","","","",""
"","S2","","html-keyboard-response","544","595088","0.0-1.0-760.0","0","0","44491","","190","","","75","84","","k","2","84","training","adjacent","CB","3","2","M.jpg","N.jpg","1","0","0","",""
"","feedback","","html-keyboard-response","545","596090","0.0-1.0-762.0-0.0","0","0","44491","","null","","","null","84","","","","","","","","","","","","","","","",""
"","time_out","","html-keyboard-response","546","598092","0.0-1.0-764.0-0.0","0","0","44491","","null","","","null","84","","","","","","","","","","","","","","","",""
"","ITI","","html-keyboard-response","547","599100","0.0-1.0-765.0","0","0","44491","","null","","","null","84","","","","","","","","","","","","","","","NaN",""
"","S1","","html-keyboard-response","548","599352","0.0-1.0-767.0","0","0","44491","","null","","","null","85","","","","","","","","","","","","","","","",""
"","ISI","","html-keyboard-response","549","601354","0.0-1.0-768.0","0","0","44491","","null","","","null","85","NaN","","","","","","","","","","","","","","",""
"","S2","","html-keyboard-response","550","601605","0.0-1.0-769.0","0","0","44491","","null","","","null","85","","NaN","","","","","","","","","","","","","",""
"","response","","html-keyboard-response","551","601753","0.0-1.0-770.0-0.0","0","0","44491","","147","","","68","85","","","2","85","training","adjacent","ED","5","4","P.jpg","L.jpg","0","0","1","",""
"","feedback","","html-keyboard-response","552","602755","0.0-1.0-771.0-0.0","0","0","44491","","null","","","null","85","","","","","","","","","","","","","","","",""
"","ITI","","html-keyboard-response","553","603759","0.0-1.0-774.0","0","0","44491","","null","","","null","85","","","","","","","","","","","","","","","NaN",""
"","S1","","html-keyboard-response","554","604011","0.0-1.0-776.0","0","0","44491","","null","","","null","86","","","","","","","","","","","","","","","",""
"","ISI","","html-keyboard-response","555","606012","0.0-1.0-777.0","0","0","44491","","null","","","null","86","NaN","","","","","","","","","","","","","","",""
"","S2","","html-keyboard-response","556","606264","0.0-1.0-778.0","0","0","44491","","null","","","null","86","","NaN","","","","","","","","","","","","","",""
"","response","","html-keyboard-response","557","606866","0.0-1.0-779.0-0.0","0","0","44491","","601","","","75","86","","","2","86","training","adjacent","EF","5","6","P.jpg","O.jpg","1","1","1","",""
"","feedback","","html-keyboard-response","558","607868","0.0-1.0-780.0-0.0","0","0","44491","","null","","","null","86","","","","","","","","","","","","","","","",""
"","ITI","","html-keyboard-response","559","608870","0.0-1.0-783.0","0","0","44491","","null","","","null","86","","","","","","","","","","","","","","","NaN",""
"","S1","","html-keyboard-response","560","609122","0.0-1.0-785.0","0","0","44491","","null","","","null","87","","","","","","","","","","","","","","","",""
"","ISI","","html-keyboard-response","561","611123","0.0-1.0-786.0","0","0","44491","","null","","","null","87","NaN","","","","","","","","","","","","","","",""
"","S2","","html-keyboard-response","562","611374","0.0-1.0-787.0","0","0","44491","","null","","","null","87","","NaN","","","","","","","","","","","","","",""
"","response","","html-keyboard-response","563","611787","0.0-1.0-788.0-0.0","0","0","44491","","411","","","68","87","","","2","87","training","adjacent","FE","6","5","O.jpg","P.jpg","0","0","1","",""
"","feedback","","html-keyboard-response","564","612789","0.0-1.0-789.0-0.0","0","0","44491","","null","","","null","87","","","","","","","","","","","","","","","",""
"","ITI","","html-keyboard-response","565","613791","0.0-1.0-792.0","0","0","44491","","null","","","null","87","","","","","","","","","","","","","","","NaN",""
"","S1","","html-keyboard-response","566","614042","0.0-1.0-794.0","0","0","44491","","null","","","null","88","","","","","","","","","","","","","","","",""
"","ISI","","html-keyboard-response","567","616044","0.0-1.0-795.0","0","0","44491","","null","","","null","88","NaN","","","","","","","","","","","","","","",""
"","S2","","html-keyboard-response","568","616295","0.0-1.0-796.0","0","0","44491","","null","","","null","88","","NaN","","","","","","","","","","","","","",""
"","response","","html-keyboard-response","569","616651","0.0-1.0-797.0-0.0","0","0","44491","","354","","","68","88","","","2","88","training","adjacent","AB","1","2","R.jpg","N.jpg","0","1","0","",""
"","feedback","","html-keyboard-response","570","617653","0.0-1.0-798.0-0.0","0","0","44491","","null","","","null","88","","","","","","","","","","","","","","","",""
"","time_out","","html-keyboard-response","571","619654","0.0-1.0-800.0-0.0","0","0","44491","","null","","","null","88","","","","","","","","","","","","","","","",""
"","ITI","","html-keyboard-response","572","620656","0.0-1.0-801.0","0","0","44491","","null","","","null","88","","","","","","","","","","","","","","","NaN",""
"","S1","","html-keyboard-response","573","620908","0.0-1.0-803.0","0","0","44491","","null","","","null","89","","","","","","","","","","","","","","","",""
"","ISI","","html-keyboard-response","574","622909","0.0-1.0-804.0","0","0","44491","","null","","","null","89","NaN","","","","","","","","","","","","","","",""
"","S2","","html-keyboard-response","575","623161","0.0-1.0-805.0","0","0","44491","","null","","","null","89","","NaN","","","","","","","","","","","","","",""
"","response","","html-keyboard-response","576","623380","0.0-1.0-806.0-0.0","0","0","44491","","218","","","75","89","","","2","89","training","adjacent","ED","5","4","P.jpg","L.jpg","1","0","0","",""
"","feedback","","html-keyboard-response","577","624382","0.0-1.0-807.0-0.0","0","0","44491","","null","","","null","89","","","","","","","","","","","","","","","",""
"","time_out","","html-keyboard-response","578","626384","0.0-1.0-809.0-0.0","0","0","44491","","null","","","null","89","","","","","","","","","","","","","","","",""
"","ITI","","html-keyboard-response","579","627386","0.0-1.0-810.0","0","0","44491","","null","","","null","89","","","","","","","","","","","","","","","NaN",""
"","S1","","html-keyboard-response","580","627637","0.0-1.0-812.0","0","0","44491","","null","","","null","90","","","","","","","","","","","","","","","",""
"","ISI","","html-keyboard-response","581","629639","0.0-1.0-813.0","0","0","44491","","null","","","null","90","NaN","","","","","","","","","","","","","","",""
