"success","ttype","start_time","trial_type","trial_index","time_elapsed","internal_node_id","warning","missed_checkup","PID","view_history","rt","responses","repeat_instructions","key_press","index","keypress_isi","keypress_S2","block","trial_num","phase","group_type","pair_type","S1_stim","S2_stim","S1_img","S2_img","S1_chosen","S1_higher","accuracy","keypress_iti","total_bonus_tally"
"true","full_screen","d08012022hr1339","fullscreen","0","5504","0.0-0.0","0","0","39074","","","","","","","","","","","","","","","","","","","","","",""
"","instructions","","instructions","1","37549","0.0-1.0-0.0-0.0","0","0","39074","[{""page_index"":0,""viewing_time"":5118},{""page_index"":1,""viewing_time"":7659},{""page_index"":2,""viewing_time"":17135},{""page_index"":3,""viewing_time"":2131}]","32043","","","","","","","","","","","","","","","","","","","",""
"","comprehension_check","","survey-multi-choice","2","58612","0.0-1.0-0.0-1.0","0","0","39074","","21059","{""Q0"":""True"",""Q1"":""D"",""Q2"":""When you see the prompt 'MAKE A CHOICE' after the second image was presented"",""Q3"":""Green mark"",""Q4"":""either D or K""}","0","","","","","","","","","","","","","","","","","",""
"","start_exp","","html-keyboard-response","3","60745","0.0-1.0-1.0","0","0","39074","","2127","","","32","","","","","","","","","","","","","","","","",""
"","S1","","html-keyboard-response","4","60999","0.0-1.0-2.0","0","0","39074","","null","","","null","0","","","","","","","","","","","","","","","",""
"","ISI","","html-keyboard-response","5","63002","0.0-1.0-3.0","0","0","39074","","null","","","null","0","NaN","","","","","","","","","","","","","","",""
"","S2","","html-keyboard-response","6","63255","0.0-1.0-4.0","0","0","39074","","null","","","null","0","","NaN","","","","","","","","","","","","","",""
"","response","","html-keyboard-response","7","63894","0.0-1.0-5.0","0","0","39074","","637","","","68","0","","","1","0","training","adjacent","FG","6","7","M.jpg","R.jpg","1","1","1","",""
"","feedback","","html-keyboard-response","8","64897","0.0-1.0-6.0-0.0","0","0","39074","","null","","","null","0","","","","","","","","","","","","","","","",""
"","ITI","","html-keyboard-response","9","65899","0.0-1.0-9.0","0","0","39074","","null","","","null","0","","","","","","","","","","","","","","","NaN",""
"","S1","","html-keyboard-response","10","66152","0.0-1.0-11.0","0","0","39074","","null","","","null","1","","","","","","","","","","","","","","","",""
"","ISI","","html-keyboard-response","11","68154","0.0-1.0-12.0","0","0","39074","","null","","","null","1","NaN","","","","","","","","","","","","","","",""
"","S2","","html-keyboard-response","12","68408","0.0-1.0-13.0","0","0","39074","","null","","","null","1","","NaN","","","","","","","","","","","","","",""
"","response","","html-keyboard-response","13","68742","0.0-1.0-14.0","0","0","39074","","331","","","68","1","","","1","1","training","adjacent","DC","4","3","P.jpg","Q.jpg","1","0","0","",""
"","feedback","","html-keyboard-response","14","69745","0.0-1.0-15.0-0.0","0","0","39074","","null","","","null","1","","","","","","","","","","","","","","","",""
"","time_out","","html-keyboard-response","15","71748","0.0-1.0-17.0-0.0","0","0","39074","","null","","","null","1","","","","","","","","","","","","","","","",""
"","ITI","","html-keyboard-response","16","72751","0.0-1.0-18.0","0","0","39074","","null","","","null","1","","","","","","","","","","","","","","","NaN",""
"","S1","","html-keyboard-response","17","73003","0.0-1.0-20.0","0","0","39074","","null","","","null","2","","","","","","","","","","","","","","","",""
"","ISI","","html-keyboard-response","18","75007","0.0-1.0-21.0","0","0","39074","","null","","","null","2","NaN","","","","","","","","","","","","","","",""
"","S2","","html-keyboard-response","19","75260","0.0-1.0-22.0","0","0","39074","","null","","","null","2","","NaN","","","","","","","","","","","","","",""
"","response","","html-keyboard-response","20","75564","0.0-1.0-23.0","0","0","39074","","302","","","75","2","","","1","2","training","adjacent","ED","5","4","L.jpg","P.jpg","0","0","1","",""
"","feedback","","html-keyboard-response","21","76567","0.0-1.0-24.0-0.0","0","0","39074","","null","","","null","2","","","","","","","","","","","","","","","",""
"","ITI","","html-keyboard-response","22","77570","0.0-1.0-27.0","0","0","39074","","null","","","null","2","","","","","","","","","","","","","","","NaN",""
"","S1","","html-keyboard-response","23","77824","0.0-1.0-29.0","0","0","39074","","null","","","null","3","","","","","","","","","","","","","","","",""
"","ISI","","html-keyboard-response","24","79826","0.0-1.0-30.0","0","0","39074","","null","","","null","3","NaN","","","","","","","","","","","","","","",""
"","S2","","html-keyboard-response","25","80078","0.0-1.0-31.0","0","0","39074","","null","","","null","3","","NaN","","","","","","","","","","","","","",""
"","response","","html-keyboard-response","26","80195","0.0-1.0-32.0","0","0","39074","","115","","","68","3","","","1","3","training","adjacent","DE","4","5","P.jpg","L.jpg","1","1","1","",""
"","feedback","","html-keyboard-response","27","81198","0.0-1.0-33.0-0.0","0","0","39074","","null","","","null","3","","","","","","","","","","","","","","","",""
"","ITI","","html-keyboard-response","28","82201","0.0-1.0-36.0","0","0","39074","","null","","","null","3","","","","","","","","","","","","","","","NaN",""
"","S1","","html-keyboard-response","29","82454","0.0-1.0-38.0","0","0","39074","","null","","","null","4","","","","","","","","","","","","","","","",""
"","ISI","","html-keyboard-response","30","84457","0.0-1.0-39.0","0","0","39074","","null","","","null","4","NaN","","","","","","","","","","","","","","",""
"","S2","","html-keyboard-response","31","84709","0.0-1.0-40.0","0","0","39074","","null","","","null","4","","NaN","","","","","","","","","","","","","",""
"","response","","html-keyboard-response","32","85089","0.0-1.0-41.0","0","0","39074","","378","","","75","4","","","1","4","training","adjacent","GF","7","6","R.jpg","M.jpg","0","0","1","",""
"","feedback","","html-keyboard-response","33","86091","0.0-1.0-42.0-0.0","0","0","39074","","null","","","null","4","","","","","","","","","","","","","","","",""
"","ITI","","html-keyboard-response","34","87093","0.0-1.0-45.0","0","0","39074","","null","","","null","4","","","","","","","","","","","","","","","NaN",""
"","S1","","html-keyboard-response","35","87346","0.0-1.0-47.0","0","0","39074","","null","","","null","5","","","","","","","","","","","","","","","",""
"","ISI","","html-keyboard-response","36","89349","0.0-1.0-48.0","0","0","39074","","null","","","null","5","NaN","","","","","","","","","","","","","","",""
"","S2","","html-keyboard-response","37","89600","0.0-1.0-49.0","0","0","39074","","null","","","null","5","","NaN","","","","","","","","","","","","","",""
"","response","","html-keyboard-response","38","89747","0.0-1.0-50.0","0","0","39074","","145","","","68","5","","","1","5","training","adjacent","DE","4","5","P.jpg","L.jpg","1","1","1","",""
"","feedback","","html-keyboard-response","39","90750","0.0-1.0-51.0-0.0","0","0","39074","","null","","","null","5","","","","","","","","","","","","","","","",""
"","ITI","","html-keyboard-response","40","91752","0.0-1.0-54.0","0","0","39074","","null","","","null","5","","","","","","","","","","","","","","","NaN",""
"","S1","","html-keyboard-response","41","92004","0.0-1.0-56.0","0","0","39074","","null","","","null","6","","","","","","","","","","","","","","","",""
"","ISI","","html-keyboard-response","42","94007","0.0-1.0-57.0","0","0","39074","","null","","","null","6","NaN","","","","","","","","","","","","","","",""
"","S2","","html-keyboard-response","43","94259","0.0-1.0-58.0","0","0","39074","","null","","","null","6","","NaN","","","","","","","","","","","","","",""
"","response","","html-keyboard-response","44","94567","0.0-1.0-59.0","0","0","39074","","306","","","68","6","","","1","6","training","adjacent","FG","6","7","M.jpg","R.jpg","1","1","1","",""
"","feedback","","html-keyboard-response","45","95582","0.0-1.0-60.0-0.0","0","0","39074","","null","","","null","6","","","","","","","","","","","","","","","",""
"","ITI","","html-keyboard-response","46","96585","0.0-1.0-63.0","0","0","39074","","null","","","null","6","","","","","","","","","","","","","","","NaN",""
"","S1","","html-keyboard-response","47","96837","0.0-1.0-65.0","0","0","39074","","null","","","null","7","","","","","","","","","","","","","","","",""
"","ISI","","html-keyboard-response","48","98841","0.0-1.0-66.0","0","0","39074","","null","","","null","7","NaN","","","","","","","","","","","","","","",""
"","S2","","html-keyboard-response","49","99093","0.0-1.0-67.0","0","0","39074","","null","","","null","7","","NaN","","","","","","","","","","","","","",""
"","response","","html-keyboard-response","50","99356","0.0-1.0-68.0","0","0","39074","","261","","","75","7","","","1","7","training","adjacent","AB","1","2","O.jpg","N.jpg","0","1","0","",""
"","feedback","","html-keyboard-response","51","100359","0.0-1.0-69.0-0.0","0","0","39074","","null","","","null","7","","","","","","","","","","","","","","","",""
"","time_out","","html-keyboard-response","52","102361","0.0-1.0-71.0-0.0","0","0","39074","","null","","","null","7","","","","","","","","","","","","","","","",""
"","ITI","","html-keyboard-response","53","103363","0.0-1.0-72.0","0","0","39074","","null","","","null","7","","","","","","","","","","","","","","","NaN",""
"","S1","","html-keyboard-response","54","103616","0.0-1.0-74.0","0","0","39074","","null","","","null","8","","","","","","","","","","","","","","","",""
"","ISI","","html-keyboard-response","55","105618","0.0-1.0-75.0","0","0","39074","","null","","","null","8","NaN","","","","","","","","","","","","","","",""
"","S2","","html-keyboard-response","56","105872","0.0-1.0-76.0","0","0","39074","","null","","","null","8","","NaN","","","","","","","","","","","","","",""
"","response","","html-keyboard-response","57","106202","0.0-1.0-77.0","0","0","39074","","327","","","75","8","","","1","8","training","adjacent","GF","7","6","R.jpg","M.jpg","0","0","1","",""
"","feedback","","html-keyboard-response","58","107205","0.0-1.0-78.0-0.0","0","0","39074","","null","","","null","8","","","","","","","","","","","","","","","",""
"","ITI","","html-keyboard-response","59","108208","0.0-1.0-81.0","0","0","39074","","null","","","null","8","","","","","","","","","","","","","","","NaN",""
"","S1","","html-keyboard-response","60","108460","0.0-1.0-83.0","0","0","39074","","null","","","null","9","","","","","","","","","","","","","","","",""
"","ISI","","html-keyboard-response","61","110462","0.0-1.0-84.0","0","0","39074","","null","","","null","9","NaN","","","","","","","","","","","","","","",""
"","S2","","html-keyboard-response","62","110715","0.0-1.0-85.0","0","0","39074","","null","","","null","9","","NaN","","","","","","","","","","","","","",""
"","response","","html-keyboard-response","63","111129","0.0-1.0-86.0","0","0","39074","","413","","","68","9","","","1","9","training","adjacent","BC","2","3","N.jpg","Q.jpg","1","1","1","",""
"","feedback","","html-keyboard-response","64","112131","0.0-1.0-87.0-0.0","0","0","39074","","null","","","null","9","","","","","","","","","","","","","","","",""
"","ITI","","html-keyboard-response","65","113143","0.0-1.0-90.0","0","0","39074","","null","","","null","9","","","","","","","","","","","","","","","NaN",""
"","S1","","html-keyboard-response","66","113396","0.0-1.0-92.0","0","0","39074","","null","","","null","10","","","","","","","","","","","","","","","",""
"","ISI","","html-keyboard-response","67","115399","0.0-1.0-93.0","0","0","39074","","null","","","null","10","NaN","","","","","","","","","","","","","","",""
"","S2","","html-keyboard-response","68","115651","0.0-1.0-94.0","0","0","39074","","null","","","null","10","","NaN","","","","","","","","","","","","","",""
"","response","","html-keyboard-response","69","115853","0.0-1.0-95.0","0","0","39074","","200","","","75","10","","","1","10","training","adjacent","CB","3","2","Q.jpg","N.jpg","0","0","1","",""
"","feedback","","html-keyboard-response","70","116856","0.0-1.0-96.0-0.0","0","0","39074","","null","","","null","10","","","","","","","","","","","","","","","",""
"","ITI","","html-keyboard-response","71","117858","0.0-1.0-99.0","0","0","39074","","null","","","null","10","","","","","","","","","","","","","","","NaN",""
"","S1","","html-keyboard-response","72","118112","0.0-1.0-101.0","0","0","39074","","null","","","null","11","","","","","","","","","","","","","","","",""
"","ISI","","html-keyboard-response","73","120114","0.0-1.0-102.0","0","0","39074","","null","","","null","11","NaN","","","","","","","","","","","","","","",""
"","S2","","html-keyboard-response","74","120368","0.0-1.0-103.0","0","0","39074","","null","","","null","11","","NaN","","","","","","","","","","","","","",""
"","response","","html-keyboard-response","75","120483","0.0-1.0-104.0","0","0","39074","","114","","","68","11","","","1","11","training","adjacent","DC","4","3","P.jpg","Q.jpg","1","0","0","",""
"","feedback","","html-keyboard-response","76","121488","0.0-1.0-105.0-0.0","0","0","39074","","null","","","null","11","","","","","","","","","","","","","","","",""
"","time_out","","html-keyboard-response","77","123491","0.0-1.0-107.0-0.0","0","0","39074","","null","","","null","11","","","","","","","","","","","","","","","",""
"","ITI","","html-keyboard-response","78","124493","0.0-1.0-108.0","0","0","39074","","null","","","null","11","","","","","","","","","","","","","","","NaN",""
"","S1","","html-keyboard-response","79","124746","0.0-1.0-110.0","0","0","39074","","null","","","null","12","","","","","","","","","","","","","","","",""
"","ISI","","html-keyboard-response","80","126748","0.0-1.0-111.0","0","0","39074","","null","","","null","12","NaN","","","","","","","","","","","","","","",""
"","S2","","html-keyboard-response","81","127001","0.0-1.0-112.0","0","0","39074","","null","","","null","12","","NaN","","","","","","","","","","","","","",""
"","response","","html-keyboard-response","82","127360","0.0-1.0-113.0","0","0","39074","","357","","","68","12","","","1","12","training","adjacent","DE","4","5","P.jpg","L.jpg","1","1","1","",""
"","feedback","","html-keyboard-response","83","128362","0.0-1.0-114.0-0.0","0","0","39074","","null","","","null","12","","","","","","","","","","","","","","","",""
"","ITI","","html-keyboard-response","84","129364","0.0-1.0-117.0","0","0","39074","","null","","","null","12","","","","","","","","","","","","","","","NaN",""
"","S1","","html-keyboard-response","85","129617","0.0-1.0-119.0","0","0","39074","","null","","","null","13","","","","","","","","","","","","","","","",""
"","ISI","","html-keyboard-response","86","131619","0.0-1.0-120.0","0","0","39074","","null","","","null","13","NaN","","","","","","","","","","","","","","",""
"","S2","","html-keyboard-response","87","131872","0.0-1.0-121.0","0","0","39074","","null","","","null","13","","NaN","","","","","","","","","","","","","",""
"","response","","html-keyboard-response","88","132240","0.0-1.0-122.0","0","0","39074","","367","","","75","13","","","1","13","training","adjacent","EF","5","6","L.jpg","M.jpg","0","1","0","",""
"","feedback","","html-keyboard-response","89","133243","0.0-1.0-123.0-0.0","0","0","39074","","null","","","null","13","","","","","","","","","","","","","","","",""
"","time_out","","html-keyboard-response","90","135245","0.0-1.0-125.0-0.0","0","0","39074","","null","","","null","13","","","","","","","","","","","","","","","",""
"","ITI","","html-keyboard-response","91","136249","0.0-1.0-126.0","0","0","39074","","null","","","null","13","","","","","","","","","","","","","","","NaN",""
"","S1","","html-keyboard-response","92","136501","0.0-1.0-128.0","0","0","39074","","null","","","null","14","","","","","","","","","","","","","","","",""
"","ISI","","html-keyboard-response","93","138504","0.0-1.0-129.0","0","0","39074","","null","","","null","14","NaN","","","","","","","","","","","","","","",""
"","S2","","html-keyboard-response","94","138756","0.0-1.0-130.0","0","0","39074","","null","","","null","14","","NaN","","","","","","","","","","","","","",""
"","response","","html-keyboard-response","95","139127","0.0-1.0-131.0","0","0","39074","","370","","","68","14","","","1","14","training","adjacent","BA","2","1","N.jpg","O.jpg","1","0","0","",""
"","feedback","","html-keyboard-response","96","140130","0.0-1.0-132.0-0.0","0","0","39074","","null","","","null","14","","","","","","","","","","","","","","","",""
"","time_out","","html-keyboard-response","97","142132","0.0-1.0-134.0-0.0","0","0","39074","","null","","","null","14","","","","","","","","","","","","","","","",""
"","ITI","","html-keyboard-response","98","143133","0.0-1.0-135.0","0","0","39074","","null","","","null","14","","","","","","","","","","","","","","","NaN",""
"","S1","","html-keyboard-response","99","143385","0.0-1.0-137.0","0","0","39074","","null","","","null","15","","","","","","","","","","","","","","","",""
"","ISI","","html-keyboard-response","100","145403","0.0-1.0-138.0","0","0","39074","","null","","","null","15","NaN","","","","","","","","","","","","","","",""
"","S2","","html-keyboard-response","101","145656","0.0-1.0-139.0","0","0","39074","","null","","","null","15","","NaN","","","","","","","","","","","","","",""
"","response","","html-keyboard-response","102","145773","0.0-1.0-140.0","0","0","39074","","114","","","68","15","","","1","15","training","adjacent","DC","4","3","P.jpg","Q.jpg","1","0","0","",""
"","feedback","","html-keyboard-response","103","146783","0.0-1.0-141.0-0.0","0","0","39074","","null","","","null","15","","","","","","","","","","","","","","","",""
"","time_out","","html-keyboard-response","104","148785","0.0-1.0-143.0-0.0","0","0","39074","","null","","","null","15","","","","","","","","","","","","","","","",""
"","ITI","","html-keyboard-response","105","149788","0.0-1.0-144.0","0","0","39074","","null","","","null","15","","","","","","","","","","","","","","","NaN",""
"","S1","","html-keyboard-response","106","150041","0.0-1.0-146.0","0","0","39074","","null","","","null","16","","","","","","","","","","","","","","","",""
"","ISI","","html-keyboard-response","107","152043","0.0-1.0-147.0","0","0","39074","","null","","","null","16","NaN","","","","","","","","","","","","","","",""
"","S2","","html-keyboard-response","108","152295","0.0-1.0-148.0","0","0","39074","","null","","","null","16","","NaN","","","","","","","","","","","","","",""
"","response","","html-keyboard-response","109","152489","0.0-1.0-149.0","0","0","39074","","193","","","75","16","","","1","16","training","adjacent","EF","5","6","L.jpg","M.jpg","0","1","0","",""
"","feedback","","html-keyboard-response","110","153492","0.0-1.0-150.0-0.0","0","0","39074","","null","","","null","16","","","","","","","","","","","","","","","",""
"","time_out","","html-keyboard-response","111","155496","0.0-1.0-152.0-0.0","0","0","39074","","null","","","null","16","","","","","","","","","","","","","","","",""
"","ITI","","html-keyboard-response","112","156498","0.0-1.0-153.0","0","0","39074","","null","","","null","16","","","","","","","","","","","","","","","NaN",""
"","S1","","html-keyboard-response","113","156752","0.0-1.0-155.0","0","0","39074","","null","","","null","17","","","","","","","","","","","","","","","",""
"","ISI","","html-keyboard-response","114","158754","0.0-1.0-156.0","0","0","39074","","null","","","null","17","NaN","","","","","","","","","","","","","","",""
"","S2","","html-keyboard-response","115","159006","0.0-1.0-157.0","0","0","39074","","null","","","null","17","","NaN","","","","","","","","","","","","","",""
"","response","","html-keyboard-response","116","159098","0.0-1.0-158.0","0","0","39074","","90","","","68","17","","","1","17","training","adjacent","FE","6","5","M.jpg","L.jpg","1","0","0","",""
"","feedback","","html-keyboard-response","117","160101","0.0-1.0-159.0-0.0","0","0","39074","","null","","","null","17","","","","","","","","","","","","","","","",""
"","time_out","","html-keyboard-response","118","162103","0.0-1.0-161.0-0.0","0","0","39074","","null","","","null","17","","","","","","","","","","","","","","","",""
"","ITI","","html-keyboard-response","119","163106","0.0-1.0-162.0","0","0","39074","","null","","","null","17","","","","","","","","","","","","","","","NaN",""
"","S1","","html-keyboard-response","120","163366","0.0-1.0-164.0","0","0","39074","","null","","","null","18","","","","","","","","","","","","","","","",""
"","ISI","","html-keyboard-response","121","165369","0.0-1.0-165.0","0","0","39074","","466","","","68","18","d","","","","","","","","","","","","","","",""
"","S2","","html-keyboard-response","122","165622","0.0-1.0-166.0","0","0","39074","","null","","","null","18","","NaN","","","","","","","","","","","","","",""
"","response","","html-keyboard-response","123","166112","0.0-1.0-167.0","0","0","39074","","488","","","68","18","","","1","18","training","adjacent","FG","6","7","M.jpg","R.jpg","1","1","1","",""
"","feedback","","html-keyboard-response","124","167115","0.0-1.0-168.0-0.0","0","0","39074","","null","","","null","18","","","","","","","","","","","","","","","",""
"","ITI","","html-keyboard-response","125","168118","0.0-1.0-171.0","0","0","39074","","null","","","null","18","","","","","","","","","","","","","","","NaN",""
"","S1","","html-keyboard-response","126","168370","0.0-1.0-173.0","0","0","39074","","null","","","null","19","","","","","","","","","","","","","","","",""
"","ISI","","html-keyboard-response","127","170372","0.0-1.0-174.0","0","0","39074","","null","","","null","19","NaN","","","","","","","","","","","","","","",""
"","S2","","html-keyboard-response","128","170625","0.0-1.0-175.0","0","0","39074","","null","","","null","19","","NaN","","","","","","","","","","","","","",""
"","response","","html-keyboard-response","129","171063","0.0-1.0-176.0","0","0","39074","","436","","","75","19","","","1","19","training","adjacent","DC","4","3","P.jpg","Q.jpg","0","0","1","",""
"","feedback","","html-keyboard-response","130","172067","0.0-1.0-177.0-0.0","0","0","39074","","null","","","null","19","","","","","","","","","","","","","","","",""
"","ITI","","html-keyboard-response","131","173070","0.0-1.0-180.0","0","0","39074","","null","","","null","19","","","","","","","","","","","","","","","NaN",""
"","S1","","html-keyboard-response","132","173322","0.0-1.0-182.0","0","0","39074","","null","","","null","20","","","","","","","","","","","","","","","",""
"","ISI","","html-keyboard-response","133","175325","0.0-1.0-183.0","0","0","39074","","null","","","null","20","NaN","","","","","","","","","","","","","","",""
"","S2","","html-keyboard-response","134","175577","0.0-1.0-184.0","0","0","39074","","null","","","null","20","","NaN","","","","","","","","","","","","","",""
"","response","","html-keyboard-response","135","175938","0.0-1.0-185.0","0","0","39074","","359","","","75","20","","","1","20","training","adjacent","ED","5","4","L.jpg","P.jpg","0","0","1","",""
"","feedback","","html-keyboard-response","136","176940","0.0-1.0-186.0-0.0","0","0","39074","","null","","","null","20","","","","","","","","","","","","","","","",""
"","ITI","","html-keyboard-response","137","177942","0.0-1.0-189.0","0","0","39074","","null","","","null","20","","","","","","","","","","","","","","","NaN",""
"","S1","","html-keyboard-response","138","178194","0.0-1.0-191.0","0","0","39074","","null","","","null","21","","","","","","","","","","","","","","","",""
"","ISI","","html-keyboard-response","139","180196","0.0-1.0-192.0","0","0","39074","","null","","","null","21","NaN","","","","","","","","","","","","","","",""
"","S2","","html-keyboard-response","140","180448","0.0-1.0-193.0","0","0","39074","","null","","","null","21","","NaN","","","","","","","","","","","","","",""
"","response","","html-keyboard-response","141","180826","0.0-1.0-194.0","0","0","39074","","377","","","68","21","","","1","21","training","adjacent","BA","2","1","N.jpg","O.jpg","1","0","0","",""
"","feedback","","html-keyboard-response","142","181830","0.0-1.0-195.0-0.0","0","0","39074","","null","","","null","21","","","","","","","","","","","","","","","",""
"","time_out","","html-keyboard-response","143","183832","0.0-1.0-197.0-0.0","0","0","39074","","null","","","null","21","","","","","","","","","","","","","","","",""
"","ITI","","html-keyboard-response","144","184835","0.0-1.0-198.0","0","0","39074","","null","","","null","21","","","","","","","","","","","","","","","NaN",""
"","S1","","html-keyboard-response","145","185088","0.0-1.0-200.0","0","0","39074","","null","","","null","22","","","","","","","","","","","","","","","",""
"","ISI","","html-keyboard-response","146","187091","0.0-1.0-201.0","0","0","39074","","null","","","null","22","NaN","","","","","","","","","","","","","","",""
"","S2","","html-keyboard-response","147","187342","0.0-1.0-202.0","0","0","39074","","null","","","null","22","","NaN","","","","","","","","","","","","","",""
"","response","","html-keyboard-response","148","187733","0.0-1.0-203.0","0","0","39074","","389","","","68","22","","","1","22","training","adjacent","CD","3","4","Q.jpg","P.jpg","1","1","1","",""
"","feedback","","html-keyboard-response","149","188740","0.0-1.0-204.0-0.0","0","0","39074","","null","","","null","22","","","","","","","","","","","","","","","",""
"","ITI","","html-keyboard-response","150","189742","0.0-1.0-207.0","0","0","39074","","null","","","null","22","","","","","","","","","","","","","","","NaN",""
"","S1","","html-keyboard-response","151","189995","0.0-1.0-209.0","0","0","39074","","null","","","null","23","","","","","","","","","","","","","","","",""
"","ISI","","html-keyboard-response","152","191998","0.0-1.0-210.0","0","0","39074","","null","","","null","23","NaN","","","","","","","","","","","","","","",""
"","S2","","html-keyboard-response","153","192252","0.0-1.0-211.0","0","0","39074","","null","","","null","23","","NaN","","","","","","","","","","","","","",""
"","response","","html-keyboard-response","154","192633","0.0-1.0-212.0","0","0","39074","","380","","","75","23","","","1","23","training","adjacent","GF","7","6","R.jpg","M.jpg","0","0","1","",""
"","feedback","","html-keyboard-response","155","193636","0.0-1.0-213.0-0.0","0","0","39074","","null","","","null","23","","","","","","","","","","","","","","","",""
"","ITI","","html-keyboard-response","156","194638","0.0-1.0-216.0","0","0","39074","","null","","","null","23","","","","","","","","","","","","","","","NaN",""
"","S1","","html-keyboard-response","157","194891","0.0-1.0-218.0","0","0","39074","","null","","","null","24","","","","","","","","","","","","","","","",""
"","ISI","","html-keyboard-response","158","196893","0.0-1.0-219.0","0","0","39074","","null","","","null","24","NaN","","","","","","","","","","","","","","",""
"","S2","","html-keyboard-response","159","197146","0.0-1.0-220.0","0","0","39074","","null","","","null","24","","NaN","","","","","","","","","","","","","",""
"","response","","html-keyboard-response","160","197450","0.0-1.0-221.0","0","0","39074","","302","","","68","24","","","1","24","training","adjacent","FG","6","7","M.jpg","R.jpg","1","1","1","",""
"","feedback","","html-keyboard-response","161","198453","0.0-1.0-222.0-0.0","0","0","39074","","null","","","null","24","","","","","","","","","","","","","","","",""
"","ITI","","html-keyboard-response","162","199456","0.0-1.0-225.0","0","0","39074","","null","","","null","24","","","","","","","","","","","","","","","NaN",""
"","S1","","html-keyboard-response","163","199709","0.0-1.0-227.0","0","0","39074","","null","","","null","25","","","","","","","","","","","","","","","",""
"","ISI","","html-keyboard-response","164","201711","0.0-1.0-228.0","0","0","39074","","null","","","null","25","NaN","","","","","","","","","","","","","","",""
"","S2","","html-keyboard-response","165","201963","0.0-1.0-229.0","0","0","39074","","null","","","null","25","","NaN","","","","","","","","","","","","","",""
"","response","","html-keyboard-response","166","202372","0.0-1.0-230.0","0","0","39074","","407","","","75","25","","","1","25","training","adjacent","GF","7","6","R.jpg","M.jpg","0","0","1","",""
"","feedback","","html-keyboard-response","167","203375","0.0-1.0-231.0-0.0","0","0","39074","","null","","","null","25","","","","","","","","","","","","","","","",""
"","ITI","","html-keyboard-response","168","204378","0.0-1.0-234.0","0","0","39074","","null","","","null","25","","","","","","","","","","","","","","","NaN",""
"","S1","","html-keyboard-response","169","204630","0.0-1.0-236.0","0","0","39074","","null","","","null","26","","","","","","","","","","","","","","","",""
"","ISI","","html-keyboard-response","170","206632","0.0-1.0-237.0","0","0","39074","","null","","","null","26","NaN","","","","","","","","","","","","","","",""
"","S2","","html-keyboard-response","171","206885","0.0-1.0-238.0","0","0","39074","","null","","","null","26","","NaN","","","","","","","","","","","","","",""
"","response","","html-keyboard-response","172","207220","0.0-1.0-239.0","0","0","39074","","333","","","68","26","","","1","26","training","adjacent","FE","6","5","M.jpg","L.jpg","1","0","0","",""
"","feedback","","html-keyboard-response","173","208224","0.0-1.0-240.0-0.0","0","0","39074","","null","","","null","26","","","","","","","","","","","","","","","",""
"","time_out","","html-keyboard-response","174","210226","0.0-1.0-242.0-0.0","0","0","39074","","null","","","null","26","","","","","","","","","","","","","","","",""
"","ITI","","html-keyboard-response","175","211228","0.0-1.0-243.0","0","0","39074","","null","","","null","26","","","","","","","","","","","","","","","NaN",""
"","S1","","html-keyboard-response","176","211481","0.0-1.0-245.0","0","0","39074","","null","","","null","27","","","","","","","","","","","","","","","",""
"","ISI","","html-keyboard-response","177","213484","0.0-1.0-246.0","0","0","39074","","null","","","null","27","NaN","","","","","","","","","","","","","","",""
"","S2","","html-keyboard-response","178","213736","0.0-1.0-247.0","0","0","39074","","null","","","null","27","","NaN","","","","","","","","","","","","","",""
"","response","","html-keyboard-response","179","214010","0.0-1.0-248.0","0","0","39074","","272","","","68","27","","","1","27","training","adjacent","AB","1","2","O.jpg","N.jpg","1","1","1","",""
"","feedback","","html-keyboard-response","180","215014","0.0-1.0-249.0-0.0","0","0","39074","","null","","","null","27","","","","","","","","","","","","","","","",""
"","ITI","","html-keyboard-response","181","216017","0.0-1.0-252.0","0","0","39074","","null","","","null","27","","","","","","","","","","","","","","","NaN",""
"","S1","","html-keyboard-response","182","216271","0.0-1.0-254.0","0","0","39074","","null","","","null","28","","","","","","","","","","","","","","","",""
"","ISI","","html-keyboard-response","183","218273","0.0-1.0-255.0","0","0","39074","","null","","","null","28","NaN","","","","","","","","","","","","","","",""
"","S2","","html-keyboard-response","184","218525","0.0-1.0-256.0","0","0","39074","","null","","","null","28","","NaN","","","","","","","","","","","","","",""
"","response","","html-keyboard-response","185","218925","0.0-1.0-257.0","0","0","39074","","398","","","68","28","","","1","28","training","adjacent","CD","3","4","Q.jpg","P.jpg","1","1","1","",""
"","feedback","","html-keyboard-response","186","219927","0.0-1.0-258.0-0.0","0","0","39074","","null","","","null","28","","","","","","","","","","","","","","","",""
"","ITI","","html-keyboard-response","187","220928","0.0-1.0-261.0","0","0","39074","","null","","","null","28","","","","","","","","","","","","","","","NaN",""
"","S1","","html-keyboard-response","188","221181","0.0-1.0-263.0","0","0","39074","","null","","","null","29","","","","","","","","","","","","","","","",""
"","ISI","","html-keyboard-response","189","223183","0.0-1.0-264.0","0","0","39074","","null","","","null","29","NaN","","","","","","","","","","","","","","",""
"","S2","","html-keyboard-response","190","223435","0.0-1.0-265.0","0","0","39074","","null","","","null","29","","NaN","","","","","","","","","","","","","",""
"","response","","html-keyboard-response","191","223784","0.0-1.0-266.0","0","0","39074","","346","","","68","29","","","1","29","training","adjacent","FE","6","5","M.jpg","L.jpg","1","0","0","",""
"","feedback","","html-keyboard-response","192","224788","0.0-1.0-267.0-0.0","0","0","39074","","null","","","null","29","","","","","","","","","","","","","","","",""
"","time_out","","html-keyboard-response","193","226790","0.0-1.0-269.0-0.0","0","0","39074","","null","","","null","29","","","","","","","","","","","","","","","",""
"","ITI","","html-keyboard-response","194","227792","0.0-1.0-270.0","0","0","39074","","null","","","null","29","","","","","","","","","","","","","","","NaN",""
"","S1","","html-keyboard-response","195","228045","0.0-1.0-272.0","0","0","39074","","null","","","null","30","","","","","","","","","","","","","","","",""
"","ISI","","html-keyboard-response","196","230048","0.0-1.0-273.0","0","0","39074","","null","","","null","30","NaN","","","","","","","","","","","","","","",""
"","S2","","html-keyboard-response","197","230301","0.0-1.0-274.0","0","0","39074","","null","","","null","30","","NaN","","","","","","","","","","","","","",""
"","response","","html-keyboard-response","198","230642","0.0-1.0-275.0","0","0","39074","","339","","","68","30","","","1","30","training","adjacent","CB","3","2","Q.jpg","N.jpg","1","0","0","",""
"","feedback","","html-keyboard-response","199","231646","0.0-1.0-276.0-0.0","0","0","39074","","null","","","null","30","","","","","","","","","","","","","","","",""
"","time_out","","html-keyboard-response","200","233649","0.0-1.0-278.0-0.0","0","0","39074","","null","","","null","30","","","","","","","","","","","","","","","",""
"","ITI","","html-keyboard-response","201","234651","0.0-1.0-279.0","0","0","39074","","null","","","null","30","","","","","","","","","","","","","","","NaN",""
"","S1","","html-keyboard-response","202","234903","0.0-1.0-281.0","0","0","39074","","null","","","null","31","","","","","","","","","","","","","","","",""
"","ISI","","html-keyboard-response","203","236906","0.0-1.0-282.0","0","0","39074","","null","","","null","31","NaN","","","","","","","","","","","","","","",""
"","S2","","html-keyboard-response","204","237172","0.0-1.0-283.0","0","0","39074","","null","","","null","31","","NaN","","","","","","","","","","","","","",""
"","response","","html-keyboard-response","205","237535","0.0-1.0-284.0","0","0","39074","","361","","","75","31","","","1","31","training","adjacent","BC","2","3","N.jpg","Q.jpg","0","1","0","",""
"","feedback","","html-keyboard-response","206","238538","0.0-1.0-285.0-0.0","0","0","39074","","null","","","null","31","","","","","","","","","","","","","","","",""
"","time_out","","html-keyboard-response","207","240540","0.0-1.0-287.0-0.0","0","0","39074","","null","","","null","31","","","","","","","","","","","","","","","",""
"","ITI","","html-keyboard-response","208","241542","0.0-1.0-288.0","0","0","39074","","null","","","null","31","","","","","","","","","","","","","","","NaN",""
"","S1","","html-keyboard-response","209","241795","0.0-1.0-290.0","0","0","39074","","null","","","null","32","","","","","","","","","","","","","","","",""
"","ISI","","html-keyboard-response","210","243797","0.0-1.0-291.0","0","0","39074","","null","","","null","32","NaN","","","","","","","","","","","","","","",""
"","S2","","html-keyboard-response","211","244050","0.0-1.0-292.0","0","0","39074","","null","","","null","32","","NaN","","","","","","","","","","","","","",""
"","response","","html-keyboard-response","212","244366","0.0-1.0-293.0","0","0","39074","","315","","","68","32","","","1","32","training","adjacent","CD","3","4","Q.jpg","P.jpg","1","1","1","",""
"","feedback","","html-keyboard-response","213","245383","0.0-1.0-294.0-0.0","0","0","39074","","null","","","null","32","","","","","","","","","","","","","","","",""
"","ITI","","html-keyboard-response","214","246386","0.0-1.0-297.0","0","0","39074","","null","","","null","32","","","","","","","","","","","","","","","NaN",""
"","S1","","html-keyboard-response","215","246639","0.0-1.0-299.0","0","0","39074","","null","","","null","33","","","","","","","","","","","","","","","",""
"","ISI","","html-keyboard-response","216","248641","0.0-1.0-300.0","0","0","39074","","null","","","null","33","NaN","","","","","","","","","","","","","","",""
"","S2","","html-keyboard-response","217","248894","0.0-1.0-301.0","0","0","39074","","null","","","null","33","","NaN","","","","","","","","","","","","","",""
"","response","","html-keyboard-response","218","249282","0.0-1.0-302.0","0","0","39074","","387","","","68","33","","","1","33","training","adjacent","EF","5","6","L.jpg","M.jpg","1","1","1","",""
"","feedback","","html-keyboard-response","219","250285","0.0-1.0-303.0-0.0","0","0","39074","","null","","","null","33","","","","","","","","","","","","","","","",""
"","ITI","","html-keyboard-response","220","251288","0.0-1.0-306.0","0","0","39074","","null","","","null","33","","","","","","","","","","","","","","","NaN",""
"","S1","","html-keyboard-response","221","251540","0.0-1.0-308.0","0","0","39074","","null","","","null","34","","","","","","","","","","","","","","","",""
"","ISI","","html-keyboard-response","222","253543","0.0-1.0-309.0","0","0","39074","","null","","","null","34","NaN","","","","","","","","","","","","","","",""
"","S2","","html-keyboard-response","223","253796","0.0-1.0-310.0","0","0","39074","","null","","","null","34","","NaN","","","","","","","","","","","","","",""
"","response","","html-keyboard-response","224","254200","0.0-1.0-311.0","0","0","39074","","403","","","75","34","","","1","34","training","adjacent","BC","2","3","N.jpg","Q.jpg","0","1","0","",""
"","feedback","","html-keyboard-response","225","255202","0.0-1.0-312.0-0.0","0","0","39074","","null","","","null","34","","","","","","","","","","","","","","","",""
"","time_out","","html-keyboard-response","226","257204","0.0-1.0-314.0-0.0","0","0","39074","","null","","","null","34","","","","","","","","","","","","","","","",""
"","ITI","","html-keyboard-response","227","258207","0.0-1.0-315.0","0","0","39074","","null","","","null","34","","","","","","","","","","","","","","","NaN",""
"","S1","","html-keyboard-response","228","258459","0.0-1.0-317.0","0","0","39074","","null","","","null","35","","","","","","","","","","","","","","","",""
"","ISI","","html-keyboard-response","229","260461","0.0-1.0-318.0","0","0","39074","","null","","","null","35","NaN","","","","","","","","","","","","","","",""
"","S2","","html-keyboard-response","230","260714","0.0-1.0-319.0","0","0","39074","","null","","","null","35","","NaN","","","","","","","","","","","","","",""
"","response","","html-keyboard-response","231","260864","0.0-1.0-320.0","0","0","39074","","148","","","68","35","","","1","35","training","adjacent","ED","5","4","L.jpg","P.jpg","1","0","0","",""
"","feedback","","html-keyboard-response","232","261868","0.0-1.0-321.0-0.0","0","0","39074","","null","","","null","35","","","","","","","","","","","","","","","",""
"","time_out","","html-keyboard-response","233","263869","0.0-1.0-323.0-0.0","0","0","39074","","null","","","null","35","","","","","","","","","","","","","","","",""
"","ITI","","html-keyboard-response","234","264872","0.0-1.0-324.0","0","0","39074","","null","","","null","35","","","","","","","","","","","","","","","NaN",""
"","S1","","html-keyboard-response","235","265124","0.0-1.0-326.0","0","0","39074","","null","","","null","36","","","","","","","","","","","","","","","",""
"","ISI","","html-keyboard-response","236","267128","0.0-1.0-327.0","0","0","39074","","null","","","null","36","NaN","","","","","","","","","","","","","","",""
"","S2","","html-keyboard-response","237","267379","0.0-1.0-328.0","0","0","39074","","null","","","null","36","","NaN","","","","","","","","","","","","","",""
"","response","","html-keyboard-response","238","267783","0.0-1.0-329.0","0","0","39074","","403","","","75","36","","","1","36","training","adjacent","ED","5","4","L.jpg","P.jpg","0","0","1","",""
"","feedback","","html-keyboard-response","239","268786","0.0-1.0-330.0-0.0","0","0","39074","","null","","","null","36","","","","","","","","","","","","","","","",""
"","ITI","","html-keyboard-response","240","269788","0.0-1.0-333.0","0","0","39074","","null","","","null","36","","","","","","","","","","","","","","","NaN",""
"","S1","","html-keyboard-response","241","270042","0.0-1.0-335.0","0","0","39074","","null","","","null","37","","","","","","","","","","","","","","","",""
"","ISI","","html-keyboard-response","242","272044","0.0-1.0-336.0","0","0","39074","","null","","","null","37","NaN","","","","","","","","","","","","","","",""
"","S2","","html-keyboard-response","243","272297","0.0-1.0-337.0","0","0","39074","","null","","","null","37","","NaN","","","","","","","","","","","","","",""
"","response","","html-keyboard-response","244","272386","0.0-1.0-338.0","0","0","39074","","87","","","75","37","","","1","37","training","adjacent","BA","2","1","N.jpg","O.jpg","0","0","1","",""
"","feedback","","html-keyboard-response","245","273389","0.0-1.0-339.0-0.0","0","0","39074","","null","","","null","37","","","","","","","","","","","","","","","",""
"","ITI","","html-keyboard-response","246","274392","0.0-1.0-342.0","0","0","39074","","null","","","null","37","","","","","","","","","","","","","","","NaN",""
"","S1","","html-keyboard-response","247","274644","0.0-1.0-344.0","0","0","39074","","null","","","null","38","","","","","","","","","","","","","","","",""
"","ISI","","html-keyboard-response","248","276647","0.0-1.0-345.0","0","0","39074","","null","","","null","38","NaN","","","","","","","","","","","","","","",""
"","S2","","html-keyboard-response","249","276900","0.0-1.0-346.0","0","0","39074","","null","","","null","38","","NaN","","","","","","","","","","","","","",""
"","response","","html-keyboard-response","250","277115","0.0-1.0-347.0","0","0","39074","","213","","","75","38","","","1","38","training","adjacent","EF","5","6","L.jpg","M.jpg","0","1","0","",""
"","feedback","","html-keyboard-response","251","278119","0.0-1.0-348.0-0.0","0","0","39074","","null","","","null","38","","","","","","","","","","","","","","","",""
"","time_out","","html-keyboard-response","252","280121","0.0-1.0-350.0-0.0","0","0","39074","","null","","","null","38","","","","","","","","","","","","","","","",""
"","ITI","","html-keyboard-response","253","281123","0.0-1.0-351.0","0","0","39074","","null","","","null","38","","","","","","","","","","","","","","","NaN",""
"","S1","","html-keyboard-response","254","281375","0.0-1.0-353.0","0","0","39074","","null","","","null","39","","","","","","","","","","","","","","","",""
"","ISI","","html-keyboard-response","255","283378","0.0-1.0-354.0","0","0","39074","","null","","","null","39","NaN","","","","","","","","","","","","","","",""
"","S2","","html-keyboard-response","256","283631","0.0-1.0-355.0","0","0","39074","","null","","","null","39","","NaN","","","","","","","","","","","","","",""
"","response","","html-keyboard-response","257","284551","0.0-1.0-356.0","0","0","39074","","919","","","68","39","","","1","39","training","adjacent","DE","4","5","P.jpg","L.jpg","1","1","1","",""
"","feedback","","html-keyboard-response","258","285554","0.0-1.0-357.0-0.0","0","0","39074","","null","","","null","39","","","","","","","","","","","","","","","",""
"","ITI","","html-keyboard-response","259","286557","0.0-1.0-360.0","0","0","39074","","null","","","null","39","","","","","","","","","","","","","","","NaN",""
"","S1","","html-keyboard-response","260","286809","0.0-1.0-362.0","0","0","39074","","null","","","null","40","","","","","","","","","","","","","","","",""
"","ISI","","html-keyboard-response","261","288812","0.0-1.0-363.0","0","0","39074","","null","","","null","40","NaN","","","","","","","","","","","","","","",""
"","S2","","html-keyboard-response","262","289064","0.0-1.0-364.0","0","0","39074","","null","","","null","40","","NaN","","","","","","","","","","","","","",""
"","response","","html-keyboard-response","263","289509","0.0-1.0-365.0","0","0","39074","","444","","","68","40","","","1","40","training","adjacent","AB","1","2","O.jpg","N.jpg","1","1","1","",""
"","feedback","","html-keyboard-response","264","290512","0.0-1.0-366.0-0.0","0","0","39074","","null","","","null","40","","","","","","","","","","","","","","","",""
"","ITI","","html-keyboard-response","265","291514","0.0-1.0-369.0","0","0","39074","","null","","","null","40","","","","","","","","","","","","","","","NaN",""
"","S1","","html-keyboard-response","266","291766","0.0-1.0-371.0","0","0","39074","","null","","","null","41","","","","","","","","","","","","","","","",""
"","ISI","","html-keyboard-response","267","293768","0.0-1.0-372.0","0","0","39074","","null","","","null","41","NaN","","","","","","","","","","","","","","",""
"","S2","","html-keyboard-response","268","294021","0.0-1.0-373.0","0","0","39074","","null","","","null","41","","NaN","","","","","","","","","","","","","",""
"","response","","html-keyboard-response","269","294389","0.0-1.0-374.0","0","0","39074","","366","","","75","41","","","1","41","training","adjacent","FE","6","5","M.jpg","L.jpg","0","0","1","",""
"","feedback","","html-keyboard-response","270","295392","0.0-1.0-375.0-0.0","0","0","39074","","null","","","null","41","","","","","","","","","","","","","","","",""
"","ITI","","html-keyboard-response","271","296395","0.0-1.0-378.0","0","0","39074","","null","","","null","41","","","","","","","","","","","","","","","NaN",""
"","S1","","html-keyboard-response","272","296659","0.0-1.0-380.0","0","0","39074","","null","","","null","42","","","","","","","","","","","","","","","",""
"","ISI","","html-keyboard-response","273","298662","0.0-1.0-381.0","0","0","39074","","null","","","null","42","NaN","","","","","","","","","","","","","","",""
"","S2","","html-keyboard-response","274","298914","0.0-1.0-382.0","0","0","39074","","null","","","null","42","","NaN","","","","","","","","","","","","","",""
"","response","","html-keyboard-response","275","299228","0.0-1.0-383.0","0","0","39074","","311","","","68","42","","","1","42","training","adjacent","CB","3","2","Q.jpg","N.jpg","1","0","0","",""
"","feedback","","html-keyboard-response","276","300230","0.0-1.0-384.0-0.0","0","0","39074","","null","","","null","42","","","","","","","","","","","","","","","",""
"","time_out","","html-keyboard-response","277","302232","0.0-1.0-386.0-0.0","0","0","39074","","null","","","null","42","","","","","","","","","","","","","","","",""
"","ITI","","html-keyboard-response","278","303235","0.0-1.0-387.0","0","0","39074","","null","","","null","42","","","","","","","","","","","","","","","NaN",""
"","S1","","html-keyboard-response","279","303490","0.0-1.0-389.0","0","0","39074","","null","","","null","43","","","","","","","","","","","","","","","",""
"","ISI","","html-keyboard-response","280","305492","0.0-1.0-390.0","0","0","39074","","null","","","null","43","NaN","","","","","","","","","","","","","","",""
"","S2","","html-keyboard-response","281","305745","0.0-1.0-391.0","0","0","39074","","null","","","null","43","","NaN","","","","","","","","","","","","","",""
"","response","","html-keyboard-response","282","306167","0.0-1.0-392.0","0","0","39074","","420","","","68","43","","","1","43","training","adjacent","AB","1","2","O.jpg","N.jpg","1","1","1","",""
"","feedback","","html-keyboard-response","283","307169","0.0-1.0-393.0-0.0","0","0","39074","","null","","","null","43","","","","","","","","","","","","","","","",""
"","ITI","","html-keyboard-response","284","308172","0.0-1.0-396.0","0","0","39074","","null","","","null","43","","","","","","","","","","","","","","","NaN",""
"","S1","","html-keyboard-response","285","308425","0.0-1.0-398.0","0","0","39074","","null","","","null","44","","","","","","","","","","","","","","","",""
"","ISI","","html-keyboard-response","286","310428","0.0-1.0-399.0","0","0","39074","","null","","","null","44","NaN","","","","","","","","","","","","","","",""
"","S2","","html-keyboard-response","287","310680","0.0-1.0-400.0","0","0","39074","","null","","","null","44","","NaN","","","","","","","","","","","","","",""
"","response","","html-keyboard-response","288","311079","0.0-1.0-401.0","0","0","39074","","399","","","75","44","","","1","44","training","adjacent","BC","2","3","N.jpg","Q.jpg","0","1","0","",""
"","feedback","","html-keyboard-response","289","312082","0.0-1.0-402.0-0.0","0","0","39074","","null","","","null","44","","","","","","","","","","","","","","","",""
"","time_out","","html-keyboard-response","290","314083","0.0-1.0-404.0-0.0","0","0","39074","","null","","","null","44","","","","","","","","","","","","","","","",""
"","ITI","","html-keyboard-response","291","315086","0.0-1.0-405.0","0","0","39074","","null","","","null","44","","","","","","","","","","","","","","","NaN",""
"","S1","","html-keyboard-response","292","315340","0.0-1.0-407.0","0","0","39074","","null","","","null","45","","","","","","","","","","","","","","","",""
"","ISI","","html-keyboard-response","293","317341","0.0-1.0-408.0","0","0","39074","","null","","","null","45","NaN","","","","","","","","","","","","","","",""
"","S2","","html-keyboard-response","294","317594","0.0-1.0-409.0","0","0","39074","","null","","","null","45","","NaN","","","","","","","","","","","","","",""
"","response","","html-keyboard-response","295","318586","0.0-1.0-410.0","0","0","39074","","992","","","75","45","","","1","45","training","adjacent","CB","3","2","Q.jpg","N.jpg","0","0","1","",""
"","feedback","","html-keyboard-response","296","319589","0.0-1.0-411.0-0.0","0","0","39074","","null","","","null","45","","","","","","","","","","","","","","","",""
"","ITI","","html-keyboard-response","297","320592","0.0-1.0-414.0","0","0","39074","","null","","","null","45","","","","","","","","","","","","","","","NaN",""
"","S1","","html-keyboard-response","298","320846","0.0-1.0-416.0","0","0","39074","","null","","","null","46","","","","","","","","","","","","","","","",""
"","ISI","","html-keyboard-response","299","322849","0.0-1.0-417.0","0","0","39074","","null","","","null","46","NaN","","","","","","","","","","","","","","",""
"","S2","","html-keyboard-response","300","323102","0.0-1.0-418.0","0","0","39074","","null","","","null","46","","NaN","","","","","","","","","","","","","",""
"","response","","html-keyboard-response","301","323706","0.0-1.0-419.0","0","0","39074","","603","","","75","46","","","1","46","training","adjacent","BA","2","1","N.jpg","O.jpg","0","0","1","",""
"","feedback","","html-keyboard-response","302","324710","0.0-1.0-420.0-0.0","0","0","39074","","null","","","null","46","","","","","","","","","","","","","","","",""
"","ITI","","html-keyboard-response","303","325715","0.0-1.0-423.0","0","0","39074","","null","","","null","46","","","","","","","","","","","","","","","NaN",""
"","S1","","html-keyboard-response","304","325968","0.0-1.0-425.0","0","0","39074","","null","","","null","47","","","","","","","","","","","","","","","",""
"","ISI","","html-keyboard-response","305","327970","0.0-1.0-426.0","0","0","39074","","null","","","null","47","NaN","","","","","","","","","","","","","","",""
"","S2","","html-keyboard-response","306","328223","0.0-1.0-427.0","0","0","39074","","null","","","null","47","","NaN","","","","","","","","","","","","","",""
"","response","","html-keyboard-response","307","328871","0.0-1.0-428.0","0","0","39074","","647","","","75","47","","","1","47","training","adjacent","CD","3","4","Q.jpg","P.jpg","0","1","0","",""
"","feedback","","html-keyboard-response","308","329874","0.0-1.0-429.0-0.0","0","0","39074","","null","","","null","47","","","","","","","","","","","","","","","",""
"","time_out","","html-keyboard-response","309","331877","0.0-1.0-431.0-0.0","0","0","39074","","null","","","null","47","","","","","","","","","","","","","","","",""
"","ITI","","html-keyboard-response","310","332880","0.0-1.0-432.0","0","0","39074","","null","","","null","47","","","","","","","","","","","","","","","NaN",""
"","block_over","","html-keyboard-response","311","338946","0.0-1.0-433.0-0.0","0","0","39074","","6065","","","32","47","","","","","","","","","","","","","","","",""
"","S1","","html-keyboard-response","312","339199","0.0-1.0-434.0","0","0","39074","","null","","","null","48","","","","","","","","","","","","","","","",""
"","ISI","","html-keyboard-response","313","341201","0.0-1.0-435.0","0","0","39074","","null","","","null","48","NaN","","","","","","","","","","","","","","",""
"","S2","","html-keyboard-response","314","341454","0.0-1.0-436.0","0","0","39074","","null","","","null","48","","NaN","","","","","","","","","","","","","",""
"","response","","html-keyboard-response","315","341906","0.0-1.0-437.0","0","0","39074","","451","","","75","48","","","2","48","training","adjacent","FE","6","5","M.jpg","L.jpg","0","0","1","",""
"","feedback","","html-keyboard-response","316","342909","0.0-1.0-438.0-0.0","0","0","39074","","null","","","null","48","","","","","","","","","","","","","","","",""
"","ITI","","html-keyboard-response","317","343912","0.0-1.0-441.0","0","0","39074","","null","","","null","48","","","","","","","","","","","","","","","NaN",""
"","S1","","html-keyboard-response","318","344166","0.0-1.0-443.0","0","0","39074","","null","","","null","49","","","","","","","","","","","","","","","",""
"","ISI","","html-keyboard-response","319","346169","0.0-1.0-444.0","0","0","39074","","null","","","null","49","NaN","","","","","","","","","","","","","","",""
"","S2","","html-keyboard-response","320","346423","0.0-1.0-445.0","0","0","39074","","null","","","null","49","","NaN","","","","","","","","","","","","","",""
"","response","","html-keyboard-response","321","346895","0.0-1.0-446.0","0","0","39074","","470","","","68","49","","","2","49","training","adjacent","AB","1","2","O.jpg","N.jpg","1","1","1","",""
"","feedback","","html-keyboard-response","322","347898","0.0-1.0-447.0-0.0","0","0","39074","","null","","","null","49","","","","","","","","","","","","","","","",""
"","ITI","","html-keyboard-response","323","348902","0.0-1.0-450.0","0","0","39074","","null","","","null","49","","","","","","","","","","","","","","","NaN",""
"","S1","","html-keyboard-response","324","349156","0.0-1.0-452.0","0","0","39074","","null","","","null","50","","","","","","","","","","","","","","","",""
"","ISI","","html-keyboard-response","325","351158","0.0-1.0-453.0","0","0","39074","","null","","","null","50","NaN","","","","","","","","","","","","","","",""
"","S2","","html-keyboard-response","326","351412","0.0-1.0-454.0","0","0","39074","","null","","","null","50","","NaN","","","","","","","","","","","","","",""
"","response","","html-keyboard-response","327","351909","0.0-1.0-455.0","0","0","39074","","495","","","75","50","","","2","50","training","adjacent","DC","4","3","P.jpg","Q.jpg","0","0","1","",""
"","feedback","","html-keyboard-response","328","352913","0.0-1.0-456.0-0.0","0","0","39074","","null","","","null","50","","","","","","","","","","","","","","","",""
"","ITI","","html-keyboard-response","329","353916","0.0-1.0-459.0","0","0","39074","","null","","","null","50","","","","","","","","","","","","","","","NaN",""
"","S1","","html-keyboard-response","330","354177","0.0-1.0-461.0","0","0","39074","","null","","","null","51","","","","","","","","","","","","","","","",""
"","ISI","","html-keyboard-response","331","356186","0.0-1.0-462.0","0","0","39074","","null","","","null","51","NaN","","","","","","","","","","","","","","",""
"","S2","","html-keyboard-response","332","356440","0.0-1.0-463.0","0","0","39074","","null","","","null","51","","NaN","","","","","","","","","","","","","",""
"","response","","html-keyboard-response","333","357019","0.0-1.0-464.0","0","0","39074","","575","","","68","51","","","2","51","training","adjacent","EF","5","6","L.jpg","M.jpg","1","1","1","",""
"","feedback","","html-keyboard-response","334","358021","0.0-1.0-465.0-0.0","0","0","39074","","null","","","null","51","","","","","","","","","","","","","","","",""
"","ITI","","html-keyboard-response","335","359023","0.0-1.0-468.0","0","0","39074","","null","","","null","51","","","","","","","","","","","","","","","NaN",""
"","S1","","html-keyboard-response","336","359275","0.0-1.0-470.0","0","0","39074","","null","","","null","52","","","","","","","","","","","","","","","",""
"","ISI","","html-keyboard-response","337","361279","0.0-1.0-471.0","0","0","39074","","null","","","null","52","NaN","","","","","","","","","","","","","","",""
"","S2","","html-keyboard-response","338","361531","0.0-1.0-472.0","0","0","39074","","null","","","null","52","","NaN","","","","","","","","","","","","","",""
"","response","","html-keyboard-response","339","362139","0.0-1.0-473.0","0","0","39074","","606","","","75","52","","","2","52","training","adjacent","ED","5","4","L.jpg","P.jpg","0","0","1","",""
"","feedback","","html-keyboard-response","340","363146","0.0-1.0-474.0-0.0","0","0","39074","","null","","","null","52","","","","","","","","","","","","","","","",""
"","ITI","","html-keyboard-response","341","364150","0.0-1.0-477.0","0","0","39074","","null","","","null","52","","","","","","","","","","","","","","","NaN",""
"","S1","","html-keyboard-response","342","364401","0.0-1.0-479.0","0","0","39074","","null","","","null","53","","","","","","","","","","","","","","","",""
"","ISI","","html-keyboard-response","343","366403","0.0-1.0-480.0","0","0","39074","","null","","","null","53","NaN","","","","","","","","","","","","","","",""
"","S2","","html-keyboard-response","344","366656","0.0-1.0-481.0","0","0","39074","","null","","","null","53","","NaN","","","","","","","","","","","","","",""
"","response","","html-keyboard-response","345","366985","0.0-1.0-482.0","0","0","39074","","327","","","75","53","","","2","53","training","adjacent","DE","4","5","P.jpg","L.jpg","0","1","0","",""
"","feedback","","html-keyboard-response","346","367988","0.0-1.0-483.0-0.0","0","0","39074","","null","","","null","53","","","","","","","","","","","","","","","",""
"","time_out","","html-keyboard-response","347","369990","0.0-1.0-485.0-0.0","0","0","39074","","null","","","null","53","","","","","","","","","","","","","","","",""
"","ITI","","html-keyboard-response","348","370993","0.0-1.0-486.0","0","0","39074","","null","","","null","53","","","","","","","","","","","","","","","NaN",""
"","S1","","html-keyboard-response","349","371245","0.0-1.0-488.0","0","0","39074","","null","","","null","54","","","","","","","","","","","","","","","",""
"","ISI","","html-keyboard-response","350","373249","0.0-1.0-489.0","0","0","39074","","null","","","null","54","NaN","","","","","","","","","","","","","","",""
"","S2","","html-keyboard-response","351","373502","0.0-1.0-490.0","0","0","39074","","null","","","null","54","","NaN","","","","","","","","","","","","","",""
"","response","","html-keyboard-response","352","373926","0.0-1.0-491.0","0","0","39074","","422","","","75","54","","","2","54","training","adjacent","ED","5","4","L.jpg","P.jpg","0","0","1","",""
"","feedback","","html-keyboard-response","353","374929","0.0-1.0-492.0-0.0","0","0","39074","","null","","","null","54","","","","","","","","","","","","","","","",""
"","ITI","","html-keyboard-response","354","375932","0.0-1.0-495.0","0","0","39074","","null","","","null","54","","","","","","","","","","","","","","","NaN",""
"","S1","","html-keyboard-response","355","376185","0.0-1.0-497.0","0","0","39074","","null","","","null","55","","","","","","","","","","","","","","","",""
"","ISI","","html-keyboard-response","356","378187","0.0-1.0-498.0","0","0","39074","","null","","","null","55","NaN","","","","","","","","","","","","","","",""
"","S2","","html-keyboard-response","357","378439","0.0-1.0-499.0","0","0","39074","","null","","","null","55","","NaN","","","","","","","","","","","","","",""
"","response","","html-keyboard-response","358","378832","0.0-1.0-500.0","0","0","39074","","391","","","75","55","","","2","55","training","adjacent","GF","7","6","R.jpg","M.jpg","0","0","1","",""
"","feedback","","html-keyboard-response","359","379834","0.0-1.0-501.0-0.0","0","0","39074","","null","","","null","55","","","","","","","","","","","","","","","",""
"","ITI","","html-keyboard-response","360","380837","0.0-1.0-504.0","0","0","39074","","null","","","null","55","","","","","","","","","","","","","","","NaN",""
"","S1","","html-keyboard-response","361","381089","0.0-1.0-506.0","0","0","39074","","null","","","null","56","","","","","","","","","","","","","","","",""
"","ISI","","html-keyboard-response","362","383093","0.0-1.0-507.0","0","0","39074","","null","","","null","56","NaN","","","","","","","","","","","","","","",""
"","S2","","html-keyboard-response","363","383346","0.0-1.0-508.0","0","0","39074","","null","","","null","56","","NaN","","","","","","","","","","","","","",""
"","response","","html-keyboard-response","364","383821","0.0-1.0-509.0","0","0","39074","","472","","","75","56","","","2","56","training","adjacent","AB","1","2","O.jpg","N.jpg","0","1","0","",""
"","feedback","","html-keyboard-response","365","384824","0.0-1.0-510.0-0.0","0","0","39074","","null","","","null","56","","","","","","","","","","","","","","","",""
"","time_out","","html-keyboard-response","366","386826","0.0-1.0-512.0-0.0","0","0","39074","","null","","","null","56","","","","","","","","","","","","","","","",""
"","ITI","","html-keyboard-response","367","387830","0.0-1.0-513.0","0","0","39074","","null","","","null","56","","","","","","","","","","","","","","","NaN",""
"","S1","","html-keyboard-response","368","388083","0.0-1.0-515.0","0","0","39074","","null","","","null","57","","","","","","","","","","","","","","","",""
"","ISI","","html-keyboard-response","369","390086","0.0-1.0-516.0","0","0","39074","","null","","","null","57","NaN","","","","","","","","","","","","","","",""
"","S2","","html-keyboard-response","370","390337","0.0-1.0-517.0","0","0","39074","","null","","","null","57","","NaN","","","","","","","","","","","","","",""
"","response","","html-keyboard-response","371","390758","0.0-1.0-518.0","0","0","39074","","420","","","68","57","","","2","57","training","adjacent","FG","6","7","M.jpg","R.jpg","1","1","1","",""
"","feedback","","html-keyboard-response","372","391760","0.0-1.0-519.0-0.0","0","0","39074","","null","","","null","57","","","","","","","","","","","","","","","",""
"","ITI","","html-keyboard-response","373","392763","0.0-1.0-522.0","0","0","39074","","null","","","null","57","","","","","","","","","","","","","","","NaN",""
"","S1","","html-keyboard-response","374","393016","0.0-1.0-524.0","0","0","39074","","null","","","null","58","","","","","","","","","","","","","","","",""
"","ISI","","html-keyboard-response","375","395018","0.0-1.0-525.0","0","0","39074","","null","","","null","58","NaN","","","","","","","","","","","","","","",""
"","S2","","html-keyboard-response","376","395270","0.0-1.0-526.0","0","0","39074","","null","","","null","58","","NaN","","","","","","","","","","","","","",""
"","response","","html-keyboard-response","377","395636","0.0-1.0-527.0","0","0","39074","","364","","","75","58","","","2","58","training","adjacent","EF","5","6","L.jpg","M.jpg","0","1","0","",""
"","feedback","","html-keyboard-response","378","396638","0.0-1.0-528.0-0.0","0","0","39074","","null","","","null","58","","","","","","","","","","","","","","","",""
"","time_out","","html-keyboard-response","379","398640","0.0-1.0-530.0-0.0","0","0","39074","","null","","","null","58","","","","","","","","","","","","","","","",""
"","ITI","","html-keyboard-response","380","399643","0.0-1.0-531.0","0","0","39074","","null","","","null","58","","","","","","","","","","","","","","","NaN",""
"","S1","","html-keyboard-response","381","399896","0.0-1.0-533.0","0","0","39074","","null","","","null","59","","","","","","","","","","","","","","","",""
"","ISI","","html-keyboard-response","382","401898","0.0-1.0-534.0","0","0","39074","","null","","","null","59","NaN","","","","","","","","","","","","","","",""
"","S2","","html-keyboard-response","383","402152","0.0-1.0-535.0","0","0","39074","","null","","","null","59","","NaN","","","","","","","","","","","","","",""
"","response","","html-keyboard-response","384","402747","0.0-1.0-536.0","0","0","39074","","592","","","68","59","","","2","59","training","adjacent","FG","6","7","M.jpg","R.jpg","1","1","1","",""
"","feedback","","html-keyboard-response","385","403756","0.0-1.0-537.0-0.0","0","0","39074","","null","","","null","59","","","","","","","","","","","","","","","",""
"","ITI","","html-keyboard-response","386","404758","0.0-1.0-540.0","0","0","39074","","null","","","null","59","","","","","","","","","","","","","","","NaN",""
"","S1","","html-keyboard-response","387","405011","0.0-1.0-542.0","0","0","39074","","null","","","null","60","","","","","","","","","","","","","","","",""
"","ISI","","html-keyboard-response","388","407013","0.0-1.0-543.0","0","0","39074","","null","","","null","60","NaN","","","","","","","","","","","","","","",""
"","S2","","html-keyboard-response","389","407266","0.0-1.0-544.0","0","0","39074","","null","","","null","60","","NaN","","","","","","","","","","","","","",""
"","response","","html-keyboard-response","390","407695","0.0-1.0-545.0","0","0","39074","","427","","","75","60","","","2","60","training","adjacent","BA","2","1","N.jpg","O.jpg","0","0","1","",""
"","feedback","","html-keyboard-response","391","408698","0.0-1.0-546.0-0.0","0","0","39074","","null","","","null","60","","","","","","","","","","","","","","","",""
"","ITI","","html-keyboard-response","392","409701","0.0-1.0-549.0","0","0","39074","","null","","","null","60","","","","","","","","","","","","","","","NaN",""
"","S1","","html-keyboard-response","393","409954","0.0-1.0-551.0","0","0","39074","","null","","","null","61","","","","","","","","","","","","","","","",""
"","ISI","","html-keyboard-response","394","411957","0.0-1.0-552.0","0","0","39074","","null","","","null","61","NaN","","","","","","","","","","","","","","",""
"","S2","","html-keyboard-response","395","412209","0.0-1.0-553.0","0","0","39074","","null","","","null","61","","NaN","","","","","","","","","","","","","",""
"","response","","html-keyboard-response","396","412752","0.0-1.0-554.0","0","0","39074","","542","","","68","61","","","2","61","training","adjacent","DC","4","3","P.jpg","Q.jpg","1","0","0","",""
"","feedback","","html-keyboard-response","397","413755","0.0-1.0-555.0-0.0","0","0","39074","","null","","","null","61","","","","","","","","","","","","","","","",""
"","time_out","","html-keyboard-response","398","415757","0.0-1.0-557.0-0.0","0","0","39074","","null","","","null","61","","","","","","","","","","","","","","","",""
"","ITI","","html-keyboard-response","399","416760","0.0-1.0-558.0","0","0","39074","","null","","","null","61","","","","","","","","","","","","","","","NaN",""
"","S1","","html-keyboard-response","400","417012","0.0-1.0-560.0","0","0","39074","","null","","","null","62","","","","","","","","","","","","","","","",""
"","ISI","","html-keyboard-response","401","419020","0.0-1.0-561.0","0","0","39074","","null","","","null","62","NaN","","","","","","","","","","","","","","",""
"","S2","","html-keyboard-response","402","419272","0.0-1.0-562.0","0","0","39074","","null","","","null","62","","NaN","","","","","","","","","","","","","",""
"","response","","html-keyboard-response","403","419692","0.0-1.0-563.0","0","0","39074","","418","","","75","62","","","2","62","training","adjacent","DC","4","3","P.jpg","Q.jpg","0","0","1","",""
"","feedback","","html-keyboard-response","404","420695","0.0-1.0-564.0-0.0","0","0","39074","","null","","","null","62","","","","","","","","","","","","","","","",""
"","ITI","","html-keyboard-response","405","421697","0.0-1.0-567.0","0","0","39074","","null","","","null","62","","","","","","","","","","","","","","","NaN",""
"","S1","","html-keyboard-response","406","421950","0.0-1.0-569.0","0","0","39074","","null","","","null","63","","","","","","","","","","","","","","","",""
"","ISI","","html-keyboard-response","407","423952","0.0-1.0-570.0","0","0","39074","","null","","","null","63","NaN","","","","","","","","","","","","","","",""
"","S2","","html-keyboard-response","408","424205","0.0-1.0-571.0","0","0","39074","","null","","","null","63","","NaN","","","","","","","","","","","","","",""
"","response","","html-keyboard-response","409","424703","0.0-1.0-572.0","0","0","39074","","496","","","75","63","","","2","63","training","adjacent","BA","2","1","N.jpg","O.jpg","0","0","1","",""
"","feedback","","html-keyboard-response","410","425706","0.0-1.0-573.0-0.0","0","0","39074","","null","","","null","63","","","","","","","","","","","","","","","",""
"","ITI","","html-keyboard-response","411","426708","0.0-1.0-576.0","0","0","39074","","null","","","null","63","","","","","","","","","","","","","","","NaN",""
"","S1","","html-keyboard-response","412","426962","0.0-1.0-578.0","0","0","39074","","null","","","null","64","","","","","","","","","","","","","","","",""
"","ISI","","html-keyboard-response","413","428969","0.0-1.0-579.0","0","0","39074","","null","","","null","64","NaN","","","","","","","","","","","","","","",""
"","S2","","html-keyboard-response","414","429223","0.0-1.0-580.0","0","0","39074","","null","","","null","64","","NaN","","","","","","","","","","","","","",""
"","response","","html-keyboard-response","415","429650","0.0-1.0-581.0","0","0","39074","","424","","","75","64","","","2","64","training","adjacent","BC","2","3","N.jpg","Q.jpg","0","1","0","",""
"","feedback","","html-keyboard-response","416","430651","0.0-1.0-582.0-0.0","0","0","39074","","null","","","null","64","","","","","","","","","","","","","","","",""
"","time_out","","html-keyboard-response","417","432653","0.0-1.0-584.0-0.0","0","0","39074","","null","","","null","64","","","","","","","","","","","","","","","",""
"","ITI","","html-keyboard-response","418","433656","0.0-1.0-585.0","0","0","39074","","null","","","null","64","","","","","","","","","","","","","","","NaN",""
"","S1","","html-keyboard-response","419","433920","0.0-1.0-587.0","0","0","39074","","null","","","null","65","","","","","","","","","","","","","","","",""
"","ISI","","html-keyboard-response","420","435922","0.0-1.0-588.0","0","0","39074","","null","","","null","65","NaN","","","","","","","","","","","","","","",""
"","S2","","html-keyboard-response","421","436174","0.0-1.0-589.0","0","0","39074","","null","","","null","65","","NaN","","","","","","","","","","","","","",""
"","response","","html-keyboard-response","422","437130","0.0-1.0-590.0","0","0","39074","","954","","","68","65","","","2","65","training","adjacent","CD","3","4","Q.jpg","P.jpg","1","1","1","",""
"","feedback","","html-keyboard-response","423","438132","0.0-1.0-591.0-0.0","0","0","39074","","null","","","null","65","","","","","","","","","","","","","","","",""
"","ITI","","html-keyboard-response","424","439135","0.0-1.0-594.0","0","0","39074","","null","","","null","65","","","","","","","","","","","","","","","NaN",""
"","S1","","html-keyboard-response","425","439402","0.0-1.0-596.0","0","0","39074","","null","","","null","66","","","","","","","","","","","","","","","",""
"","ISI","","html-keyboard-response","426","441403","0.0-1.0-597.0","0","0","39074","","null","","","null","66","NaN","","","","","","","","","","","","","","",""
"","S2","","html-keyboard-response","427","441655","0.0-1.0-598.0","0","0","39074","","null","","","null","66","","NaN","","","","","","","","","","","","","",""
"","response","","html-keyboard-response","428","442033","0.0-1.0-599.0","0","0","39074","","376","","","75","66","","","2","66","training","adjacent","GF","7","6","R.jpg","M.jpg","0","0","1","",""
"","feedback","","html-keyboard-response","429","443036","0.0-1.0-600.0-0.0","0","0","39074","","null","","","null","66","","","","","","","","","","","","","","","",""
"","ITI","","html-keyboard-response","430","444037","0.0-1.0-603.0","0","0","39074","","null","","","null","66","","","","","","","","","","","","","","","NaN",""
"","S1","","html-keyboard-response","431","444290","0.0-1.0-605.0","0","0","39074","","null","","","null","67","","","","","","","","","","","","","","","",""
"","ISI","","html-keyboard-response","432","446292","0.0-1.0-606.0","0","0","39074","","null","","","null","67","NaN","","","","","","","","","","","","","","",""
"","S2","","html-keyboard-response","433","446544","0.0-1.0-607.0","0","0","39074","","null","","","null","67","","NaN","","","","","","","","","","","","","",""
"","response","","html-keyboard-response","434","447174","0.0-1.0-608.0","0","0","39074","","629","","","68","67","","","2","67","training","adjacent","CB","3","2","Q.jpg","N.jpg","1","0","0","",""
"","feedback","","html-keyboard-response","435","448176","0.0-1.0-609.0-0.0","0","0","39074","","null","","","null","67","","","","","","","","","","","","","","","",""
"","time_out","","html-keyboard-response","436","450179","0.0-1.0-611.0-0.0","0","0","39074","","null","","","null","67","","","","","","","","","","","","","","","",""
"","ITI","","html-keyboard-response","437","451181","0.0-1.0-612.0","0","0","39074","","null","","","null","67","","","","","","","","","","","","","","","NaN",""
"","S1","","html-keyboard-response","438","451433","0.0-1.0-614.0","0","0","39074","","null","","","null","68","","","","","","","","","","","","","","","",""
"","ISI","","html-keyboard-response","439","453436","0.0-1.0-615.0","0","0","39074","","null","","","null","68","NaN","","","","","","","","","","","","","","",""
"","S2","","html-keyboard-response","440","453689","0.0-1.0-616.0","0","0","39074","","null","","","null","68","","NaN","","","","","","","","","","","","","",""
"","response","","html-keyboard-response","441","453972","0.0-1.0-617.0","0","0","39074","","280","","","75","68","","","2","68","training","adjacent","GF","7","6","R.jpg","M.jpg","0","0","1","",""
"","feedback","","html-keyboard-response","442","454989","0.0-1.0-618.0-0.0","0","0","39074","","null","","","null","68","","","","","","","","","","","","","","","",""
"","ITI","","html-keyboard-response","443","455992","0.0-1.0-621.0","0","0","39074","","null","","","null","68","","","","","","","","","","","","","","","NaN",""
"","S1","","html-keyboard-response","444","456244","0.0-1.0-623.0","0","0","39074","","null","","","null","69","","","","","","","","","","","","","","","",""
"","ISI","","html-keyboard-response","445","458247","0.0-1.0-624.0","0","0","39074","","null","","","null","69","NaN","","","","","","","","","","","","","","",""
"","S2","","html-keyboard-response","446","458500","0.0-1.0-625.0","0","0","39074","","null","","","null","69","","NaN","","","","","","","","","","","","","",""
"","response","","html-keyboard-response","447","458782","0.0-1.0-626.0","0","0","39074","","280","","","68","69","","","2","69","training","adjacent","AB","1","2","O.jpg","N.jpg","1","1","1","",""
"","feedback","","html-keyboard-response","448","459785","0.0-1.0-627.0-0.0","0","0","39074","","null","","","null","69","","","","","","","","","","","","","","","",""
"","ITI","","html-keyboard-response","449","460787","0.0-1.0-630.0","0","0","39074","","null","","","null","69","","","","","","","","","","","","","","","NaN",""
"","S1","","html-keyboard-response","450","461040","0.0-1.0-632.0","0","0","39074","","null","","","null","70","","","","","","","","","","","","","","","",""
"","ISI","","html-keyboard-response","451","463042","0.0-1.0-633.0","0","0","39074","","null","","","null","70","NaN","","","","","","","","","","","","","","",""
"","S2","","html-keyboard-response","452","463294","0.0-1.0-634.0","0","0","39074","","null","","","null","70","","NaN","","","","","","","","","","","","","",""
"","response","","html-keyboard-response","453","463481","0.0-1.0-635.0","0","0","39074","","185","","","75","70","","","2","70","training","adjacent","BA","2","1","N.jpg","O.jpg","0","0","1","",""
"","feedback","","html-keyboard-response","454","464483","0.0-1.0-636.0-0.0","0","0","39074","","null","","","null","70","","","","","","","","","","","","","","","",""
"","ITI","","html-keyboard-response","455","465485","0.0-1.0-639.0","0","0","39074","","null","","","null","70","","","","","","","","","","","","","","","NaN",""
"","S1","","html-keyboard-response","456","465738","0.0-1.0-641.0","0","0","39074","","null","","","null","71","","","","","","","","","","","","","","","",""
"","ISI","","html-keyboard-response","457","467740","0.0-1.0-642.0","0","0","39074","","null","","","null","71","NaN","","","","","","","","","","","","","","",""
"","S2","","html-keyboard-response","458","467994","0.0-1.0-643.0","0","0","39074","","null","","","null","71","","NaN","","","","","","","","","","","","","",""
"","response","","html-keyboard-response","459","468529","0.0-1.0-644.0","0","0","39074","","534","","","75","71","","","2","71","training","adjacent","ED","5","4","L.jpg","P.jpg","0","0","1","",""
"","feedback","","html-keyboard-response","460","469532","0.0-1.0-645.0-0.0","0","0","39074","","null","","","null","71","","","","","","","","","","","","","","","",""
"","ITI","","html-keyboard-response","461","470535","0.0-1.0-648.0","0","0","39074","","null","","","null","71","","","","","","","","","","","","","","","NaN",""
"","S1","","html-keyboard-response","462","470788","0.0-1.0-650.0","0","0","39074","","null","","","null","72","","","","","","","","","","","","","","","",""
"","ISI","","html-keyboard-response","463","472791","0.0-1.0-651.0","0","0","39074","","null","","","null","72","NaN","","","","","","","","","","","","","","",""
"","S2","","html-keyboard-response","464","473043","0.0-1.0-652.0","0","0","39074","","null","","","null","72","","NaN","","","","","","","","","","","","","",""
"","response","","html-keyboard-response","465","473270","0.0-1.0-653.0","0","0","39074","","225","","","75","72","","","2","72","training","adjacent","BC","2","3","N.jpg","Q.jpg","0","1","0","",""
"","feedback","","html-keyboard-response","466","474272","0.0-1.0-654.0-0.0","0","0","39074","","null","","","null","72","","","","","","","","","","","","","","","",""
"","time_out","","html-keyboard-response","467","476274","0.0-1.0-656.0-0.0","0","0","39074","","null","","","null","72","","","","","","","","","","","","","","","",""
"","ITI","","html-keyboard-response","468","477276","0.0-1.0-657.0","0","0","39074","","null","","","null","72","","","","","","","","","","","","","","","NaN",""
"","S1","","html-keyboard-response","469","477530","0.0-1.0-659.0","0","0","39074","","null","","","null","73","","","","","","","","","","","","","","","",""
"","ISI","","html-keyboard-response","470","479531","0.0-1.0-660.0","0","0","39074","","null","","","null","73","NaN","","","","","","","","","","","","","","",""
"","S2","","html-keyboard-response","471","479784","0.0-1.0-661.0","0","0","39074","","null","","","null","73","","NaN","","","","","","","","","","","","","",""
"","response","","html-keyboard-response","472","480381","0.0-1.0-662.0","0","0","39074","","597","","","75","73","","","2","73","training","adjacent","EF","5","6","L.jpg","M.jpg","0","1","0","",""
"","feedback","","html-keyboard-response","473","481384","0.0-1.0-663.0-0.0","0","0","39074","","null","","","null","73","","","","","","","","","","","","","","","",""
"","time_out","","html-keyboard-response","474","483387","0.0-1.0-665.0-0.0","0","0","39074","","null","","","null","73","","","","","","","","","","","","","","","",""
"","ITI","","html-keyboard-response","475","484390","0.0-1.0-666.0","0","0","39074","","null","","","null","73","","","","","","","","","","","","","","","NaN",""
"","S1","","html-keyboard-response","476","484642","0.0-1.0-668.0","0","0","39074","","null","","","null","74","","","","","","","","","","","","","","","",""
"","ISI","","html-keyboard-response","477","486644","0.0-1.0-669.0","0","0","39074","","null","","","null","74","NaN","","","","","","","","","","","","","","",""
"","S2","","html-keyboard-response","478","486906","0.0-1.0-670.0","0","0","39074","","null","","","null","74","","NaN","","","","","","","","","","","","","",""
"","response","","html-keyboard-response","479","487248","0.0-1.0-671.0","0","0","39074","","340","","","75","74","","","2","74","training","adjacent","BA","2","1","N.jpg","O.jpg","0","0","1","",""
"","feedback","","html-keyboard-response","480","488264","0.0-1.0-672.0-0.0","0","0","39074","","null","","","null","74","","","","","","","","","","","","","","","",""
"","ITI","","html-keyboard-response","481","489267","0.0-1.0-675.0","0","0","39074","","null","","","null","74","","","","","","","","","","","","","","","NaN",""
"","S1","","html-keyboard-response","482","489520","0.0-1.0-677.0","0","0","39074","","null","","","null","75","","","","","","","","","","","","","","","",""
"","ISI","","html-keyboard-response","483","491522","0.0-1.0-678.0","0","0","39074","","null","","","null","75","NaN","","","","","","","","","","","","","","",""
"","S2","","html-keyboard-response","484","491775","0.0-1.0-679.0","0","0","39074","","null","","","null","75","","NaN","","","","","","","","","","","","","",""
"","response","","html-keyboard-response","485","492175","0.0-1.0-680.0","0","0","39074","","399","","","68","75","","","2","75","training","adjacent","DC","4","3","P.jpg","Q.jpg","1","0","0","",""
"","feedback","","html-keyboard-response","486","493178","0.0-1.0-681.0-0.0","0","0","39074","","null","","","null","75","","","","","","","","","","","","","","","",""
"","time_out","","html-keyboard-response","487","495182","0.0-1.0-683.0-0.0","0","0","39074","","null","","","null","75","","","","","","","","","","","","","","","",""
"","ITI","","html-keyboard-response","488","496185","0.0-1.0-684.0","0","0","39074","","null","","","null","75","","","","","","","","","","","","","","","NaN",""
"","S1","","html-keyboard-response","489","496437","0.0-1.0-686.0","0","0","39074","","null","","","null","76","","","","","","","","","","","","","","","",""
"","ISI","","html-keyboard-response","490","498440","0.0-1.0-687.0","0","0","39074","","null","","","null","76","NaN","","","","","","","","","","","","","","",""
"","S2","","html-keyboard-response","491","498693","0.0-1.0-688.0","0","0","39074","","null","","","null","76","","NaN","","","","","","","","","","","","","",""
"","response","","html-keyboard-response","492","499399","0.0-1.0-689.0","0","0","39074","","703","","","68","76","","","2","76","training","adjacent","DE","4","5","P.jpg","L.jpg","1","1","1","",""
"","feedback","","html-keyboard-response","493","500414","0.0-1.0-690.0-0.0","0","0","39074","","null","","","null","76","","","","","","","","","","","","","","","",""
"","ITI","","html-keyboard-response","494","501417","0.0-1.0-693.0","0","0","39074","","null","","","null","76","","","","","","","","","","","","","","","NaN",""
"","S1","","html-keyboard-response","495","501668","0.0-1.0-695.0","0","0","39074","","null","","","null","77","","","","","","","","","","","","","","","",""
"","ISI","","html-keyboard-response","496","503672","0.0-1.0-696.0","0","0","39074","","null","","","null","77","NaN","","","","","","","","","","","","","","",""
"","S2","","html-keyboard-response","497","503925","0.0-1.0-697.0","0","0","39074","","null","","","null","77","","NaN","","","","","","","","","","","","","",""
"","response","","html-keyboard-response","498","504535","0.0-1.0-698.0","0","0","39074","","608","","","68","77","","","2","77","training","adjacent","CD","3","4","Q.jpg","P.jpg","1","1","1","",""
"","feedback","","html-keyboard-response","499","505538","0.0-1.0-699.0-0.0","0","0","39074","","null","","","null","77","","","","","","","","","","","","","","","",""
"","ITI","","html-keyboard-response","500","506540","0.0-1.0-702.0","0","0","39074","","null","","","null","77","","","","","","","","","","","","","","","NaN",""
"","S1","","html-keyboard-response","501","506793","0.0-1.0-704.0","0","0","39074","","null","","","null","78","","","","","","","","","","","","","","","",""
"","ISI","","html-keyboard-response","502","508796","0.0-1.0-705.0","0","0","39074","","null","","","null","78","NaN","","","","","","","","","","","","","","",""
"","S2","","html-keyboard-response","503","509049","0.0-1.0-706.0","0","0","39074","","null","","","null","78","","NaN","","","","","","","","","","","","","",""
"","response","","html-keyboard-response","504","509881","0.0-1.0-707.0","0","0","39074","","831","","","68","78","","","2","78","training","adjacent","DE","4","5","P.jpg","L.jpg","1","1","1","",""
"","feedback","","html-keyboard-response","505","510883","0.0-1.0-708.0-0.0","0","0","39074","","null","","","null","78","","","","","","","","","","","","","","","",""
"","ITI","","html-keyboard-response","506","511887","0.0-1.0-711.0","0","0","39074","","null","","","null","78","","","","","","","","","","","","","","","NaN",""
"","S1","","html-keyboard-response","507","512139","0.0-1.0-713.0","0","0","39074","","null","","","null","79","","","","","","","","","","","","","","","",""
"","ISI","","html-keyboard-response","508","514142","0.0-1.0-714.0","0","0","39074","","null","","","null","79","NaN","","","","","","","","","","","","","","",""
"","S2","","html-keyboard-response","509","514394","0.0-1.0-715.0","0","0","39074","","null","","","null","79","","NaN","","","","","","","","","","","","","",""
"","response","","html-keyboard-response","510","515035","0.0-1.0-716.0","0","0","39074","","640","","","75","79","","","2","79","training","adjacent","ED","5","4","L.jpg","P.jpg","0","0","1","",""
"","feedback","","html-keyboard-response","511","516036","0.0-1.0-717.0-0.0","0","0","39074","","null","","","null","79","","","","","","","","","","","","","","","",""
"","ITI","","html-keyboard-response","512","517038","0.0-1.0-720.0","0","0","39074","","null","","","null","79","","","","","","","","","","","","","","","NaN",""
"","S1","","html-keyboard-response","513","517291","0.0-1.0-722.0","0","0","39074","","null","","","null","80","","","","","","","","","","","","","","","",""
"","ISI","","html-keyboard-response","514","519293","0.0-1.0-723.0","0","0","39074","","null","","","null","80","NaN","","","","","","","","","","","","","","",""
"","S2","","html-keyboard-response","515","519545","0.0-1.0-724.0","0","0","39074","","null","","","null","80","","NaN","","","","","","","","","","","","","",""
"","response","","html-keyboard-response","516","520023","0.0-1.0-725.0","0","0","39074","","475","","","68","80","","","2","80","training","adjacent","FE","6","5","M.jpg","L.jpg","1","0","0","",""
"","feedback","","html-keyboard-response","517","521025","0.0-1.0-726.0-0.0","0","0","39074","","null","","","null","80","","","","","","","","","","","","","","","",""
"","time_out","","html-keyboard-response","518","523028","0.0-1.0-728.0-0.0","0","0","39074","","null","","","null","80","","","","","","","","","","","","","","","",""
"","ITI","","html-keyboard-response","519","524030","0.0-1.0-729.0","0","0","39074","","null","","","null","80","","","","","","","","","","","","","","","NaN",""
"","S1","","html-keyboard-response","520","524282","0.0-1.0-731.0","0","0","39074","","null","","","null","81","","","","","","","","","","","","","","","",""
"","ISI","","html-keyboard-response","521","526284","0.0-1.0-732.0","0","0","39074","","null","","","null","81","NaN","","","","","","","","","","","","","","",""
"","S2","","html-keyboard-response","522","526537","0.0-1.0-733.0","0","0","39074","","null","","","null","81","","NaN","","","","","","","","","","","","","",""
"","response","","html-keyboard-response","523","526790","0.0-1.0-734.0","0","0","39074","","252","","","75","81","","","2","81","training","adjacent","GF","7","6","R.jpg","M.jpg","0","0","1","",""
"","feedback","","html-keyboard-response","524","527792","0.0-1.0-735.0-0.0","0","0","39074","","null","","","null","81","","","","","","","","","","","","","","","",""
"","ITI","","html-keyboard-response","525","528796","0.0-1.0-738.0","0","0","39074","","null","","","null","81","","","","","","","","","","","","","","","NaN",""
"","S1","","html-keyboard-response","526","529048","0.0-1.0-740.0","0","0","39074","","null","","","null","82","","","","","","","","","","","","","","","",""
"","ISI","","html-keyboard-response","527","531051","0.0-1.0-741.0","0","0","39074","","null","","","null","82","NaN","","","","","","","","","","","","","","",""
"","S2","","html-keyboard-response","528","531304","0.0-1.0-742.0","0","0","39074","","null","","","null","82","","NaN","","","","","","","","","","","","","",""
"","response","","html-keyboard-response","529","531740","0.0-1.0-743.0","0","0","39074","","434","","","68","82","","","2","82","training","adjacent","DE","4","5","P.jpg","L.jpg","1","1","1","",""
"","feedback","","html-keyboard-response","530","532742","0.0-1.0-744.0-0.0","0","0","39074","","null","","","null","82","","","","","","","","","","","","","","","",""
"","ITI","","html-keyboard-response","531","533745","0.0-1.0-747.0","0","0","39074","","null","","","null","82","","","","","","","","","","","","","","","NaN",""
"","S1","","html-keyboard-response","532","534010","0.0-1.0-749.0","0","0","39074","","null","","","null","83","","","","","","","","","","","","","","","",""
"","ISI","","html-keyboard-response","533","536013","0.0-1.0-750.0","0","0","39074","","null","","","null","83","NaN","","","","","","","","","","","","","","",""
"","S2","","html-keyboard-response","534","536266","0.0-1.0-751.0","0","0","39074","","null","","","null","83","","NaN","","","","","","","","","","","","","",""
"","response","","html-keyboard-response","535","536551","0.0-1.0-752.0","0","0","39074","","284","","","75","83","","","2","83","training","adjacent","FG","6","7","M.jpg","R.jpg","0","1","0","",""
"","feedback","","html-keyboard-response","536","537554","0.0-1.0-753.0-0.0","0","0","39074","","null","","","null","83","","","","","","","","","","","","","","","",""
"","time_out","","html-keyboard-response","537","539556","0.0-1.0-755.0-0.0","0","0","39074","","null","","","null","83","","","","","","","","","","","","","","","",""
"","ITI","","html-keyboard-response","538","540559","0.0-1.0-756.0","0","0","39074","","null","","","null","83","","","","","","","","","","","","","","","NaN",""
"","S1","","html-keyboard-response","539","540811","0.0-1.0-758.0","0","0","39074","","null","","","null","84","","","","","","","","","","","","","","","",""
"","ISI","","html-keyboard-response","540","542813","0.0-1.0-759.0","0","0","39074","","null","","","null","84","NaN","","","","","","","","","","","","","","",""
"","S2","","html-keyboard-response","541","543066","0.0-1.0-760.0","0","0","39074","","null","","","null","84","","NaN","","","","","","","","","","","","","",""
"","response","","html-keyboard-response","542","543511","0.0-1.0-761.0","0","0","39074","","442","","","68","84","","","2","84","training","adjacent","AB","1","2","O.jpg","N.jpg","1","1","1","",""
"","feedback","","html-keyboard-response","543","544514","0.0-1.0-762.0-0.0","0","0","39074","","null","","","null","84","","","","","","","","","","","","","","","",""
"","ITI","","html-keyboard-response","544","545517","0.0-1.0-765.0","0","0","39074","","null","","","null","84","","","","","","","","","","","","","","","NaN",""
"","S1","","html-keyboard-response","545","545771","0.0-1.0-767.0","0","0","39074","","null","","","null","85","","","","","","","","","","","","","","","",""
"","ISI","","html-keyboard-response","546","547773","0.0-1.0-768.0","0","0","39074","","null","","","null","85","NaN","","","","","","","","","","","","","","",""
"","S2","","html-keyboard-response","547","548026","0.0-1.0-769.0","0","0","39074","","null","","","null","85","","NaN","","","","","","","","","","","","","",""
"","response","","html-keyboard-response","548","548512","0.0-1.0-770.0","0","0","39074","","485","","","68","85","","","2","85","training","adjacent","CB","3","2","Q.jpg","N.jpg","1","0","0","",""
"","feedback","","html-keyboard-response","549","549514","0.0-1.0-771.0-0.0","0","0","39074","","null","","","null","85","","","","","","","","","","","","","","","",""
"","time_out","","html-keyboard-response","550","551516","0.0-1.0-773.0-0.0","0","0","39074","","null","","","null","85","","","","","","","","","","","","","","","",""
"","ITI","","html-keyboard-response","551","552519","0.0-1.0-774.0","0","0","39074","","null","","","null","85","","","","","","","","","","","","","","","NaN",""
"","S1","","html-keyboard-response","552","552773","0.0-1.0-776.0","0","0","39074","","null","","","null","86","","","","","","","","","","","","","","","",""
"","ISI","","html-keyboard-response","553","554776","0.0-1.0-777.0","0","0","39074","","null","","","null","86","NaN","","","","","","","","","","","","","","",""
"","S2","","html-keyboard-response","554","555029","0.0-1.0-778.0","0","0","39074","","null","","","null","86","","NaN","","","","","","","","","","","","","",""
"","response","","html-keyboard-response","555","555331","0.0-1.0-779.0","0","0","39074","","300","","","68","86","","","2","86","training","adjacent","BC","2","3","N.jpg","Q.jpg","1","1","1","",""
"","feedback","","html-keyboard-response","556","556333","0.0-1.0-780.0-0.0","0","0","39074","","null","","","null","86","","","","","","","","","","","","","","","",""
"","ITI","","html-keyboard-response","557","557337","0.0-1.0-783.0","0","0","39074","","null","","","null","86","","","","","","","","","","","","","","","NaN",""
"","S1","","html-keyboard-response","558","557589","0.0-1.0-785.0","0","0","39074","","null","","","null","87","","","","","","","","","","","","","","","",""
"","ISI","","html-keyboard-response","559","559592","0.0-1.0-786.0","0","0","39074","","null","","","null","87","NaN","","","","","","","","","","","","","","",""
"","S2","","html-keyboard-response","560","559846","0.0-1.0-787.0","0","0","39074","","null","","","null","87","","NaN","","","","","","","","","","","","","",""
"","response","","html-keyboard-response","561","560380","0.0-1.0-788.0","0","0","39074","","533","","","75","87","","","2","87","training","adjacent","EF","5","6","L.jpg","M.jpg","0","1","0","",""
"","feedback","","html-keyboard-response","562","561382","0.0-1.0-789.0-0.0","0","0","39074","","null","","","null","87","","","","","","","","","","","","","","","",""
"","time_out","","html-keyboard-response","563","563385","0.0-1.0-791.0-0.0","0","0","39074","","null","","","null","87","","","","","","","","","","","","","","","",""
"","ITI","","html-keyboard-response","564","564387","0.0-1.0-792.0","0","0","39074","","null","","","null","87","","","","","","","","","","","","","","","NaN",""
"","S1","","html-keyboard-response","565","564640","0.0-1.0-794.0","0","0","39074","","null","","","null","88","","","","","","","","","","","","","","","",""
"","ISI","","html-keyboard-response","566","566642","0.0-1.0-795.0","0","0","39074","","null","","","null","88","NaN","","","","","","","","","","","","","","",""
"","S2","","html-keyboard-response","567","566895","0.0-1.0-796.0","0","0","39074","","null","","","null","88","","NaN","","","","","","","","","","","","","",""
"","response","","html-keyboard-response","568","567127","0.0-1.0-797.0","0","0","39074","","231","","","68","88","","","2","88","training","adjacent","FG","6","7","M.jpg","R.jpg","1","1","1","",""
"","feedback","","html-keyboard-response","569","568129","0.0-1.0-798.0-0.0","0","0","39074","","null","","","null","88","","","","","","","","","","","","","","","",""
"","ITI","","html-keyboard-response","570","569132","0.0-1.0-801.0","0","0","39074","","null","","","null","88","","","","","","","","","","","","","","","NaN",""
"","S1","","html-keyboard-response","571","569384","0.0-1.0-803.0","0","0","39074","","null","","","null","89","","","","","","","","","","","","","","","",""
"","ISI","","html-keyboard-response","572","571387","0.0-1.0-804.0","0","0","39074","","null","","","null","89","NaN","","","","","","","","","","","","","","",""
"","S2","","html-keyboard-response","573","571641","0.0-1.0-805.0","0","0","39074","","null","","","null","89","","NaN","","","","","","","","","","","","","",""
"","response","","html-keyboard-response","574","572181","0.0-1.0-806.0","0","0","39074","","538","","","68","89","","","2","89","training","adjacent","FE","6","5","M.jpg","L.jpg","1","0","0","",""
"","feedback","","html-keyboard-response","575","573183","0.0-1.0-807.0-0.0","0","0","39074","","null","","","null","89","","","","","","","","","","","","","","","",""
"","time_out","","html-keyboard-response","576","575186","0.0-1.0-809.0-0.0","0","0","39074","","null","","","null","89","","","","","","","","","","","","","","","",""
"","ITI","","html-keyboard-response","577","576192","0.0-1.0-810.0","0","0","39074","","null","","","null","89","","","","","","","","","","","","","","","NaN",""
"","S1","","html-keyboard-response","578","576445","0.0-1.0-812.0","0","0","39074","","null","","","null","90","","","","","","","","","","","","","","","",""
"","ISI","","html-keyboard-response","579","578448","0.0-1.0-813.0","0","0","39074","","null","","","null","90","NaN","","","","","","","","","","","","","","",""
"","S2","","html-keyboard-response","580","578701","0.0-1.0-814.0","0","0","39074","","null","","","null","90","","NaN","","","","","","","","","","","","","",""
"","response","","html-keyboard-response","581","578971","0.0-1.0-815.0","0","0","39074","","268","","","75","90","","","2","90","training","adjacent","CD","3","4","Q.jpg","P.jpg","0","1","0","",""
"","feedback","","html-keyboard-response","582","579974","0.0-1.0-816.0-0.0","0","0","39074","","null","","","null","90","","","","","","","","","","","","","","","",""
"","time_out","","html-keyboard-response","583","581978","0.0-1.0-818.0-0.0","0","0","39074","","null","","","null","90","","","","","","","","","","","","","","","",""
"","ITI","","html-keyboard-response","584","582980","0.0-1.0-819.0","0","0","39074","","null","","","null","90","","","","","","","","","","","","","","","NaN",""
"","S1","","html-keyboard-response","585","583233","0.0-1.0-821.0","0","0","39074","","null","","","null","91","","","","","","","","","","","","","","","",""
