"success","ttype","start_time","trial_type","trial_index","time_elapsed","internal_node_id","warning","missed_checkup","PID","view_history","rt","responses","repeat_instructions","key_press","index","keypress_isi","keypress_S2","block","trial_num","phase","group_type","pair_type","S1_stim","S2_stim","S1_img","S2_img","S1_chosen","S1_higher","accuracy","keypress_iti","total_bonus_tally"
"true","full_screen","d04062023hr1926","fullscreen","0","2297","0.0-0.0","0","0","43142","","","","","","","","","","","","","","","","","","","","","",""
"","instructions","","instructions","1","35389","0.0-1.0-0.0-0.0","0","0","43142","[{""page_index"":0,""viewing_time"":3091},{""page_index"":1,""viewing_time"":15880},{""page_index"":2,""viewing_time"":12662},{""page_index"":3,""viewing_time"":1456}]","33089","","","","","","","","","","","","","","","","","","","",""
"","comprehension_check","","survey-multi-choice","2","56113","0.0-1.0-0.0-1.0","0","0","43142","","20720","{""Q0"":""True"",""Q1"":""D"",""Q2"":""Once the second image appears and while the screen 'MAKE A CHOICE' is shown"",""Q3"":""Green mark"",""Q4"":""either D or K""}","0","","","","","","","","","","","","","","","","","",""
"","start_exp","","html-keyboard-response","3","57883","0.0-1.0-1.0","0","0","43142","","1768","","","32","","","","","","","","","","","","","","","","",""
"","S1","","html-keyboard-response","4","58044","0.0-1.0-2.0","0","0","43142","","null","","","null","0","","","","","","","","","","","","","","","",""
"","ISI","","html-keyboard-response","5","60052","0.0-1.0-3.0","0","0","43142","","null","","","null","0","NaN","","","","","","","","","","","","","","",""
"","S2","","html-keyboard-response","6","60208","0.0-1.0-4.0","0","0","43142","","null","","","null","0","","NaN","","","","","","","","","","","","","",""
"","response","","html-keyboard-response","7","62022","0.0-1.0-5.0-0.0","0","0","43142","","1811","","","68","0","","","1","0","training","adjacent","FG","6","7","M.jpg","Q.jpg","1","1","1","",""
"","feedback","","html-keyboard-response","8","63036","0.0-1.0-6.0-0.0","0","0","43142","","null","","","null","0","","","","","","","","","","","","","","","",""
"","ITI","","html-keyboard-response","9","64052","0.0-1.0-9.0","0","0","43142","","null","","","null","0","","","","","","","","","","","","","","","NaN",""
"","S1","","html-keyboard-response","10","64209","0.0-1.0-11.0","0","0","43142","","null","","","null","1","","","","","","","","","","","","","","","",""
"","ISI","","html-keyboard-response","11","66217","0.0-1.0-12.0","0","0","43142","","null","","","null","1","NaN","","","","","","","","","","","","","","",""
"","S2","","html-keyboard-response","12","66379","0.0-1.0-13.0","0","0","43142","","null","","","null","1","","NaN","","","","","","","","","","","","","",""
"","response","","html-keyboard-response","13","67373","0.0-1.0-14.0-0.0","0","0","43142","","991","","","75","1","","","1","1","training","adjacent","CB","3","2","L.jpg","N.jpg","0","0","1","",""
"","feedback","","html-keyboard-response","14","68383","0.0-1.0-15.0-0.0","0","0","43142","","null","","","null","1","","","","","","","","","","","","","","","",""
"","ITI","","html-keyboard-response","15","69393","0.0-1.0-18.0","0","0","43142","","null","","","null","1","","","","","","","","","","","","","","","NaN",""
"","S1","","html-keyboard-response","16","69555","0.0-1.0-20.0","0","0","43142","","null","","","null","2","","","","","","","","","","","","","","","",""
"","ISI","","html-keyboard-response","17","71564","0.0-1.0-21.0","0","0","43142","","null","","","null","2","NaN","","","","","","","","","","","","","","",""
"","S2","","html-keyboard-response","18","71721","0.0-1.0-22.0","0","0","43142","","null","","","null","2","","NaN","","","","","","","","","","","","","",""
"","response","","html-keyboard-response","19","72232","0.0-1.0-23.0-0.0","0","0","43142","","509","","","75","2","","","1","2","training","adjacent","BA","2","1","N.jpg","O.jpg","0","0","1","",""
"","feedback","","html-keyboard-response","20","73242","0.0-1.0-24.0-0.0","0","0","43142","","null","","","null","2","","","","","","","","","","","","","","","",""
"","ITI","","html-keyboard-response","21","74252","0.0-1.0-27.0","0","0","43142","","null","","","null","2","","","","","","","","","","","","","","","NaN",""
"","S1","","html-keyboard-response","22","74409","0.0-1.0-29.0","0","0","43142","","null","","","null","3","","","","","","","","","","","","","","","",""
"","ISI","","html-keyboard-response","23","76417","0.0-1.0-30.0","0","0","43142","","null","","","null","3","NaN","","","","","","","","","","","","","","",""
"","S2","","html-keyboard-response","24","76578","0.0-1.0-31.0","0","0","43142","","null","","","null","3","","NaN","","","","","","","","","","","","","",""
"","response","","html-keyboard-response","25","77113","0.0-1.0-32.0-0.0","0","0","43142","","532","","","68","3","","","1","3","training","adjacent","GF","7","6","Q.jpg","M.jpg","1","0","0","",""
"","feedback","","html-keyboard-response","26","78123","0.0-1.0-33.0-0.0","0","0","43142","","null","","","null","3","","","","","","","","","","","","","","","",""
"","time_out","","html-keyboard-response","27","80132","0.0-1.0-35.0-0.0","0","0","43142","","null","","","null","3","","","","","","","","","","","","","","","",""
"","ITI","","html-keyboard-response","28","81135","0.0-1.0-36.0","0","0","43142","","null","","","null","3","","","","","","","","","","","","","","","NaN",""
"","S1","","html-keyboard-response","29","81297","0.0-1.0-38.0","0","0","43142","","null","","","null","4","","","","","","","","","","","","","","","",""
"","ISI","","html-keyboard-response","30","83307","0.0-1.0-39.0","0","0","43142","","null","","","null","4","NaN","","","","","","","","","","","","","","",""
"","S2","","html-keyboard-response","31","83463","0.0-1.0-40.0","0","0","43142","","null","","","null","4","","NaN","","","","","","","","","","","","","",""
"","response","","html-keyboard-response","32","84091","0.0-1.0-41.0-0.0","0","0","43142","","626","","","75","4","","","1","4","training","adjacent","FE","6","5","M.jpg","R.jpg","0","0","1","",""
"","feedback","","html-keyboard-response","33","85097","0.0-1.0-42.0-0.0","0","0","43142","","null","","","null","4","","","","","","","","","","","","","","","",""
"","ITI","","html-keyboard-response","34","86104","0.0-1.0-45.0","0","0","43142","","null","","","null","4","","","","","","","","","","","","","","","NaN",""
"","S1","","html-keyboard-response","35","86268","0.0-1.0-47.0","0","0","43142","","null","","","null","5","","","","","","","","","","","","","","","",""
"","ISI","","html-keyboard-response","36","88276","0.0-1.0-48.0","0","0","43142","","null","","","null","5","NaN","","","","","","","","","","","","","","",""
"","S2","","html-keyboard-response","37","88434","0.0-1.0-49.0","0","0","43142","","null","","","null","5","","NaN","","","","","","","","","","","","","",""
"","response","","html-keyboard-response","38","89185","0.0-1.0-50.0-0.0","0","0","43142","","749","","","75","5","","","1","5","training","adjacent","BC","2","3","N.jpg","L.jpg","0","1","0","",""
"","feedback","","html-keyboard-response","39","90192","0.0-1.0-51.0-0.0","0","0","43142","","null","","","null","5","","","","","","","","","","","","","","","",""
"","time_out","","html-keyboard-response","40","92201","0.0-1.0-53.0-0.0","0","0","43142","","null","","","null","5","","","","","","","","","","","","","","","",""
"","ITI","","html-keyboard-response","41","93210","0.0-1.0-54.0","0","0","43142","","null","","","null","5","","","","","","","","","","","","","","","NaN",""
"","S1","","html-keyboard-response","42","93368","0.0-1.0-56.0","0","0","43142","","null","","","null","6","","","","","","","","","","","","","","","",""
"","ISI","","html-keyboard-response","43","95376","0.0-1.0-57.0","0","0","43142","","null","","","null","6","NaN","","","","","","","","","","","","","","",""
"","S2","","html-keyboard-response","44","95538","0.0-1.0-58.0","0","0","43142","","null","","","null","6","","NaN","","","","","","","","","","","","","",""
"","response","","html-keyboard-response","45","96405","0.0-1.0-59.0-0.0","0","0","43142","","864","","","75","6","","","1","6","training","adjacent","DC","4","3","P.jpg","L.jpg","0","0","1","",""
"","feedback","","html-keyboard-response","46","97419","0.0-1.0-60.0-0.0","0","0","43142","","null","","","null","6","","","","","","","","","","","","","","","",""
"","ITI","","html-keyboard-response","47","98424","0.0-1.0-63.0","0","0","43142","","null","","","null","6","","","","","","","","","","","","","","","NaN",""
"","S1","","html-keyboard-response","48","98586","0.0-1.0-65.0","0","0","43142","","null","","","null","7","","","","","","","","","","","","","","","",""
"","ISI","","html-keyboard-response","49","100594","0.0-1.0-66.0","0","0","43142","","null","","","null","7","NaN","","","","","","","","","","","","","","",""
"","S2","","html-keyboard-response","50","100752","0.0-1.0-67.0","0","0","43142","","null","","","null","7","","NaN","","","","","","","","","","","","","",""
"","response","","html-keyboard-response","51","101671","0.0-1.0-68.0-0.0","0","0","43142","","917","","","68","7","","","1","7","training","adjacent","ED","5","4","R.jpg","P.jpg","1","0","0","",""
"","feedback","","html-keyboard-response","52","102685","0.0-1.0-69.0-0.0","0","0","43142","","null","","","null","7","","","","","","","","","","","","","","","",""
"","time_out","","html-keyboard-response","53","104687","0.0-1.0-71.0-0.0","0","0","43142","","null","","","null","7","","","","","","","","","","","","","","","",""
"","ITI","","html-keyboard-response","54","105697","0.0-1.0-72.0","0","0","43142","","null","","","null","7","","","","","","","","","","","","","","","NaN",""
"","S1","","html-keyboard-response","55","105860","0.0-1.0-74.0","0","0","43142","","null","","","null","8","","","","","","","","","","","","","","","",""
"","ISI","","html-keyboard-response","56","107869","0.0-1.0-75.0","0","0","43142","","null","","","null","8","NaN","","","","","","","","","","","","","","",""
"","S2","","html-keyboard-response","57","108025","0.0-1.0-76.0","0","0","43142","","null","","","null","8","","NaN","","","","","","","","","","","","","",""
"","response","","html-keyboard-response","58","108760","0.0-1.0-77.0-0.0","0","0","43142","","732","","","68","8","","","1","8","training","adjacent","EF","5","6","R.jpg","M.jpg","1","1","1","",""
"","feedback","","html-keyboard-response","59","109773","0.0-1.0-78.0-0.0","0","0","43142","","null","","","null","8","","","","","","","","","","","","","","","",""
"","ITI","","html-keyboard-response","60","110776","0.0-1.0-81.0","0","0","43142","","null","","","null","8","","","","","","","","","","","","","","","NaN",""
"","S1","","html-keyboard-response","61","110939","0.0-1.0-83.0","0","0","43142","","null","","","null","9","","","","","","","","","","","","","","","",""
"","ISI","","html-keyboard-response","62","112948","0.0-1.0-84.0","0","0","43142","","null","","","null","9","NaN","","","","","","","","","","","","","","",""
"","S2","","html-keyboard-response","63","113104","0.0-1.0-85.0","0","0","43142","","null","","","null","9","","NaN","","","","","","","","","","","","","",""
"","response","","html-keyboard-response","64","113912","0.0-1.0-86.0-0.0","0","0","43142","","805","","","68","9","","","1","9","training","adjacent","GF","7","6","Q.jpg","M.jpg","1","0","0","",""
"","feedback","","html-keyboard-response","65","114921","0.0-1.0-87.0-0.0","0","0","43142","","null","","","null","9","","","","","","","","","","","","","","","",""
"","time_out","","html-keyboard-response","66","116930","0.0-1.0-89.0-0.0","0","0","43142","","null","","","null","9","","","","","","","","","","","","","","","",""
"","ITI","","html-keyboard-response","67","117941","0.0-1.0-90.0","0","0","43142","","null","","","null","9","","","","","","","","","","","","","","","NaN",""
"","S1","","html-keyboard-response","68","118097","0.0-1.0-92.0","0","0","43142","","null","","","null","10","","","","","","","","","","","","","","","",""
"","ISI","","html-keyboard-response","69","120105","0.0-1.0-93.0","0","0","43142","","null","","","null","10","NaN","","","","","","","","","","","","","","",""
"","S2","","html-keyboard-response","70","120268","0.0-1.0-94.0","0","0","43142","","null","","","null","10","","NaN","","","","","","","","","","","","","",""
"","response","","html-keyboard-response","71","121061","0.0-1.0-95.0-0.0","0","0","43142","","790","","","75","10","","","1","10","training","adjacent","ED","5","4","R.jpg","P.jpg","0","0","1","",""
"","feedback","","html-keyboard-response","72","122073","0.0-1.0-96.0-0.0","0","0","43142","","null","","","null","10","","","","","","","","","","","","","","","",""
"","ITI","","html-keyboard-response","73","123083","0.0-1.0-99.0","0","0","43142","","null","","","null","10","","","","","","","","","","","","","","","NaN",""
"","S1","","html-keyboard-response","74","123240","0.0-1.0-101.0","0","0","43142","","null","","","null","11","","","","","","","","","","","","","","","",""
"","ISI","","html-keyboard-response","75","125248","0.0-1.0-102.0","0","0","43142","","null","","","null","11","NaN","","","","","","","","","","","","","","",""
"","S2","","html-keyboard-response","76","125411","0.0-1.0-103.0","0","0","43142","","null","","","null","11","","NaN","","","","","","","","","","","","","",""
"","response","","html-keyboard-response","77","125798","0.0-1.0-104.0-0.0","0","0","43142","","385","","","75","11","","","1","11","training","adjacent","CB","3","2","L.jpg","N.jpg","0","0","1","",""
"","feedback","","html-keyboard-response","78","126815","0.0-1.0-105.0-0.0","0","0","43142","","null","","","null","11","","","","","","","","","","","","","","","",""
"","ITI","","html-keyboard-response","79","127825","0.0-1.0-108.0","0","0","43142","","null","","","null","11","","","","","","","","","","","","","","","NaN",""
"","S1","","html-keyboard-response","80","127985","0.0-1.0-110.0","0","0","43142","","null","","","null","12","","","","","","","","","","","","","","","",""
"","ISI","","html-keyboard-response","81","129992","0.0-1.0-111.0","0","0","43142","","null","","","null","12","NaN","","","","","","","","","","","","","","",""
"","S2","","html-keyboard-response","82","130154","0.0-1.0-112.0","0","0","43142","","null","","","null","12","","NaN","","","","","","","","","","","","","",""
"","response","","html-keyboard-response","83","130758","0.0-1.0-113.0-0.0","0","0","43142","","601","","","75","12","","","1","12","training","adjacent","EF","5","6","R.jpg","M.jpg","0","1","0","",""
"","feedback","","html-keyboard-response","84","131768","0.0-1.0-114.0-0.0","0","0","43142","","null","","","null","12","","","","","","","","","","","","","","","",""
"","time_out","","html-keyboard-response","85","133775","0.0-1.0-116.0-0.0","0","0","43142","","null","","","null","12","","","","","","","","","","","","","","","",""
"","ITI","","html-keyboard-response","86","134787","0.0-1.0-117.0","0","0","43142","","null","","","null","12","","","","","","","","","","","","","","","NaN",""
"","S1","","html-keyboard-response","87","134948","0.0-1.0-119.0","0","0","43142","","null","","","null","13","","","","","","","","","","","","","","","",""
"","ISI","","html-keyboard-response","88","136952","0.0-1.0-120.0","0","0","43142","","null","","","null","13","NaN","","","","","","","","","","","","","","",""
"","S2","","html-keyboard-response","89","137114","0.0-1.0-121.0","0","0","43142","","null","","","null","13","","NaN","","","","","","","","","","","","","",""
"","response","","html-keyboard-response","90","137844","0.0-1.0-122.0-0.0","0","0","43142","","729","","","68","13","","","1","13","training","adjacent","DC","4","3","P.jpg","L.jpg","1","0","0","",""
"","feedback","","html-keyboard-response","91","138850","0.0-1.0-123.0-0.0","0","0","43142","","null","","","null","13","","","","","","","","","","","","","","","",""
"","time_out","","html-keyboard-response","92","140858","0.0-1.0-125.0-0.0","0","0","43142","","null","","","null","13","","","","","","","","","","","","","","","",""
"","ITI","","html-keyboard-response","93","141869","0.0-1.0-126.0","0","0","43142","","null","","","null","13","","","","","","","","","","","","","","","NaN",""
"","S1","","html-keyboard-response","94","142025","0.0-1.0-128.0","0","0","43142","","null","","","null","14","","","","","","","","","","","","","","","",""
"","ISI","","html-keyboard-response","95","144033","0.0-1.0-129.0","0","0","43142","","null","","","null","14","NaN","","","","","","","","","","","","","","",""
"","S2","","html-keyboard-response","96","144196","0.0-1.0-130.0","0","0","43142","","null","","","null","14","","NaN","","","","","","","","","","","","","",""
"","response","","html-keyboard-response","97","144881","0.0-1.0-131.0-0.0","0","0","43142","","684","","","68","14","","","1","14","training","adjacent","DE","4","5","P.jpg","R.jpg","1","1","1","",""
"","feedback","","html-keyboard-response","98","145891","0.0-1.0-132.0-0.0","0","0","43142","","null","","","null","14","","","","","","","","","","","","","","","",""
"","ITI","","html-keyboard-response","99","146896","0.0-1.0-135.0","0","0","43142","","null","","","null","14","","","","","","","","","","","","","","","NaN",""
"","S1","","html-keyboard-response","100","147058","0.0-1.0-137.0","0","0","43142","","null","","","null","15","","","","","","","","","","","","","","","",""
"","ISI","","html-keyboard-response","101","149067","0.0-1.0-138.0","0","0","43142","","null","","","null","15","NaN","","","","","","","","","","","","","","",""
"","S2","","html-keyboard-response","102","149224","0.0-1.0-139.0","0","0","43142","","null","","","null","15","","NaN","","","","","","","","","","","","","",""
"","response","","html-keyboard-response","103","150129","0.0-1.0-140.0-0.0","0","0","43142","","904","","","75","15","","","1","15","training","adjacent","CD","3","4","L.jpg","P.jpg","0","1","0","",""
"","feedback","","html-keyboard-response","104","151139","0.0-1.0-141.0-0.0","0","0","43142","","null","","","null","15","","","","","","","","","","","","","","","",""
"","time_out","","html-keyboard-response","105","153148","0.0-1.0-143.0-0.0","0","0","43142","","null","","","null","15","","","","","","","","","","","","","","","",""
"","ITI","","html-keyboard-response","106","154152","0.0-1.0-144.0","0","0","43142","","null","","","null","15","","","","","","","","","","","","","","","NaN",""
"","S1","","html-keyboard-response","107","154314","0.0-1.0-146.0","0","0","43142","","null","","","null","16","","","","","","","","","","","","","","","",""
"","ISI","","html-keyboard-response","108","156322","0.0-1.0-147.0","0","0","43142","","null","","","null","16","NaN","","","","","","","","","","","","","","",""
"","S2","","html-keyboard-response","109","156481","0.0-1.0-148.0","0","0","43142","","null","","","null","16","","NaN","","","","","","","","","","","","","",""
"","response","","html-keyboard-response","110","157331","0.0-1.0-149.0-0.0","0","0","43142","","848","","","68","16","","","1","16","training","adjacent","DE","4","5","P.jpg","R.jpg","1","1","1","",""
"","feedback","","html-keyboard-response","111","158337","0.0-1.0-150.0-0.0","0","0","43142","","null","","","null","16","","","","","","","","","","","","","","","",""
"","ITI","","html-keyboard-response","112","159347","0.0-1.0-153.0","0","0","43142","","null","","","null","16","","","","","","","","","","","","","","","NaN",""
"","S1","","html-keyboard-response","113","159504","0.0-1.0-155.0","0","0","43142","","null","","","null","17","","","","","","","","","","","","","","","",""
"","ISI","","html-keyboard-response","114","161512","0.0-1.0-156.0","0","0","43142","","null","","","null","17","NaN","","","","","","","","","","","","","","",""
"","S2","","html-keyboard-response","115","161675","0.0-1.0-157.0","0","0","43142","","null","","","null","17","","NaN","","","","","","","","","","","","","",""
"","response","","html-keyboard-response","116","162338","0.0-1.0-158.0-0.0","0","0","43142","","661","","","68","17","","","1","17","training","adjacent","AB","1","2","O.jpg","N.jpg","1","1","1","",""
"","feedback","","html-keyboard-response","117","163347","0.0-1.0-159.0-0.0","0","0","43142","","null","","","null","17","","","","","","","","","","","","","","","",""
"","ITI","","html-keyboard-response","118","164353","0.0-1.0-162.0","0","0","43142","","null","","","null","17","","","","","","","","","","","","","","","NaN",""
"","S1","","html-keyboard-response","119","164513","0.0-1.0-164.0","0","0","43142","","null","","","null","18","","","","","","","","","","","","","","","",""
"","ISI","","html-keyboard-response","120","166522","0.0-1.0-165.0","0","0","43142","","null","","","null","18","NaN","","","","","","","","","","","","","","",""
"","S2","","html-keyboard-response","121","166683","0.0-1.0-166.0","0","0","43142","","null","","","null","18","","NaN","","","","","","","","","","","","","",""
"","response","","html-keyboard-response","122","167245","0.0-1.0-167.0-0.0","0","0","43142","","559","","","75","18","","","1","18","training","adjacent","BC","2","3","N.jpg","L.jpg","0","1","0","",""
"","feedback","","html-keyboard-response","123","168251","0.0-1.0-168.0-0.0","0","0","43142","","null","","","null","18","","","","","","","","","","","","","","","",""
"","time_out","","html-keyboard-response","124","170257","0.0-1.0-170.0-0.0","0","0","43142","","null","","","null","18","","","","","","","","","","","","","","","",""
"","ITI","","html-keyboard-response","125","171264","0.0-1.0-171.0","0","0","43142","","null","","","null","18","","","","","","","","","","","","","","","NaN",""
"","S1","","html-keyboard-response","126","171428","0.0-1.0-173.0","0","0","43142","","null","","","null","19","","","","","","","","","","","","","","","",""
"","ISI","","html-keyboard-response","127","173436","0.0-1.0-174.0","0","0","43142","","null","","","null","19","NaN","","","","","","","","","","","","","","",""
"","S2","","html-keyboard-response","128","173592","0.0-1.0-175.0","0","0","43142","","null","","","null","19","","NaN","","","","","","","","","","","","","",""
"","response","","html-keyboard-response","129","174360","0.0-1.0-176.0-0.0","0","0","43142","","766","","","75","19","","","1","19","training","adjacent","FE","6","5","M.jpg","R.jpg","0","0","1","",""
"","feedback","","html-keyboard-response","130","175369","0.0-1.0-177.0-0.0","0","0","43142","","null","","","null","19","","","","","","","","","","","","","","","",""
"","ITI","","html-keyboard-response","131","176378","0.0-1.0-180.0","0","0","43142","","null","","","null","19","","","","","","","","","","","","","","","NaN",""
"","S1","","html-keyboard-response","132","176536","0.0-1.0-182.0","0","0","43142","","null","","","null","20","","","","","","","","","","","","","","","",""
"","ISI","","html-keyboard-response","133","178544","0.0-1.0-183.0","0","0","43142","","null","","","null","20","NaN","","","","","","","","","","","","","","",""
"","S2","","html-keyboard-response","134","178706","0.0-1.0-184.0","0","0","43142","","null","","","null","20","","NaN","","","","","","","","","","","","","",""
"","response","","html-keyboard-response","135","179454","0.0-1.0-185.0-0.0","0","0","43142","","745","","","75","20","","","1","20","training","adjacent","CD","3","4","L.jpg","P.jpg","0","1","0","",""
"","feedback","","html-keyboard-response","136","180466","0.0-1.0-186.0-0.0","0","0","43142","","null","","","null","20","","","","","","","","","","","","","","","",""
"","time_out","","html-keyboard-response","137","182474","0.0-1.0-188.0-0.0","0","0","43142","","null","","","null","20","","","","","","","","","","","","","","","",""
"","ITI","","html-keyboard-response","138","183485","0.0-1.0-189.0","0","0","43142","","null","","","null","20","","","","","","","","","","","","","","","NaN",""
"","S1","","html-keyboard-response","139","183641","0.0-1.0-191.0","0","0","43142","","null","","","null","21","","","","","","","","","","","","","","","",""
"","ISI","","html-keyboard-response","140","185650","0.0-1.0-192.0","0","0","43142","","null","","","null","21","NaN","","","","","","","","","","","","","","",""
"","S2","","html-keyboard-response","141","185813","0.0-1.0-193.0","0","0","43142","","null","","","null","21","","NaN","","","","","","","","","","","","","",""
"","response","","html-keyboard-response","142","186482","0.0-1.0-194.0-0.0","0","0","43142","","668","","","75","21","","","1","21","training","adjacent","GF","7","6","Q.jpg","M.jpg","0","0","1","",""
"","feedback","","html-keyboard-response","143","187490","0.0-1.0-195.0-0.0","0","0","43142","","null","","","null","21","","","","","","","","","","","","","","","",""
"","ITI","","html-keyboard-response","144","188500","0.0-1.0-198.0","0","0","43142","","null","","","null","21","","","","","","","","","","","","","","","NaN",""
"","S1","","html-keyboard-response","145","188656","0.0-1.0-200.0","0","0","43142","","null","","","null","22","","","","","","","","","","","","","","","",""
"","ISI","","html-keyboard-response","146","190665","0.0-1.0-201.0","0","0","43142","","null","","","null","22","NaN","","","","","","","","","","","","","","",""
"","S2","","html-keyboard-response","147","190828","0.0-1.0-202.0","0","0","43142","","null","","","null","22","","NaN","","","","","","","","","","","","","",""
"","response","","html-keyboard-response","148","191485","0.0-1.0-203.0-0.0","0","0","43142","","656","","","68","22","","","1","22","training","adjacent","FG","6","7","M.jpg","Q.jpg","1","1","1","",""
"","feedback","","html-keyboard-response","149","192500","0.0-1.0-204.0-0.0","0","0","43142","","null","","","null","22","","","","","","","","","","","","","","","",""
"","ITI","","html-keyboard-response","150","193504","0.0-1.0-207.0","0","0","43142","","null","","","null","22","","","","","","","","","","","","","","","NaN",""
"","S1","","html-keyboard-response","151","193667","0.0-1.0-209.0","0","0","43142","","null","","","null","23","","","","","","","","","","","","","","","",""
"","ISI","","html-keyboard-response","152","195676","0.0-1.0-210.0","0","0","43142","","null","","","null","23","NaN","","","","","","","","","","","","","","",""
"","S2","","html-keyboard-response","153","195832","0.0-1.0-211.0","0","0","43142","","null","","","null","23","","NaN","","","","","","","","","","","","","",""
"","response","","html-keyboard-response","154","196354","0.0-1.0-212.0-0.0","0","0","43142","","519","","","75","23","","","1","23","training","adjacent","EF","5","6","R.jpg","M.jpg","0","1","0","",""
"","feedback","","html-keyboard-response","155","197365","0.0-1.0-213.0-0.0","0","0","43142","","null","","","null","23","","","","","","","","","","","","","","","",""
"","time_out","","html-keyboard-response","156","199372","0.0-1.0-215.0-0.0","0","0","43142","","null","","","null","23","","","","","","","","","","","","","","","",""
"","ITI","","html-keyboard-response","157","200378","0.0-1.0-216.0","0","0","43142","","null","","","null","23","","","","","","","","","","","","","","","NaN",""
"","S1","","html-keyboard-response","158","200540","0.0-1.0-218.0","0","0","43142","","null","","","null","24","","","","","","","","","","","","","","","",""
"","ISI","","html-keyboard-response","159","202547","0.0-1.0-219.0","0","0","43142","","null","","","null","24","NaN","","","","","","","","","","","","","","",""
"","S2","","html-keyboard-response","160","202706","0.0-1.0-220.0","0","0","43142","","null","","","null","24","","NaN","","","","","","","","","","","","","",""
"","response","","html-keyboard-response","161","203272","0.0-1.0-221.0-0.0","0","0","43142","","564","","","75","24","","","1","24","training","adjacent","BC","2","3","N.jpg","L.jpg","0","1","0","",""
"","feedback","","html-keyboard-response","162","204284","0.0-1.0-222.0-0.0","0","0","43142","","null","","","null","24","","","","","","","","","","","","","","","",""
"","time_out","","html-keyboard-response","163","206294","0.0-1.0-224.0-0.0","0","0","43142","","null","","","null","24","","","","","","","","","","","","","","","",""
"","ITI","","html-keyboard-response","164","207308","0.0-1.0-225.0","0","0","43142","","null","","","null","24","","","","","","","","","","","","","","","NaN",""
"","S1","","html-keyboard-response","165","207465","0.0-1.0-227.0","0","0","43142","","null","","","null","25","","","","","","","","","","","","","","","",""
"","ISI","","html-keyboard-response","166","209473","0.0-1.0-228.0","0","0","43142","","null","","","null","25","NaN","","","","","","","","","","","","","","",""
"","S2","","html-keyboard-response","167","209637","0.0-1.0-229.0","0","0","43142","","null","","","null","25","","NaN","","","","","","","","","","","","","",""
"","response","","html-keyboard-response","168","210359","0.0-1.0-230.0-0.0","0","0","43142","","721","","","68","25","","","1","25","training","adjacent","BA","2","1","N.jpg","O.jpg","1","0","0","",""
"","feedback","","html-keyboard-response","169","211372","0.0-1.0-231.0-0.0","0","0","43142","","null","","","null","25","","","","","","","","","","","","","","","",""
"","time_out","","html-keyboard-response","170","213381","0.0-1.0-233.0-0.0","0","0","43142","","null","","","null","25","","","","","","","","","","","","","","","",""
"","ITI","","html-keyboard-response","171","214396","0.0-1.0-234.0","0","0","43142","","null","","","null","25","","","","","","","","","","","","","","","NaN",""
"","S1","","html-keyboard-response","172","214553","0.0-1.0-236.0","0","0","43142","","null","","","null","26","","","","","","","","","","","","","","","",""
"","ISI","","html-keyboard-response","173","216562","0.0-1.0-237.0","0","0","43142","","null","","","null","26","NaN","","","","","","","","","","","","","","",""
"","S2","","html-keyboard-response","174","216723","0.0-1.0-238.0","0","0","43142","","null","","","null","26","","NaN","","","","","","","","","","","","","",""
"","response","","html-keyboard-response","175","217685","0.0-1.0-239.0-0.0","0","0","43142","","959","","","68","26","","","1","26","training","adjacent","AB","1","2","O.jpg","N.jpg","1","1","1","",""
"","feedback","","html-keyboard-response","176","218692","0.0-1.0-240.0-0.0","0","0","43142","","null","","","null","26","","","","","","","","","","","","","","","",""
"","ITI","","html-keyboard-response","177","219700","0.0-1.0-243.0","0","0","43142","","null","","","null","26","","","","","","","","","","","","","","","NaN",""
"","S1","","html-keyboard-response","178","219858","0.0-1.0-245.0","0","0","43142","","null","","","null","27","","","","","","","","","","","","","","","",""
"","ISI","","html-keyboard-response","179","221868","0.0-1.0-246.0","0","0","43142","","null","","","null","27","NaN","","","","","","","","","","","","","","",""
"","S2","","html-keyboard-response","180","222029","0.0-1.0-247.0","0","0","43142","","null","","","null","27","","NaN","","","","","","","","","","","","","",""
"","response","","html-keyboard-response","181","222712","0.0-1.0-248.0-0.0","0","0","43142","","681","","","75","27","","","1","27","training","adjacent","ED","5","4","R.jpg","P.jpg","0","0","1","",""
"","feedback","","html-keyboard-response","182","223722","0.0-1.0-249.0-0.0","0","0","43142","","null","","","null","27","","","","","","","","","","","","","","","",""
"","ITI","","html-keyboard-response","183","224730","0.0-1.0-252.0","0","0","43142","","null","","","null","27","","","","","","","","","","","","","","","NaN",""
"","S1","","html-keyboard-response","184","224892","0.0-1.0-254.0","0","0","43142","","null","","","null","28","","","","","","","","","","","","","","","",""
"","ISI","","html-keyboard-response","185","226900","0.0-1.0-255.0","0","0","43142","","null","","","null","28","NaN","","","","","","","","","","","","","","",""
"","S2","","html-keyboard-response","186","227057","0.0-1.0-256.0","0","0","43142","","null","","","null","28","","NaN","","","","","","","","","","","","","",""
"","response","","html-keyboard-response","187","227982","0.0-1.0-257.0-0.0","0","0","43142","","924","","","68","28","","","1","28","training","adjacent","CD","3","4","L.jpg","P.jpg","1","1","1","",""
"","feedback","","html-keyboard-response","188","228996","0.0-1.0-258.0-0.0","0","0","43142","","null","","","null","28","","","","","","","","","","","","","","","",""
"","ITI","","html-keyboard-response","189","230001","0.0-1.0-261.0","0","0","43142","","null","","","null","28","","","","","","","","","","","","","","","NaN",""
"","S1","","html-keyboard-response","190","230162","0.0-1.0-263.0","0","0","43142","","null","","","null","29","","","","","","","","","","","","","","","",""
"","ISI","","html-keyboard-response","191","232172","0.0-1.0-264.0","0","0","43142","","null","","","null","29","NaN","","","","","","","","","","","","","","",""
"","S2","","html-keyboard-response","192","232329","0.0-1.0-265.0","0","0","43142","","null","","","null","29","","NaN","","","","","","","","","","","","","",""
"","response","","html-keyboard-response","193","233117","0.0-1.0-266.0-0.0","0","0","43142","","787","","","75","29","","","1","29","training","adjacent","BC","2","3","N.jpg","L.jpg","0","1","0","",""
"","feedback","","html-keyboard-response","194","234133","0.0-1.0-267.0-0.0","0","0","43142","","null","","","null","29","","","","","","","","","","","","","","","",""
"","time_out","","html-keyboard-response","195","236136","0.0-1.0-269.0-0.0","0","0","43142","","null","","","null","29","","","","","","","","","","","","","","","",""
"","ITI","","html-keyboard-response","196","237147","0.0-1.0-270.0","0","0","43142","","null","","","null","29","","","","","","","","","","","","","","","NaN",""
"","S1","","html-keyboard-response","197","237309","0.0-1.0-272.0","0","0","43142","","null","","","null","30","","","","","","","","","","","","","","","",""
"","ISI","","html-keyboard-response","198","239317","0.0-1.0-273.0","0","0","43142","","null","","","null","30","NaN","","","","","","","","","","","","","","",""
"","S2","","html-keyboard-response","199","239475","0.0-1.0-274.0","0","0","43142","","null","","","null","30","","NaN","","","","","","","","","","","","","",""
"","response","","html-keyboard-response","200","240260","0.0-1.0-275.0-0.0","0","0","43142","","784","","","68","30","","","1","30","training","adjacent","BA","2","1","N.jpg","O.jpg","1","0","0","",""
"","feedback","","html-keyboard-response","201","241268","0.0-1.0-276.0-0.0","0","0","43142","","null","","","null","30","","","","","","","","","","","","","","","",""
"","time_out","","html-keyboard-response","202","243276","0.0-1.0-278.0-0.0","0","0","43142","","null","","","null","30","","","","","","","","","","","","","","","",""
"","ITI","","html-keyboard-response","203","244281","0.0-1.0-279.0","0","0","43142","","null","","","null","30","","","","","","","","","","","","","","","NaN",""
"","S1","","html-keyboard-response","204","244443","0.0-1.0-281.0","0","0","43142","","null","","","null","31","","","","","","","","","","","","","","","",""
"","ISI","","html-keyboard-response","205","246452","0.0-1.0-282.0","0","0","43142","","null","","","null","31","NaN","","","","","","","","","","","","","","",""
"","S2","","html-keyboard-response","206","246609","0.0-1.0-283.0","0","0","43142","","null","","","null","31","","NaN","","","","","","","","","","","","","",""
"","response","","html-keyboard-response","207","247575","0.0-1.0-284.0-0.0","0","0","43142","","964","","","68","31","","","1","31","training","adjacent","AB","1","2","O.jpg","N.jpg","1","1","1","",""
"","feedback","","html-keyboard-response","208","248588","0.0-1.0-285.0-0.0","0","0","43142","","null","","","null","31","","","","","","","","","","","","","","","",""
"","ITI","","html-keyboard-response","209","249592","0.0-1.0-288.0","0","0","43142","","null","","","null","31","","","","","","","","","","","","","","","NaN",""
"","S1","","html-keyboard-response","210","249755","0.0-1.0-290.0","0","0","43142","","null","","","null","32","","","","","","","","","","","","","","","",""
"","ISI","","html-keyboard-response","211","251764","0.0-1.0-291.0","0","0","43142","","null","","","null","32","NaN","","","","","","","","","","","","","","",""
"","S2","","html-keyboard-response","212","251921","0.0-1.0-292.0","0","0","43142","","null","","","null","32","","NaN","","","","","","","","","","","","","",""
"","response","","html-keyboard-response","213","252820","0.0-1.0-293.0-0.0","0","0","43142","","897","","","75","32","","","1","32","training","adjacent","BA","2","1","N.jpg","O.jpg","0","0","1","",""
"","feedback","","html-keyboard-response","214","253830","0.0-1.0-294.0-0.0","0","0","43142","","null","","","null","32","","","","","","","","","","","","","","","",""
"","ITI","","html-keyboard-response","215","254844","0.0-1.0-297.0","0","0","43142","","null","","","null","32","","","","","","","","","","","","","","","NaN",""
"","S1","","html-keyboard-response","216","255002","0.0-1.0-299.0","0","0","43142","","null","","","null","33","","","","","","","","","","","","","","","",""
"","ISI","","html-keyboard-response","217","257012","0.0-1.0-300.0","0","0","43142","","null","","","null","33","NaN","","","","","","","","","","","","","","",""
"","S2","","html-keyboard-response","218","257172","0.0-1.0-301.0","0","0","43142","","null","","","null","33","","NaN","","","","","","","","","","","","","",""
"","response","","html-keyboard-response","219","258105","0.0-1.0-302.0-0.0","0","0","43142","","930","","","75","33","","","1","33","training","adjacent","EF","5","6","R.jpg","M.jpg","0","1","0","",""
"","feedback","","html-keyboard-response","220","259113","0.0-1.0-303.0-0.0","0","0","43142","","null","","","null","33","","","","","","","","","","","","","","","",""
"","time_out","","html-keyboard-response","221","261122","0.0-1.0-305.0-0.0","0","0","43142","","null","","","null","33","","","","","","","","","","","","","","","",""
"","ITI","","html-keyboard-response","222","262130","0.0-1.0-306.0","0","0","43142","","null","","","null","33","","","","","","","","","","","","","","","NaN",""
"","S1","","html-keyboard-response","223","262289","0.0-1.0-308.0","0","0","43142","","null","","","null","34","","","","","","","","","","","","","","","",""
"","ISI","","html-keyboard-response","224","264297","0.0-1.0-309.0","0","0","43142","","null","","","null","34","NaN","","","","","","","","","","","","","","",""
"","S2","","html-keyboard-response","225","264458","0.0-1.0-310.0","0","0","43142","","null","","","null","34","","NaN","","","","","","","","","","","","","",""
"","response","","html-keyboard-response","226","265845","0.0-1.0-311.0-0.0","0","0","43142","","1385","","","75","34","","","1","34","training","adjacent","DE","4","5","P.jpg","R.jpg","0","1","0","",""
"","feedback","","html-keyboard-response","227","266850","0.0-1.0-312.0-0.0","0","0","43142","","null","","","null","34","","","","","","","","","","","","","","","",""
"","time_out","","html-keyboard-response","228","268859","0.0-1.0-314.0-0.0","0","0","43142","","null","","","null","34","","","","","","","","","","","","","","","",""
"","ITI","","html-keyboard-response","229","269869","0.0-1.0-315.0","0","0","43142","","null","","","null","34","","","","","","","","","","","","","","","NaN",""
"","S1","","html-keyboard-response","230","270026","0.0-1.0-317.0","0","0","43142","","null","","","null","35","","","","","","","","","","","","","","","",""
"","ISI","","html-keyboard-response","231","272035","0.0-1.0-318.0","0","0","43142","","null","","","null","35","NaN","","","","","","","","","","","","","","",""
"","S2","","html-keyboard-response","232","272198","0.0-1.0-319.0","0","0","43142","","null","","","null","35","","NaN","","","","","","","","","","","","","",""
"","response","","html-keyboard-response","233","273009","0.0-1.0-320.0-0.0","0","0","43142","","810","","","68","35","","","1","35","training","adjacent","FG","6","7","M.jpg","Q.jpg","1","1","1","",""
"","feedback","","html-keyboard-response","234","274020","0.0-1.0-321.0-0.0","0","0","43142","","null","","","null","35","","","","","","","","","","","","","","","",""
"","ITI","","html-keyboard-response","235","275024","0.0-1.0-324.0","0","0","43142","","null","","","null","35","","","","","","","","","","","","","","","NaN",""
"","S1","","html-keyboard-response","236","275187","0.0-1.0-326.0","0","0","43142","","null","","","null","36","","","","","","","","","","","","","","","",""
"","ISI","","html-keyboard-response","237","277196","0.0-1.0-327.0","0","0","43142","","null","","","null","36","NaN","","","","","","","","","","","","","","",""
"","S2","","html-keyboard-response","238","277354","0.0-1.0-328.0","0","0","43142","","null","","","null","36","","NaN","","","","","","","","","","","","","",""
"","response","","html-keyboard-response","239","278512","0.0-1.0-329.0-0.0","0","0","43142","","1156","","","68","36","","","1","36","training","adjacent","ED","5","4","R.jpg","P.jpg","1","0","0","",""
"","feedback","","html-keyboard-response","240","279523","0.0-1.0-330.0-0.0","0","0","43142","","null","","","null","36","","","","","","","","","","","","","","","",""
"","time_out","","html-keyboard-response","241","281533","0.0-1.0-332.0-0.0","0","0","43142","","null","","","null","36","","","","","","","","","","","","","","","",""
"","ITI","","html-keyboard-response","242","282536","0.0-1.0-333.0","0","0","43142","","null","","","null","36","","","","","","","","","","","","","","","NaN",""
"","S1","","html-keyboard-response","243","282693","0.0-1.0-335.0","0","0","43142","","null","","","null","37","","","","","","","","","","","","","","","",""
"","ISI","","html-keyboard-response","244","284701","0.0-1.0-336.0","0","0","43142","","null","","","null","37","NaN","","","","","","","","","","","","","","",""
"","S2","","html-keyboard-response","245","284858","0.0-1.0-337.0","0","0","43142","","null","","","null","37","","NaN","","","","","","","","","","","","","",""
"","response","","html-keyboard-response","246","285676","0.0-1.0-338.0-0.0","0","0","43142","","816","","","68","37","","","1","37","training","adjacent","FE","6","5","M.jpg","R.jpg","1","0","0","",""
"","feedback","","html-keyboard-response","247","286694","0.0-1.0-339.0-0.0","0","0","43142","","null","","","null","37","","","","","","","","","","","","","","","",""
"","time_out","","html-keyboard-response","248","288701","0.0-1.0-341.0-0.0","0","0","43142","","null","","","null","37","","","","","","","","","","","","","","","",""
"","ITI","","html-keyboard-response","249","289706","0.0-1.0-342.0","0","0","43142","","null","","","null","37","","","","","","","","","","","","","","","NaN",""
"","S1","","html-keyboard-response","250","289868","0.0-1.0-344.0","0","0","43142","","null","","","null","38","","","","","","","","","","","","","","","",""
"","ISI","","html-keyboard-response","251","291876","0.0-1.0-345.0","0","0","43142","","null","","","null","38","NaN","","","","","","","","","","","","","","",""
"","S2","","html-keyboard-response","252","292035","0.0-1.0-346.0","0","0","43142","","null","","","null","38","","NaN","","","","","","","","","","","","","",""
"","response","","html-keyboard-response","253","292843","0.0-1.0-347.0-0.0","0","0","43142","","806","","","68","38","","","1","38","training","adjacent","AB","1","2","O.jpg","N.jpg","1","1","1","",""
"","feedback","","html-keyboard-response","254","293849","0.0-1.0-348.0-0.0","0","0","43142","","null","","","null","38","","","","","","","","","","","","","","","",""
"","ITI","","html-keyboard-response","255","294860","0.0-1.0-351.0","0","0","43142","","null","","","null","38","","","","","","","","","","","","","","","NaN",""
"","S1","","html-keyboard-response","256","295017","0.0-1.0-353.0","0","0","43142","","null","","","null","39","","","","","","","","","","","","","","","",""
"","ISI","","html-keyboard-response","257","297025","0.0-1.0-354.0","0","0","43142","","null","","","null","39","NaN","","","","","","","","","","","","","","",""
"","S2","","html-keyboard-response","258","297188","0.0-1.0-355.0","0","0","43142","","null","","","null","39","","NaN","","","","","","","","","","","","","",""
"","response","","html-keyboard-response","259","297873","0.0-1.0-356.0-0.0","0","0","43142","","683","","","68","39","","","1","39","training","adjacent","FG","6","7","M.jpg","Q.jpg","1","1","1","",""
"","feedback","","html-keyboard-response","260","298883","0.0-1.0-357.0-0.0","0","0","43142","","null","","","null","39","","","","","","","","","","","","","","","",""
"","ITI","","html-keyboard-response","261","299893","0.0-1.0-360.0","0","0","43142","","null","","","null","39","","","","","","","","","","","","","","","NaN",""
"","S1","","html-keyboard-response","262","300050","0.0-1.0-362.0","0","0","43142","","null","","","null","40","","","","","","","","","","","","","","","",""
"","ISI","","html-keyboard-response","263","302058","0.0-1.0-363.0","0","0","43142","","null","","","null","40","NaN","","","","","","","","","","","","","","",""
"","S2","","html-keyboard-response","264","302220","0.0-1.0-364.0","0","0","43142","","null","","","null","40","","NaN","","","","","","","","","","","","","",""
"","response","","html-keyboard-response","265","303100","0.0-1.0-365.0-0.0","0","0","43142","","878","","","68","40","","","1","40","training","adjacent","DC","4","3","P.jpg","L.jpg","1","0","0","",""
"","feedback","","html-keyboard-response","266","304108","0.0-1.0-366.0-0.0","0","0","43142","","null","","","null","40","","","","","","","","","","","","","","","",""
"","time_out","","html-keyboard-response","267","306115","0.0-1.0-368.0-0.0","0","0","43142","","null","","","null","40","","","","","","","","","","","","","","","",""
"","ITI","","html-keyboard-response","268","307124","0.0-1.0-369.0","0","0","43142","","null","","","null","40","","","","","","","","","","","","","","","NaN",""
"","S1","","html-keyboard-response","269","307282","0.0-1.0-371.0","0","0","43142","","null","","","null","41","","","","","","","","","","","","","","","",""
"","ISI","","html-keyboard-response","270","309292","0.0-1.0-372.0","0","0","43142","","null","","","null","41","NaN","","","","","","","","","","","","","","",""
"","S2","","html-keyboard-response","271","309449","0.0-1.0-373.0","0","0","43142","","null","","","null","41","","NaN","","","","","","","","","","","","","",""
"","response","","html-keyboard-response","272","310128","0.0-1.0-374.0-0.0","0","0","43142","","677","","","75","41","","","1","41","training","adjacent","DC","4","3","P.jpg","L.jpg","0","0","1","",""
"","feedback","","html-keyboard-response","273","311137","0.0-1.0-375.0-0.0","0","0","43142","","null","","","null","41","","","","","","","","","","","","","","","",""
"","ITI","","html-keyboard-response","274","312146","0.0-1.0-378.0","0","0","43142","","null","","","null","41","","","","","","","","","","","","","","","NaN",""
"","S1","","html-keyboard-response","275","312304","0.0-1.0-380.0","0","0","43142","","null","","","null","42","","","","","","","","","","","","","","","",""
"","ISI","","html-keyboard-response","276","314312","0.0-1.0-381.0","0","0","43142","","null","","","null","42","NaN","","","","","","","","","","","","","","",""
"","S2","","html-keyboard-response","277","314468","0.0-1.0-382.0","0","0","43142","","null","","","null","42","","NaN","","","","","","","","","","","","","",""
"","response","","html-keyboard-response","278","315259","0.0-1.0-383.0-0.0","0","0","43142","","790","","","75","42","","","1","42","training","adjacent","GF","7","6","Q.jpg","M.jpg","0","0","1","",""
"","feedback","","html-keyboard-response","279","316267","0.0-1.0-384.0-0.0","0","0","43142","","null","","","null","42","","","","","","","","","","","","","","","",""
"","ITI","","html-keyboard-response","280","317272","0.0-1.0-387.0","0","0","43142","","null","","","null","42","","","","","","","","","","","","","","","NaN",""
"","S1","","html-keyboard-response","281","317425","0.0-1.0-389.0","0","0","43142","","null","","","null","43","","","","","","","","","","","","","","","",""
"","ISI","","html-keyboard-response","282","319436","0.0-1.0-390.0","0","0","43142","","null","","","null","43","NaN","","","","","","","","","","","","","","",""
"","S2","","html-keyboard-response","283","319593","0.0-1.0-391.0","0","0","43142","","null","","","null","43","","NaN","","","","","","","","","","","","","",""
"","response","","html-keyboard-response","284","320196","0.0-1.0-392.0-0.0","0","0","43142","","601","","","68","43","","","1","43","training","adjacent","CB","3","2","L.jpg","N.jpg","1","0","0","",""
"","feedback","","html-keyboard-response","285","321202","0.0-1.0-393.0-0.0","0","0","43142","","null","","","null","43","","","","","","","","","","","","","","","",""
"","time_out","","html-keyboard-response","286","323211","0.0-1.0-395.0-0.0","0","0","43142","","null","","","null","43","","","","","","","","","","","","","","","",""
"","ITI","","html-keyboard-response","287","324222","0.0-1.0-396.0","0","0","43142","","null","","","null","43","","","","","","","","","","","","","","","NaN",""
"","S1","","html-keyboard-response","288","324379","0.0-1.0-398.0","0","0","43142","","null","","","null","44","","","","","","","","","","","","","","","",""
"","ISI","","html-keyboard-response","289","326386","0.0-1.0-399.0","0","0","43142","","null","","","null","44","NaN","","","","","","","","","","","","","","",""
"","S2","","html-keyboard-response","290","326550","0.0-1.0-400.0","0","0","43142","","null","","","null","44","","NaN","","","","","","","","","","","","","",""
"","response","","html-keyboard-response","291","327055","0.0-1.0-401.0-0.0","0","0","43142","","503","","","75","44","","","1","44","training","adjacent","CD","3","4","L.jpg","P.jpg","0","1","0","",""
"","feedback","","html-keyboard-response","292","328065","0.0-1.0-402.0-0.0","0","0","43142","","null","","","null","44","","","","","","","","","","","","","","","",""
"","time_out","","html-keyboard-response","293","330074","0.0-1.0-404.0-0.0","0","0","43142","","null","","","null","44","","","","","","","","","","","","","","","",""
"","ITI","","html-keyboard-response","294","331084","0.0-1.0-405.0","0","0","43142","","null","","","null","44","","","","","","","","","","","","","","","NaN",""
"","S1","","html-keyboard-response","295","331241","0.0-1.0-407.0","0","0","43142","","null","","","null","45","","","","","","","","","","","","","","","",""
"","ISI","","html-keyboard-response","296","333249","0.0-1.0-408.0","0","0","43142","","null","","","null","45","NaN","","","","","","","","","","","","","","",""
"","S2","","html-keyboard-response","297","333412","0.0-1.0-409.0","0","0","43142","","null","","","null","45","","NaN","","","","","","","","","","","","","",""
"","response","","html-keyboard-response","298","333856","0.0-1.0-410.0-0.0","0","0","43142","","440","","","68","45","","","1","45","training","adjacent","CB","3","2","L.jpg","N.jpg","1","0","0","",""
"","feedback","","html-keyboard-response","299","334869","0.0-1.0-411.0-0.0","0","0","43142","","null","","","null","45","","","","","","","","","","","","","","","",""
"","time_out","","html-keyboard-response","300","336878","0.0-1.0-413.0-0.0","0","0","43142","","null","","","null","45","","","","","","","","","","","","","","","",""
"","ITI","","html-keyboard-response","301","337885","0.0-1.0-414.0","0","0","43142","","null","","","null","45","","","","","","","","","","","","","","","NaN",""
"","S1","","html-keyboard-response","302","338044","0.0-1.0-416.0","0","0","43142","","null","","","null","46","","","","","","","","","","","","","","","",""
"","ISI","","html-keyboard-response","303","340052","0.0-1.0-417.0","0","0","43142","","null","","","null","46","NaN","","","","","","","","","","","","","","",""
"","S2","","html-keyboard-response","304","340209","0.0-1.0-418.0","0","0","43142","","null","","","null","46","","NaN","","","","","","","","","","","","","",""
"","response","","html-keyboard-response","305","340705","0.0-1.0-419.0-0.0","0","0","43142","","493","","","75","46","","","1","46","training","adjacent","DE","4","5","P.jpg","R.jpg","0","1","0","",""
"","feedback","","html-keyboard-response","306","341718","0.0-1.0-420.0-0.0","0","0","43142","","null","","","null","46","","","","","","","","","","","","","","","",""
"","time_out","","html-keyboard-response","307","343732","0.0-1.0-422.0-0.0","0","0","43142","","null","","","null","46","","","","","","","","","","","","","","","",""
"","ITI","","html-keyboard-response","308","344738","0.0-1.0-423.0","0","0","43142","","null","","","null","46","","","","","","","","","","","","","","","NaN",""
"","S1","","html-keyboard-response","309","344899","0.0-1.0-425.0","0","0","43142","","null","","","null","47","","","","","","","","","","","","","","","",""
"","ISI","","html-keyboard-response","310","346908","0.0-1.0-426.0","0","0","43142","","null","","","null","47","NaN","","","","","","","","","","","","","","",""
"","S2","","html-keyboard-response","311","347065","0.0-1.0-427.0","0","0","43142","","null","","","null","47","","NaN","","","","","","","","","","","","","",""
"","response","","html-keyboard-response","312","348000","0.0-1.0-428.0-0.0","0","0","43142","","932","","","68","47","","","1","47","training","adjacent","FE","6","5","M.jpg","R.jpg","1","0","0","",""
"","feedback","","html-keyboard-response","313","349009","0.0-1.0-429.0-0.0","0","0","43142","","null","","","null","47","","","","","","","","","","","","","","","",""
"","time_out","","html-keyboard-response","314","351018","0.0-1.0-431.0-0.0","0","0","43142","","null","","","null","47","","","","","","","","","","","","","","","",""
"","ITI","","html-keyboard-response","315","352029","0.0-1.0-432.0","0","0","43142","","null","","","null","47","","","","","","","","","","","","","","","NaN",""
"","block_over","","html-keyboard-response","316","358561","0.0-1.0-433.0-0.0","0","0","43142","","6530","","","32","47","","","","","","","","","","","","","","","",""
"","S1","","html-keyboard-response","317","358721","0.0-1.0-434.0","0","0","43142","","null","","","null","48","","","","","","","","","","","","","","","",""
"","ISI","","html-keyboard-response","318","360731","0.0-1.0-435.0","0","0","43142","","null","","","null","48","NaN","","","","","","","","","","","","","","",""
"","S2","","html-keyboard-response","319","360892","0.0-1.0-436.0","0","0","43142","","null","","","null","48","","NaN","","","","","","","","","","","","","",""
"","response","","html-keyboard-response","320","361577","0.0-1.0-437.0-0.0","0","0","43142","","683","","","75","48","","","2","48","training","adjacent","DE","4","5","P.jpg","R.jpg","0","1","0","",""
"","feedback","","html-keyboard-response","321","362587","0.0-1.0-438.0-0.0","0","0","43142","","null","","","null","48","","","","","","","","","","","","","","","",""
"","time_out","","html-keyboard-response","322","364596","0.0-1.0-440.0-0.0","0","0","43142","","null","","","null","48","","","","","","","","","","","","","","","",""
"","ITI","","html-keyboard-response","323","365606","0.0-1.0-441.0","0","0","43142","","null","","","null","48","","","","","","","","","","","","","","","NaN",""
"","S1","","html-keyboard-response","324","365763","0.0-1.0-443.0","0","0","43142","","null","","","null","49","","","","","","","","","","","","","","","",""
"","ISI","","html-keyboard-response","325","367771","0.0-1.0-444.0","0","0","43142","","null","","","null","49","NaN","","","","","","","","","","","","","","",""
"","S2","","html-keyboard-response","326","367933","0.0-1.0-445.0","0","0","43142","","null","","","null","49","","NaN","","","","","","","","","","","","","",""
"","response","","html-keyboard-response","327","368820","0.0-1.0-446.0-0.0","0","0","43142","","885","","","68","49","","","2","49","training","adjacent","BA","2","1","N.jpg","O.jpg","1","0","0","",""
"","feedback","","html-keyboard-response","328","369827","0.0-1.0-447.0-0.0","0","0","43142","","null","","","null","49","","","","","","","","","","","","","","","",""
"","time_out","","html-keyboard-response","329","371834","0.0-1.0-449.0-0.0","0","0","43142","","null","","","null","49","","","","","","","","","","","","","","","",""
"","ITI","","html-keyboard-response","330","372845","0.0-1.0-450.0","0","0","43142","","null","","","null","49","","","","","","","","","","","","","","","NaN",""
"","S1","","html-keyboard-response","331","373006","0.0-1.0-452.0","0","0","43142","","null","","","null","50","","","","","","","","","","","","","","","",""
"","ISI","","html-keyboard-response","332","375010","0.0-1.0-453.0","0","0","43142","","null","","","null","50","NaN","","","","","","","","","","","","","","",""
"","S2","","html-keyboard-response","333","375173","0.0-1.0-454.0","0","0","43142","","null","","","null","50","","NaN","","","","","","","","","","","","","",""
"","response","","html-keyboard-response","334","375841","0.0-1.0-455.0-0.0","0","0","43142","","665","","","68","50","","","2","50","training","adjacent","AB","1","2","O.jpg","N.jpg","1","1","1","",""
"","feedback","","html-keyboard-response","335","376851","0.0-1.0-456.0-0.0","0","0","43142","","null","","","null","50","","","","","","","","","","","","","","","",""
"","ITI","","html-keyboard-response","336","377860","0.0-1.0-459.0","0","0","43142","","null","","","null","50","","","","","","","","","","","","","","","NaN",""
"","S1","","html-keyboard-response","337","378018","0.0-1.0-461.0","0","0","43142","","null","","","null","51","","","","","","","","","","","","","","","",""
"","ISI","","html-keyboard-response","338","380026","0.0-1.0-462.0","0","0","43142","","null","","","null","51","NaN","","","","","","","","","","","","","","",""
"","S2","","html-keyboard-response","339","380188","0.0-1.0-463.0","0","0","43142","","null","","","null","51","","NaN","","","","","","","","","","","","","",""
"","response","","html-keyboard-response","340","381213","0.0-1.0-464.0-0.0","0","0","43142","","1022","","","75","51","","","2","51","training","adjacent","CB","3","2","L.jpg","N.jpg","0","0","1","",""
"","feedback","","html-keyboard-response","341","382220","0.0-1.0-465.0-0.0","0","0","43142","","null","","","null","51","","","","","","","","","","","","","","","",""
"","ITI","","html-keyboard-response","342","383229","0.0-1.0-468.0","0","0","43142","","null","","","null","51","","","","","","","","","","","","","","","NaN",""
"","S1","","html-keyboard-response","343","383387","0.0-1.0-470.0","0","0","43142","","null","","","null","52","","","","","","","","","","","","","","","",""
"","ISI","","html-keyboard-response","344","385394","0.0-1.0-471.0","0","0","43142","","null","","","null","52","NaN","","","","","","","","","","","","","","",""
"","S2","","html-keyboard-response","345","385558","0.0-1.0-472.0","0","0","43142","","null","","","null","52","","NaN","","","","","","","","","","","","","",""
"","response","","html-keyboard-response","346","386330","0.0-1.0-473.0-0.0","0","0","43142","","770","","","68","52","","","2","52","training","adjacent","BA","2","1","N.jpg","O.jpg","1","0","0","",""
"","feedback","","html-keyboard-response","347","387340","0.0-1.0-474.0-0.0","0","0","43142","","null","","","null","52","","","","","","","","","","","","","","","",""
"","time_out","","html-keyboard-response","348","389348","0.0-1.0-476.0-0.0","0","0","43142","","null","","","null","52","","","","","","","","","","","","","","","",""
"","ITI","","html-keyboard-response","349","390355","0.0-1.0-477.0","0","0","43142","","null","","","null","52","","","","","","","","","","","","","","","NaN",""
"","S1","","html-keyboard-response","350","390516","0.0-1.0-479.0","0","0","43142","","null","","","null","53","","","","","","","","","","","","","","","",""
"","ISI","","html-keyboard-response","351","392524","0.0-1.0-480.0","0","0","43142","","null","","","null","53","NaN","","","","","","","","","","","","","","",""
"","S2","","html-keyboard-response","352","392686","0.0-1.0-481.0","0","0","43142","","null","","","null","53","","NaN","","","","","","","","","","","","","",""
"","response","","html-keyboard-response","353","393488","0.0-1.0-482.0-0.0","0","0","43142","","801","","","68","53","","","2","53","training","adjacent","ED","5","4","R.jpg","P.jpg","1","0","0","",""
"","feedback","","html-keyboard-response","354","394498","0.0-1.0-483.0-0.0","0","0","43142","","null","","","null","53","","","","","","","","","","","","","","","",""
"","time_out","","html-keyboard-response","355","396506","0.0-1.0-485.0-0.0","0","0","43142","","null","","","null","53","","","","","","","","","","","","","","","",""
"","ITI","","html-keyboard-response","356","397516","0.0-1.0-486.0","0","0","43142","","null","","","null","53","","","","","","","","","","","","","","","NaN",""
"","S1","","html-keyboard-response","357","397673","0.0-1.0-488.0","0","0","43142","","null","","","null","54","","","","","","","","","","","","","","","",""
"","ISI","","html-keyboard-response","358","399681","0.0-1.0-489.0","0","0","43142","","null","","","null","54","NaN","","","","","","","","","","","","","","",""
"","S2","","html-keyboard-response","359","399844","0.0-1.0-490.0","0","0","43142","","null","","","null","54","","NaN","","","","","","","","","","","","","",""
"","response","","html-keyboard-response","360","400617","0.0-1.0-491.0-0.0","0","0","43142","","771","","","68","54","","","2","54","training","adjacent","FG","6","7","M.jpg","Q.jpg","1","1","1","",""
"","feedback","","html-keyboard-response","361","401626","0.0-1.0-492.0-0.0","0","0","43142","","null","","","null","54","","","","","","","","","","","","","","","",""
"","ITI","","html-keyboard-response","362","402636","0.0-1.0-495.0","0","0","43142","","null","","","null","54","","","","","","","","","","","","","","","NaN",""
"","S1","","html-keyboard-response","363","402797","0.0-1.0-497.0","0","0","43142","","null","","","null","55","","","","","","","","","","","","","","","",""
"","ISI","","html-keyboard-response","364","404801","0.0-1.0-498.0","0","0","43142","","null","","","null","55","NaN","","","","","","","","","","","","","","",""
"","S2","","html-keyboard-response","365","404965","0.0-1.0-499.0","0","0","43142","","null","","","null","55","","NaN","","","","","","","","","","","","","",""
"","response","","html-keyboard-response","366","406104","0.0-1.0-500.0-0.0","0","0","43142","","1138","","","68","55","","","2","55","training","adjacent","FE","6","5","M.jpg","R.jpg","1","0","0","",""
"","feedback","","html-keyboard-response","367","407117","0.0-1.0-501.0-0.0","0","0","43142","","null","","","null","55","","","","","","","","","","","","","","","",""
"","time_out","","html-keyboard-response","368","409127","0.0-1.0-503.0-0.0","0","0","43142","","null","","","null","55","","","","","","","","","","","","","","","",""
"","ITI","","html-keyboard-response","369","410131","0.0-1.0-504.0","0","0","43142","","null","","","null","55","","","","","","","","","","","","","","","NaN",""
"","S1","","html-keyboard-response","370","410294","0.0-1.0-506.0","0","0","43142","","null","","","null","56","","","","","","","","","","","","","","","",""
"","ISI","","html-keyboard-response","371","412301","0.0-1.0-507.0","0","0","43142","","null","","","null","56","NaN","","","","","","","","","","","","","","",""
"","S2","","html-keyboard-response","372","412459","0.0-1.0-508.0","0","0","43142","","null","","","null","56","","NaN","","","","","","","","","","","","","",""
"","response","","html-keyboard-response","373","413286","0.0-1.0-509.0-0.0","0","0","43142","","824","","","75","56","","","2","56","training","adjacent","BC","2","3","N.jpg","L.jpg","0","1","0","",""
"","feedback","","html-keyboard-response","374","414293","0.0-1.0-510.0-0.0","0","0","43142","","null","","","null","56","","","","","","","","","","","","","","","",""
"","time_out","","html-keyboard-response","375","416302","0.0-1.0-512.0-0.0","0","0","43142","","null","","","null","56","","","","","","","","","","","","","","","",""
"","ITI","","html-keyboard-response","376","417306","0.0-1.0-513.0","0","0","43142","","null","","","null","56","","","","","","","","","","","","","","","NaN",""
"","S1","","html-keyboard-response","377","417469","0.0-1.0-515.0","0","0","43142","","null","","","null","57","","","","","","","","","","","","","","","",""
"","ISI","","html-keyboard-response","378","419477","0.0-1.0-516.0","0","0","43142","","null","","","null","57","NaN","","","","","","","","","","","","","","",""
"","S2","","html-keyboard-response","379","419634","0.0-1.0-517.0","0","0","43142","","null","","","null","57","","NaN","","","","","","","","","","","","","",""
"","response","","html-keyboard-response","380","420342","0.0-1.0-518.0-0.0","0","0","43142","","707","","","68","57","","","2","57","training","adjacent","FG","6","7","M.jpg","Q.jpg","1","1","1","",""
"","feedback","","html-keyboard-response","381","421346","0.0-1.0-519.0-0.0","0","0","43142","","null","","","null","57","","","","","","","","","","","","","","","",""
"","ITI","","html-keyboard-response","382","422355","0.0-1.0-522.0","0","0","43142","","null","","","null","57","","","","","","","","","","","","","","","NaN",""
"","S1","","html-keyboard-response","383","422515","0.0-1.0-524.0","0","0","43142","","null","","","null","58","","","","","","","","","","","","","","","",""
"","ISI","","html-keyboard-response","384","424522","0.0-1.0-525.0","0","0","43142","","null","","","null","58","NaN","","","","","","","","","","","","","","",""
"","S2","","html-keyboard-response","385","424683","0.0-1.0-526.0","0","0","43142","","null","","","null","58","","NaN","","","","","","","","","","","","","",""
"","response","","html-keyboard-response","386","425362","0.0-1.0-527.0-0.0","0","0","43142","","677","","","75","58","","","2","58","training","adjacent","CB","3","2","L.jpg","N.jpg","0","0","1","",""
"","feedback","","html-keyboard-response","387","426373","0.0-1.0-528.0-0.0","0","0","43142","","null","","","null","58","","","","","","","","","","","","","","","",""
"","ITI","","html-keyboard-response","388","427382","0.0-1.0-531.0","0","0","43142","","null","","","null","58","","","","","","","","","","","","","","","NaN",""
"","S1","","html-keyboard-response","389","427539","0.0-1.0-533.0","0","0","43142","","null","","","null","59","","","","","","","","","","","","","","","",""
"","ISI","","html-keyboard-response","390","429549","0.0-1.0-534.0","0","0","43142","","null","","","null","59","NaN","","","","","","","","","","","","","","",""
"","S2","","html-keyboard-response","391","429708","0.0-1.0-535.0","0","0","43142","","null","","","null","59","","NaN","","","","","","","","","","","","","",""
"","response","","html-keyboard-response","392","430559","0.0-1.0-536.0-0.0","0","0","43142","","849","","","75","59","","","2","59","training","adjacent","FE","6","5","M.jpg","R.jpg","0","0","1","",""
"","feedback","","html-keyboard-response","393","431563","0.0-1.0-537.0-0.0","0","0","43142","","null","","","null","59","","","","","","","","","","","","","","","",""
"","ITI","","html-keyboard-response","394","432573","0.0-1.0-540.0","0","0","43142","","null","","","null","59","","","","","","","","","","","","","","","NaN",""
"","S1","","html-keyboard-response","395","432730","0.0-1.0-542.0","0","0","43142","","null","","","null","60","","","","","","","","","","","","","","","",""
"","ISI","","html-keyboard-response","396","434742","0.0-1.0-543.0","0","0","43142","","null","","","null","60","NaN","","","","","","","","","","","","","","",""
"","S2","","html-keyboard-response","397","434900","0.0-1.0-544.0","0","0","43142","","null","","","null","60","","NaN","","","","","","","","","","","","","",""
"","response","","html-keyboard-response","398","435575","0.0-1.0-545.0-0.0","0","0","43142","","673","","","75","60","","","2","60","training","adjacent","CB","3","2","L.jpg","N.jpg","0","0","1","",""
"","feedback","","html-keyboard-response","399","436578","0.0-1.0-546.0-0.0","0","0","43142","","null","","","null","60","","","","","","","","","","","","","","","",""
"","ITI","","html-keyboard-response","400","437588","0.0-1.0-549.0","0","0","43142","","null","","","null","60","","","","","","","","","","","","","","","NaN",""
"","S1","","html-keyboard-response","401","437749","0.0-1.0-551.0","0","0","43142","","null","","","null","61","","","","","","","","","","","","","","","",""
"","ISI","","html-keyboard-response","402","439754","0.0-1.0-552.0","0","0","43142","","null","","","null","61","NaN","","","","","","","","","","","","","","",""
"","S2","","html-keyboard-response","403","439916","0.0-1.0-553.0","0","0","43142","","null","","","null","61","","NaN","","","","","","","","","","","","","",""
"","response","","html-keyboard-response","404","440626","0.0-1.0-554.0-0.0","0","0","43142","","708","","","75","61","","","2","61","training","adjacent","EF","5","6","R.jpg","M.jpg","0","1","0","",""
"","feedback","","html-keyboard-response","405","441635","0.0-1.0-555.0-0.0","0","0","43142","","null","","","null","61","","","","","","","","","","","","","","","",""
"","time_out","","html-keyboard-response","406","443643","0.0-1.0-557.0-0.0","0","0","43142","","null","","","null","61","","","","","","","","","","","","","","","",""
"","ITI","","html-keyboard-response","407","444652","0.0-1.0-558.0","0","0","43142","","null","","","null","61","","","","","","","","","","","","","","","NaN",""
"","S1","","html-keyboard-response","408","444810","0.0-1.0-560.0","0","0","43142","","null","","","null","62","","","","","","","","","","","","","","","",""
"","ISI","","html-keyboard-response","409","446819","0.0-1.0-561.0","0","0","43142","","null","","","null","62","NaN","","","","","","","","","","","","","","",""
"","S2","","html-keyboard-response","410","446981","0.0-1.0-562.0","0","0","43142","","null","","","null","62","","NaN","","","","","","","","","","","","","",""
"","response","","html-keyboard-response","411","447735","0.0-1.0-563.0-0.0","0","0","43142","","751","","","75","62","","","2","62","training","adjacent","FE","6","5","M.jpg","R.jpg","0","0","1","",""
"","feedback","","html-keyboard-response","412","448749","0.0-1.0-564.0-0.0","0","0","43142","","null","","","null","62","","","","","","","","","","","","","","","",""
"","ITI","","html-keyboard-response","413","449756","0.0-1.0-567.0","0","0","43142","","null","","","null","62","","","","","","","","","","","","","","","NaN",""
"","S1","","html-keyboard-response","414","449919","0.0-1.0-569.0","0","0","43142","","null","","","null","63","","","","","","","","","","","","","","","",""
"","ISI","","html-keyboard-response","415","451927","0.0-1.0-570.0","0","0","43142","","null","","","null","63","NaN","","","","","","","","","","","","","","",""
"","S2","","html-keyboard-response","416","452083","0.0-1.0-571.0","0","0","43142","","null","","","null","63","","NaN","","","","","","","","","","","","","",""
"","response","","html-keyboard-response","417","453088","0.0-1.0-572.0-0.0","0","0","43142","","1003","","","68","63","","","2","63","training","adjacent","DC","4","3","P.jpg","L.jpg","1","0","0","",""
"","feedback","","html-keyboard-response","418","454099","0.0-1.0-573.0-0.0","0","0","43142","","null","","","null","63","","","","","","","","","","","","","","","",""
"","time_out","","html-keyboard-response","419","456106","0.0-1.0-575.0-0.0","0","0","43142","","null","","","null","63","","","","","","","","","","","","","","","",""
"","ITI","","html-keyboard-response","420","457116","0.0-1.0-576.0","0","0","43142","","null","","","null","63","","","","","","","","","","","","","","","NaN",""
"","S1","","html-keyboard-response","421","457279","0.0-1.0-578.0","0","0","43142","","null","","","null","64","","","","","","","","","","","","","","","",""
"","ISI","","html-keyboard-response","422","459282","0.0-1.0-579.0","0","0","43142","","null","","","null","64","NaN","","","","","","","","","","","","","","",""
"","S2","","html-keyboard-response","423","459445","0.0-1.0-580.0","0","0","43142","","null","","","null","64","","NaN","","","","","","","","","","","","","",""
"","response","","html-keyboard-response","424","460293","0.0-1.0-581.0-0.0","0","0","43142","","847","","","68","64","","","2","64","training","adjacent","BA","2","1","N.jpg","O.jpg","1","0","0","",""
"","feedback","","html-keyboard-response","425","461302","0.0-1.0-582.0-0.0","0","0","43142","","null","","","null","64","","","","","","","","","","","","","","","",""
"","time_out","","html-keyboard-response","426","463311","0.0-1.0-584.0-0.0","0","0","43142","","null","","","null","64","","","","","","","","","","","","","","","",""
"","ITI","","html-keyboard-response","427","464314","0.0-1.0-585.0","0","0","43142","","null","","","null","64","","","","","","","","","","","","","","","NaN",""
"","S1","","html-keyboard-response","428","464477","0.0-1.0-587.0","0","0","43142","","null","","","null","65","","","","","","","","","","","","","","","",""
"","ISI","","html-keyboard-response","429","466486","0.0-1.0-588.0","0","0","43142","","null","","","null","65","NaN","","","","","","","","","","","","","","",""
"","S2","","html-keyboard-response","430","466642","0.0-1.0-589.0","0","0","43142","","null","","","null","65","","NaN","","","","","","","","","","","","","",""
"","response","","html-keyboard-response","431","467290","0.0-1.0-590.0-0.0","0","0","43142","","647","","","75","65","","","2","65","training","adjacent","DE","4","5","P.jpg","R.jpg","0","1","0","",""
"","feedback","","html-keyboard-response","432","468298","0.0-1.0-591.0-0.0","0","0","43142","","null","","","null","65","","","","","","","","","","","","","","","",""
"","time_out","","html-keyboard-response","433","470306","0.0-1.0-593.0-0.0","0","0","43142","","null","","","null","65","","","","","","","","","","","","","","","",""
"","ITI","","html-keyboard-response","434","471315","0.0-1.0-594.0","0","0","43142","","null","","","null","65","","","","","","","","","","","","","","","NaN",""
"","S1","","html-keyboard-response","435","471479","0.0-1.0-596.0","0","0","43142","","null","","","null","66","","","","","","","","","","","","","","","",""
"","ISI","","html-keyboard-response","436","473486","0.0-1.0-597.0","0","0","43142","","null","","","null","66","NaN","","","","","","","","","","","","","","",""
"","S2","","html-keyboard-response","437","473644","0.0-1.0-598.0","0","0","43142","","null","","","null","66","","NaN","","","","","","","","","","","","","",""
"","response","","html-keyboard-response","438","474538","0.0-1.0-599.0-0.0","0","0","43142","","893","","","75","66","","","2","66","training","adjacent","CD","3","4","L.jpg","P.jpg","0","1","0","",""
"","feedback","","html-keyboard-response","439","475547","0.0-1.0-600.0-0.0","0","0","43142","","null","","","null","66","","","","","","","","","","","","","","","",""
"","time_out","","html-keyboard-response","440","477557","0.0-1.0-602.0-0.0","0","0","43142","","null","","","null","66","","","","","","","","","","","","","","","",""
"","ITI","","html-keyboard-response","441","478565","0.0-1.0-603.0","0","0","43142","","null","","","null","66","","","","","","","","","","","","","","","NaN",""
"","S1","","html-keyboard-response","442","478723","0.0-1.0-605.0","0","0","43142","","null","","","null","67","","","","","","","","","","","","","","","",""
"","ISI","","html-keyboard-response","443","480731","0.0-1.0-606.0","0","0","43142","","null","","","null","67","NaN","","","","","","","","","","","","","","",""
"","S2","","html-keyboard-response","444","480894","0.0-1.0-607.0","0","0","43142","","null","","","null","67","","NaN","","","","","","","","","","","","","",""
"","response","","html-keyboard-response","445","481528","0.0-1.0-608.0-0.0","0","0","43142","","630","","","75","67","","","2","67","training","adjacent","EF","5","6","R.jpg","M.jpg","0","1","0","",""
"","feedback","","html-keyboard-response","446","482542","0.0-1.0-609.0-0.0","0","0","43142","","null","","","null","67","","","","","","","","","","","","","","","",""
"","time_out","","html-keyboard-response","447","484551","0.0-1.0-611.0-0.0","0","0","43142","","null","","","null","67","","","","","","","","","","","","","","","",""
"","ITI","","html-keyboard-response","448","485556","0.0-1.0-612.0","0","0","43142","","null","","","null","67","","","","","","","","","","","","","","","NaN",""
"","S1","","html-keyboard-response","449","485718","0.0-1.0-614.0","0","0","43142","","null","","","null","68","","","","","","","","","","","","","","","",""
"","ISI","","html-keyboard-response","450","487726","0.0-1.0-615.0","0","0","43142","","null","","","null","68","NaN","","","","","","","","","","","","","","",""
"","S2","","html-keyboard-response","451","487883","0.0-1.0-616.0","0","0","43142","","null","","","null","68","","NaN","","","","","","","","","","","","","",""
"","response","","html-keyboard-response","452","488672","0.0-1.0-617.0-0.0","0","0","43142","","786","","","75","68","","","2","68","training","adjacent","CB","3","2","L.jpg","N.jpg","0","0","1","",""
"","feedback","","html-keyboard-response","453","489682","0.0-1.0-618.0-0.0","0","0","43142","","null","","","null","68","","","","","","","","","","","","","","","",""
"","ITI","","html-keyboard-response","454","490692","0.0-1.0-621.0","0","0","43142","","null","","","null","68","","","","","","","","","","","","","","","NaN",""
"","S1","","html-keyboard-response","455","490850","0.0-1.0-623.0","0","0","43142","","null","","","null","69","","","","","","","","","","","","","","","",""
"","ISI","","html-keyboard-response","456","492862","0.0-1.0-624.0","0","0","43142","","null","","","null","69","NaN","","","","","","","","","","","","","","",""
"","S2","","html-keyboard-response","457","493021","0.0-1.0-625.0","0","0","43142","","null","","","null","69","","NaN","","","","","","","","","","","","","",""
"","response","","html-keyboard-response","458","493736","0.0-1.0-626.0-0.0","0","0","43142","","714","","","75","69","","","2","69","training","adjacent","FE","6","5","M.jpg","R.jpg","0","0","1","",""
"","feedback","","html-keyboard-response","459","494750","0.0-1.0-627.0-0.0","0","0","43142","","null","","","null","69","","","","","","","","","","","","","","","",""
"","ITI","","html-keyboard-response","460","495755","0.0-1.0-630.0","0","0","43142","","null","","","null","69","","","","","","","","","","","","","","","NaN",""
"","S1","","html-keyboard-response","461","495916","0.0-1.0-632.0","0","0","43142","","null","","","null","70","","","","","","","","","","","","","","","",""
"","ISI","","html-keyboard-response","462","497926","0.0-1.0-633.0","0","0","43142","","null","","","null","70","NaN","","","","","","","","","","","","","","",""
"","S2","","html-keyboard-response","463","498083","0.0-1.0-634.0","0","0","43142","","null","","","null","70","","NaN","","","","","","","","","","","","","",""
"","response","","html-keyboard-response","464","498777","0.0-1.0-635.0-0.0","0","0","43142","","692","","","75","70","","","2","70","training","adjacent","DC","4","3","P.jpg","L.jpg","0","0","1","",""
"","feedback","","html-keyboard-response","465","499790","0.0-1.0-636.0-0.0","0","0","43142","","null","","","null","70","","","","","","","","","","","","","","","",""
"","ITI","","html-keyboard-response","466","500795","0.0-1.0-639.0","0","0","43142","","null","","","null","70","","","","","","","","","","","","","","","NaN",""
"","S1","","html-keyboard-response","467","500957","0.0-1.0-641.0","0","0","43142","","null","","","null","71","","","","","","","","","","","","","","","",""
"","ISI","","html-keyboard-response","468","502964","0.0-1.0-642.0","0","0","43142","","null","","","null","71","NaN","","","","","","","","","","","","","","",""
"","S2","","html-keyboard-response","469","503128","0.0-1.0-643.0","0","0","43142","","null","","","null","71","","NaN","","","","","","","","","","","","","",""
"","response","","html-keyboard-response","470","503612","0.0-1.0-644.0-0.0","0","0","43142","","483","","","75","71","","","2","71","training","adjacent","GF","7","6","Q.jpg","M.jpg","0","0","1","",""
"","feedback","","html-keyboard-response","471","504619","0.0-1.0-645.0-0.0","0","0","43142","","null","","","null","71","","","","","","","","","","","","","","","",""
"","ITI","","html-keyboard-response","472","505630","0.0-1.0-648.0","0","0","43142","","null","","","null","71","","","","","","","","","","","","","","","NaN",""
"","S1","","html-keyboard-response","473","505786","0.0-1.0-650.0","0","0","43142","","null","","","null","72","","","","","","","","","","","","","","","",""
"","ISI","","html-keyboard-response","474","507795","0.0-1.0-651.0","0","0","43142","","null","","","null","72","NaN","","","","","","","","","","","","","","",""
"","S2","","html-keyboard-response","475","507957","0.0-1.0-652.0","0","0","43142","","null","","","null","72","","NaN","","","","","","","","","","","","","",""
"","response","","html-keyboard-response","476","508549","0.0-1.0-653.0-0.0","0","0","43142","","590","","","75","72","","","2","72","training","adjacent","BC","2","3","N.jpg","L.jpg","0","1","0","",""
"","feedback","","html-keyboard-response","477","509559","0.0-1.0-654.0-0.0","0","0","43142","","null","","","null","72","","","","","","","","","","","","","","","",""
"","time_out","","html-keyboard-response","478","511574","0.0-1.0-656.0-0.0","0","0","43142","","null","","","null","72","","","","","","","","","","","","","","","",""
"","ITI","","html-keyboard-response","479","512580","0.0-1.0-657.0","0","0","43142","","null","","","null","72","","","","","","","","","","","","","","","NaN",""
"","S1","","html-keyboard-response","480","512740","0.0-1.0-659.0","0","0","43142","","null","","","null","73","","","","","","","","","","","","","","","",""
"","ISI","","html-keyboard-response","481","514748","0.0-1.0-660.0","0","0","43142","","null","","","null","73","NaN","","","","","","","","","","","","","","",""
"","S2","","html-keyboard-response","482","514909","0.0-1.0-661.0","0","0","43142","","null","","","null","73","","NaN","","","","","","","","","","","","","",""
"","response","","html-keyboard-response","483","515516","0.0-1.0-662.0-0.0","0","0","43142","","606","","","75","73","","","2","73","training","adjacent","DC","4","3","P.jpg","L.jpg","0","0","1","",""
"","feedback","","html-keyboard-response","484","516525","0.0-1.0-663.0-0.0","0","0","43142","","null","","","null","73","","","","","","","","","","","","","","","",""
"","ITI","","html-keyboard-response","485","517535","0.0-1.0-666.0","0","0","43142","","null","","","null","73","","","","","","","","","","","","","","","NaN",""
"","S1","","html-keyboard-response","486","517692","0.0-1.0-668.0","0","0","43142","","null","","","null","74","","","","","","","","","","","","","","","",""
"","ISI","","html-keyboard-response","487","519701","0.0-1.0-669.0","0","0","43142","","null","","","null","74","NaN","","","","","","","","","","","","","","",""
"","S2","","html-keyboard-response","488","519863","0.0-1.0-670.0","0","0","43142","","null","","","null","74","","NaN","","","","","","","","","","","","","",""
"","response","","html-keyboard-response","489","520517","0.0-1.0-671.0-0.0","0","0","43142","","651","","","68","74","","","2","74","training","adjacent","ED","5","4","R.jpg","P.jpg","1","0","0","",""
"","feedback","","html-keyboard-response","490","521524","0.0-1.0-672.0-0.0","0","0","43142","","null","","","null","74","","","","","","","","","","","","","","","",""
"","time_out","","html-keyboard-response","491","523532","0.0-1.0-674.0-0.0","0","0","43142","","null","","","null","74","","","","","","","","","","","","","","","",""
"","ITI","","html-keyboard-response","492","524541","0.0-1.0-675.0","0","0","43142","","null","","","null","74","","","","","","","","","","","","","","","NaN",""
"","S1","","html-keyboard-response","493","524699","0.0-1.0-677.0","0","0","43142","","null","","","null","75","","","","","","","","","","","","","","","",""
"","ISI","","html-keyboard-response","494","526710","0.0-1.0-678.0","0","0","43142","","null","","","null","75","NaN","","","","","","","","","","","","","","",""
"","S2","","html-keyboard-response","495","526870","0.0-1.0-679.0","0","0","43142","","null","","","null","75","","NaN","","","","","","","","","","","","","",""
"","response","","html-keyboard-response","496","527266","0.0-1.0-680.0-0.0","0","0","43142","","393","","","75","75","","","2","75","training","adjacent","GF","7","6","Q.jpg","M.jpg","0","0","1","",""
"","feedback","","html-keyboard-response","497","528275","0.0-1.0-681.0-0.0","0","0","43142","","null","","","null","75","","","","","","","","","","","","","","","",""
"","ITI","","html-keyboard-response","498","529284","0.0-1.0-684.0","0","0","43142","","null","","","null","75","","","","","","","","","","","","","","","NaN",""
"","S1","","html-keyboard-response","499","529446","0.0-1.0-686.0","0","0","43142","","null","","","null","76","","","","","","","","","","","","","","","",""
"","ISI","","html-keyboard-response","500","531452","0.0-1.0-687.0","0","0","43142","","null","","","null","76","NaN","","","","","","","","","","","","","","",""
"","S2","","html-keyboard-response","501","531612","0.0-1.0-688.0","0","0","43142","","null","","","null","76","","NaN","","","","","","","","","","","","","",""
"","response","","html-keyboard-response","502","532288","0.0-1.0-689.0-0.0","0","0","43142","","674","","","68","76","","","2","76","training","adjacent","BA","2","1","N.jpg","O.jpg","1","0","0","",""
"","feedback","","html-keyboard-response","503","533302","0.0-1.0-690.0-0.0","0","0","43142","","null","","","null","76","","","","","","","","","","","","","","","",""
"","time_out","","html-keyboard-response","504","535309","0.0-1.0-692.0-0.0","0","0","43142","","null","","","null","76","","","","","","","","","","","","","","","",""
"","ITI","","html-keyboard-response","505","536317","0.0-1.0-693.0","0","0","43142","","null","","","null","76","","","","","","","","","","","","","","","NaN",""
"","S1","","html-keyboard-response","506","536478","0.0-1.0-695.0","0","0","43142","","null","","","null","77","","","","","","","","","","","","","","","",""
"","ISI","","html-keyboard-response","507","538486","0.0-1.0-696.0","0","0","43142","","null","","","null","77","NaN","","","","","","","","","","","","","","",""
"","S2","","html-keyboard-response","508","538642","0.0-1.0-697.0","0","0","43142","","null","","","null","77","","NaN","","","","","","","","","","","","","",""
"","response","","html-keyboard-response","509","539033","0.0-1.0-698.0-0.0","0","0","43142","","388","","","75","77","","","2","77","training","adjacent","AB","1","2","O.jpg","N.jpg","0","1","0","",""
"","feedback","","html-keyboard-response","510","540047","0.0-1.0-699.0-0.0","0","0","43142","","null","","","null","77","","","","","","","","","","","","","","","",""
"","time_out","","html-keyboard-response","511","542051","0.0-1.0-701.0-0.0","0","0","43142","","null","","","null","77","","","","","","","","","","","","","","","",""
"","ITI","","html-keyboard-response","512","543060","0.0-1.0-702.0","0","0","43142","","null","","","null","77","","","","","","","","","","","","","","","NaN",""
"","S1","","html-keyboard-response","513","543223","0.0-1.0-704.0","0","0","43142","","null","","","null","78","","","","","","","","","","","","","","","",""
"","ISI","","html-keyboard-response","514","545231","0.0-1.0-705.0","0","0","43142","","null","","","null","78","NaN","","","","","","","","","","","","","","",""
"","S2","","html-keyboard-response","515","545388","0.0-1.0-706.0","0","0","43142","","null","","","null","78","","NaN","","","","","","","","","","","","","",""
"","response","","html-keyboard-response","516","546031","0.0-1.0-707.0-0.0","0","0","43142","","639","","","68","78","","","2","78","training","adjacent","CD","3","4","L.jpg","P.jpg","1","1","1","",""
"","feedback","","html-keyboard-response","517","547039","0.0-1.0-708.0-0.0","0","0","43142","","null","","","null","78","","","","","","","","","","","","","","","",""
"","ITI","","html-keyboard-response","518","548046","0.0-1.0-711.0","0","0","43142","","null","","","null","78","","","","","","","","","","","","","","","NaN",""
"","S1","","html-keyboard-response","519","548204","0.0-1.0-713.0","0","0","43142","","null","","","null","79","","","","","","","","","","","","","","","",""
"","ISI","","html-keyboard-response","520","550211","0.0-1.0-714.0","0","0","43142","","null","","","null","79","NaN","","","","","","","","","","","","","","",""
"","S2","","html-keyboard-response","521","550374","0.0-1.0-715.0","0","0","43142","","null","","","null","79","","NaN","","","","","","","","","","","","","",""
"","response","","html-keyboard-response","522","550913","0.0-1.0-716.0-0.0","0","0","43142","","536","","","75","79","","","2","79","training","adjacent","EF","5","6","R.jpg","M.jpg","0","1","0","",""
"","feedback","","html-keyboard-response","523","551924","0.0-1.0-717.0-0.0","0","0","43142","","null","","","null","79","","","","","","","","","","","","","","","",""
"","time_out","","html-keyboard-response","524","553932","0.0-1.0-719.0-0.0","0","0","43142","","null","","","null","79","","","","","","","","","","","","","","","",""
"","ITI","","html-keyboard-response","525","554942","0.0-1.0-720.0","0","0","43142","","null","","","null","79","","","","","","","","","","","","","","","NaN",""
"","S1","","html-keyboard-response","526","555100","0.0-1.0-722.0","0","0","43142","","null","","","null","80","","","","","","","","","","","","","","","",""
"","ISI","","html-keyboard-response","527","557108","0.0-1.0-723.0","0","0","43142","","null","","","null","80","NaN","","","","","","","","","","","","","","",""
"","S2","","html-keyboard-response","528","557271","0.0-1.0-724.0","0","0","43142","","null","","","null","80","","NaN","","","","","","","","","","","","","",""
"","response","","html-keyboard-response","529","557821","0.0-1.0-725.0-0.0","0","0","43142","","548","","","68","80","","","2","80","training","adjacent","ED","5","4","R.jpg","P.jpg","1","0","0","",""
"","feedback","","html-keyboard-response","530","558827","0.0-1.0-726.0-0.0","0","0","43142","","null","","","null","80","","","","","","","","","","","","","","","",""
"","time_out","","html-keyboard-response","531","560835","0.0-1.0-728.0-0.0","0","0","43142","","null","","","null","80","","","","","","","","","","","","","","","",""
"","ITI","","html-keyboard-response","532","561845","0.0-1.0-729.0","0","0","43142","","null","","","null","80","","","","","","","","","","","","","","","NaN",""
"","S1","","html-keyboard-response","533","562007","0.0-1.0-731.0","0","0","43142","","null","","","null","81","","","","","","","","","","","","","","","",""
"","ISI","","html-keyboard-response","534","564011","0.0-1.0-732.0","0","0","43142","","null","","","null","81","NaN","","","","","","","","","","","","","","",""
"","S2","","html-keyboard-response","535","564175","0.0-1.0-733.0","0","0","43142","","null","","","null","81","","NaN","","","","","","","","","","","","","",""
"","response","","html-keyboard-response","536","564588","0.0-1.0-734.0-0.0","0","0","43142","","411","","","68","81","","","2","81","training","adjacent","FG","6","7","M.jpg","Q.jpg","1","1","1","",""
"","feedback","","html-keyboard-response","537","565595","0.0-1.0-735.0-0.0","0","0","43142","","null","","","null","81","","","","","","","","","","","","","","","",""
"","ITI","","html-keyboard-response","538","566606","0.0-1.0-738.0","0","0","43142","","null","","","null","81","","","","","","","","","","","","","","","NaN",""
"","S1","","html-keyboard-response","539","566767","0.0-1.0-740.0","0","0","43142","","null","","","null","82","","","","","","","","","","","","","","","",""
"","ISI","","html-keyboard-response","540","568776","0.0-1.0-741.0","0","0","43142","","null","","","null","82","NaN","","","","","","","","","","","","","","",""
"","S2","","html-keyboard-response","541","568933","0.0-1.0-742.0","0","0","43142","","null","","","null","82","","NaN","","","","","","","","","","","","","",""
"","response","","html-keyboard-response","542","569378","0.0-1.0-743.0-0.0","0","0","43142","","443","","","75","82","","","2","82","training","adjacent","DC","4","3","P.jpg","L.jpg","0","0","1","",""
"","feedback","","html-keyboard-response","543","570390","0.0-1.0-744.0-0.0","0","0","43142","","null","","","null","82","","","","","","","","","","","","","","","",""
"","ITI","","html-keyboard-response","544","571395","0.0-1.0-747.0","0","0","43142","","null","","","null","82","","","","","","","","","","","","","","","NaN",""
"","S1","","html-keyboard-response","545","571557","0.0-1.0-749.0","0","0","43142","","null","","","null","83","","","","","","","","","","","","","","","",""
"","ISI","","html-keyboard-response","546","573566","0.0-1.0-750.0","0","0","43142","","null","","","null","83","NaN","","","","","","","","","","","","","","",""
"","S2","","html-keyboard-response","547","573724","0.0-1.0-751.0","0","0","43142","","null","","","null","83","","NaN","","","","","","","","","","","","","",""
"","response","","html-keyboard-response","548","573971","0.0-1.0-752.0-0.0","0","0","43142","","244","","","68","83","","","2","83","training","adjacent","FG","6","7","M.jpg","Q.jpg","1","1","1","",""
"","feedback","","html-keyboard-response","549","574982","0.0-1.0-753.0-0.0","0","0","43142","","null","","","null","83","","","","","","","","","","","","","","","",""
"","ITI","","html-keyboard-response","550","575991","0.0-1.0-756.0","0","0","43142","","null","","","null","83","","","","","","","","","","","","","","","NaN",""
"","S1","","html-keyboard-response","551","576149","0.0-1.0-758.0","0","0","43142","","null","","","null","84","","","","","","","","","","","","","","","",""
"","ISI","","html-keyboard-response","552","578157","0.0-1.0-759.0","0","0","43142","","null","","","null","84","NaN","","","","","","","","","","","","","","",""
"","S2","","html-keyboard-response","553","578320","0.0-1.0-760.0","0","0","43142","","null","","","null","84","","NaN","","","","","","","","","","","","","",""
"","response","","html-keyboard-response","554","578775","0.0-1.0-761.0-0.0","0","0","43142","","452","","","68","84","","","2","84","training","adjacent","ED","5","4","R.jpg","P.jpg","1","0","0","",""
"","feedback","","html-keyboard-response","555","579783","0.0-1.0-762.0-0.0","0","0","43142","","null","","","null","84","","","","","","","","","","","","","","","",""
"","time_out","","html-keyboard-response","556","581790","0.0-1.0-764.0-0.0","0","0","43142","","null","","","null","84","","","","","","","","","","","","","","","",""
"","ITI","","html-keyboard-response","557","582795","0.0-1.0-765.0","0","0","43142","","null","","","null","84","","","","","","","","","","","","","","","NaN",""
"","S1","","html-keyboard-response","558","582957","0.0-1.0-767.0","0","0","43142","","null","","","null","85","","","","","","","","","","","","","","","",""
"","ISI","","html-keyboard-response","559","584966","0.0-1.0-768.0","0","0","43142","","null","","","null","85","NaN","","","","","","","","","","","","","","",""
"","S2","","html-keyboard-response","560","585124","0.0-1.0-769.0","0","0","43142","","null","","","null","85","","NaN","","","","","","","","","","","","","",""
"","response","","html-keyboard-response","561","585411","0.0-1.0-770.0-0.0","0","0","43142","","286","","","75","85","","","2","85","training","adjacent","DE","4","5","P.jpg","R.jpg","0","1","0","",""
"","feedback","","html-keyboard-response","562","586424","0.0-1.0-771.0-0.0","0","0","43142","","null","","","null","85","","","","","","","","","","","","","","","",""
"","time_out","","html-keyboard-response","563","588427","0.0-1.0-773.0-0.0","0","0","43142","","null","","","null","85","","","","","","","","","","","","","","","",""
"","ITI","","html-keyboard-response","564","589436","0.0-1.0-774.0","0","0","43142","","null","","","null","85","","","","","","","","","","","","","","","NaN",""
"","S1","","html-keyboard-response","565","589599","0.0-1.0-776.0","0","0","43142","","null","","","null","86","","","","","","","","","","","","","","","",""
"","ISI","","html-keyboard-response","566","591608","0.0-1.0-777.0","0","0","43142","","null","","","null","86","NaN","","","","","","","","","","","","","","",""
"","S2","","html-keyboard-response","567","591765","0.0-1.0-778.0","0","0","43142","","null","","","null","86","","NaN","","","","","","","","","","","","","",""
"","response","","html-keyboard-response","568","592367","0.0-1.0-779.0-0.0","0","0","43142","","600","","","75","86","","","2","86","training","adjacent","GF","7","6","Q.jpg","M.jpg","0","0","1","",""
"","feedback","","html-keyboard-response","569","593370","0.0-1.0-780.0-0.0","0","0","43142","","null","","","null","86","","","","","","","","","","","","","","","",""
"","ITI","","html-keyboard-response","570","594382","0.0-1.0-783.0","0","0","43142","","null","","","null","86","","","","","","","","","","","","","","","NaN",""
"","S1","","html-keyboard-response","571","594539","0.0-1.0-785.0","0","0","43142","","null","","","null","87","","","","","","","","","","","","","","","",""
"","ISI","","html-keyboard-response","572","596547","0.0-1.0-786.0","0","0","43142","","null","","","null","87","NaN","","","","","","","","","","","","","","",""
"","S2","","html-keyboard-response","573","596709","0.0-1.0-787.0","0","0","43142","","null","","","null","87","","NaN","","","","","","","","","","","","","",""
"","response","","html-keyboard-response","574","597219","0.0-1.0-788.0-0.0","0","0","43142","","508","","","75","87","","","2","87","training","adjacent","CD","3","4","L.jpg","P.jpg","0","1","0","",""
"","feedback","","html-keyboard-response","575","598230","0.0-1.0-789.0-0.0","0","0","43142","","null","","","null","87","","","","","","","","","","","","","","","",""
"","time_out","","html-keyboard-response","576","600239","0.0-1.0-791.0-0.0","0","0","43142","","null","","","null","87","","","","","","","","","","","","","","","",""
"","ITI","","html-keyboard-response","577","601243","0.0-1.0-792.0","0","0","43142","","null","","","null","87","","","","","","","","","","","","","","","NaN",""
"","S1","","html-keyboard-response","578","601407","0.0-1.0-794.0","0","0","43142","","null","","","null","88","","","","","","","","","","","","","","","",""
"","ISI","","html-keyboard-response","579","603415","0.0-1.0-795.0","0","0","43142","","null","","","null","88","NaN","","","","","","","","","","","","","","",""
"","S2","","html-keyboard-response","580","603571","0.0-1.0-796.0","0","0","43142","","null","","","null","88","","NaN","","","","","","","","","","","","","",""
"","response","","html-keyboard-response","581","604335","0.0-1.0-797.0-0.0","0","0","43142","","762","","","75","88","","","2","88","training","adjacent","BC","2","3","N.jpg","L.jpg","0","1","0","",""
"","feedback","","html-keyboard-response","582","605342","0.0-1.0-798.0-0.0","0","0","43142","","null","","","null","88","","","","","","","","","","","","","","","",""
