"success","ttype","start_time","trial_type","trial_index","time_elapsed","internal_node_id","warning","missed_checkup","PID","view_history","rt","responses","repeat_instructions","key_press","index","keypress_isi","keypress_S2","block","trial_num","phase","group_type","pair_type","S1_stim","S2_stim","S1_img","S2_img","S1_chosen","S1_higher","accuracy","keypress_iti","total_bonus_tally"
"true","full_screen","d03072023hr1751","fullscreen","0","5711","0.0-0.0","0","0","13459","","","","","","","","","","","","","","","","","","","","","",""
"","instructions","","instructions","1","95157","0.0-1.0-0.0-0.0","0","0","13459","[{""page_index"":0,""viewing_time"":4711},{""page_index"":1,""viewing_time"":3161},{""page_index"":2,""viewing_time"":77572},{""page_index"":3,""viewing_time"":3998}]","89442","","","","","","","","","","","","","","","","","","","",""
"","comprehension_check","","survey-multi-choice","2","113397","0.0-1.0-0.0-1.0","0","0","13459","","18234","{""Q0"":""True"",""Q1"":""D"",""Q2"":""Only when the screen 'MAKE A CHOICE' is shown"",""Q3"":""Red cross"",""Q4"":""either D or K""}","1","","","","","","","","","","","","","","","","","",""
"","missed_instruction_checkup","","html-keyboard-response","3","118217","0.0-1.0-0.0-2.0-0.0","0","1","13459","","4816","","","32","","","","","","","","","","","","","","","","",""
"","instructions","","instructions","4","138377","0.0-1.0-0.1-0.1","0","0","13459","[{""page_index"":0,""viewing_time"":14277},{""page_index"":1,""viewing_time"":1500},{""page_index"":2,""viewing_time"":2352},{""page_index"":3,""viewing_time"":2029}]","20158","","","","","","","","","","","","","","","","","","","",""
"","comprehension_check","","survey-multi-choice","5","199946","0.0-1.0-0.1-1.1","0","0","13459","","61563","{""Q0"":"""",""Q1"":"""",""Q2"":"""",""Q3"":"""",""Q4"":""""}","1","","","","","","","","","","","","","","","","","",""
"","missed_instruction_checkup","","html-keyboard-response","6","205678","0.0-1.0-0.1-2.1-0.1","0","1","13459","","5730","","","32","","","","","","","","","","","","","","","","",""
"","instructions","","instructions","7","213017","0.0-1.0-0.2-0.2","0","0","13459","[{""page_index"":0,""viewing_time"":2665},{""page_index"":1,""viewing_time"":1449},{""page_index"":2,""viewing_time"":1421},{""page_index"":3,""viewing_time"":1803}]","7339","","","","","","","","","","","","","","","","","","","",""
"","comprehension_check","","survey-multi-choice","8","239387","0.0-1.0-0.2-1.2","0","0","13459","","26365","{""Q0"":""True"",""Q1"":""D"",""Q2"":""Once the second image appears and while the screen 'MAKE A CHOICE' is shown"",""Q3"":""Green mark"",""Q4"":""either D or K""}","1","","","","","","","","","","","","","","","","","",""
"","missed_instruction_checkup","","html-keyboard-response","9","246917","0.0-1.0-0.2-2.2-0.2","0","1","13459","","7528","","","32","","","","","","","","","","","","","","","","",""
"","instructions","","instructions","10","252098","0.0-1.0-0.3-0.3","0","0","13459","[{""page_index"":0,""viewing_time"":1670},{""page_index"":1,""viewing_time"":1658},{""page_index"":2,""viewing_time"":879},{""page_index"":3,""viewing_time"":973}]","5180","","","","","","","","","","","","","","","","","","","",""
"","comprehension_check","","survey-multi-choice","11","262837","0.0-1.0-0.3-1.3","0","0","13459","","10731","{""Q0"":""True"",""Q1"":""K"",""Q2"":""Once the second image appears and while the screen 'MAKE A CHOICE' is shown"",""Q3"":""Green mark"",""Q4"":""either D or K""}","0","","","","","","","","","","","","","","","","","",""
"","start_exp","","html-keyboard-response","12","266236","0.0-1.0-1.0","0","0","13459","","3397","","","32","","","","","","","","","","","","","","","","",""
"","S1","","html-keyboard-response","13","266489","0.0-1.0-2.0","0","0","13459","","null","","","null","0","","","","","","","","","","","","","","","",""
"","ISI","","html-keyboard-response","14","267497","0.0-1.0-3.0","0","0","13459","","null","","","null","0","NaN","","","","","","","","","","","","","","",""
"","S2","","html-keyboard-response","15","267753","0.0-1.0-4.0","0","0","13459","","null","","","null","0","","NaN","","","","","","","","","","","","","",""
"","response","","html-keyboard-response","16","268439","0.0-1.0-5.0-0.0","0","0","13459","","684","","","68","0","","","1","0","training","adjacent","DC","4","3","P.jpg","N.jpg","0","0","1","",""
"","feedback","","html-keyboard-response","17","269442","0.0-1.0-6.0-0.0","0","0","13459","","null","","","null","0","","","","","","","","","","","","","","","",""
"","ITI","","html-keyboard-response","18","270449","0.0-1.0-9.0","0","0","13459","","146","","","68","0","","","","","","","","","","","","","","","d",""
"","S1","","html-keyboard-response","19","270706","0.0-1.0-11.0","0","0","13459","","null","","","null","1","","","","","","","","","","","","","","","",""
"","ISI","","html-keyboard-response","20","271713","0.0-1.0-12.0","0","0","13459","","112","","","75","1","k","","","","","","","","","","","","","","",""
"","S2","","html-keyboard-response","21","271788","0.0-1.0-13.0","0","0","13459","","73","","","68","1","","d","1","1","training","adjacent","FE","6","5","L.jpg","R.jpg","0","0","1","",""
"","feedback","","html-keyboard-response","22","272794","0.0-1.0-15.0-0.0","0","0","13459","","null","","","null","1","","","","","","","","","","","","","","","",""
"","ITI","","html-keyboard-response","23","273801","0.0-1.0-18.0","0","0","13459","","66","","","68","1","","","","","","","","","","","","","","","d",""
"","S1","","html-keyboard-response","24","274055","0.0-1.0-20.0","0","0","13459","","null","","","null","2","","","","","","","","","","","","","","","",""
"","ISI","","html-keyboard-response","25","275058","0.0-1.0-21.0","0","0","13459","","120","","","68","2","d","","","","","","","","","","","","","","",""
"","S2","","html-keyboard-response","26","275109","0.0-1.0-22.0","0","0","13459","","49","","","68","2","","d","1","2","training","adjacent","AB","1","2","O.jpg","M.jpg","0","1","0","",""
"","feedback","","html-keyboard-response","27","276115","0.0-1.0-24.0-0.0","0","0","13459","","null","","","null","2","","","","","","","","","","","","","","","",""
"","time_out","","html-keyboard-response","28","278119","0.0-1.0-26.0-0.0","0","0","13459","","null","","","null","2","","","","","","","","","","","","","","","",""
"","ITI","","html-keyboard-response","29","279121","0.0-1.0-27.0","0","0","13459","","96","","","68","2","","","","","","","","","","","","","","","d",""
"","S1","","html-keyboard-response","30","279378","0.0-1.0-29.0","0","0","13459","","null","","","null","3","","","","","","","","","","","","","","","",""
"","ISI","","html-keyboard-response","31","280386","0.0-1.0-30.0","0","0","13459","","37","","","68","3","d","","","","","","","","","","","","","","",""
"","S2","","html-keyboard-response","32","280543","0.0-1.0-31.0","0","0","13459","","155","","","68","3","","d","1","3","training","adjacent","GF","7","6","Q.jpg","L.jpg","0","0","1","",""
"","feedback","","html-keyboard-response","33","281545","0.0-1.0-33.0-0.0","0","0","13459","","null","","","null","3","","","","","","","","","","","","","","","",""
"","ITI","","html-keyboard-response","34","282554","0.0-1.0-36.0","0","0","13459","","196","","","75","3","","","","","","","","","","","","","","","k",""
"","S1","","html-keyboard-response","35","282810","0.0-1.0-38.0","0","0","13459","","null","","","null","4","","","","","","","","","","","","","","","",""
"","ISI","","html-keyboard-response","36","283817","0.0-1.0-39.0","0","0","13459","","584","","","75","4","k","","","","","","","","","","","","","","",""
"","S2","","html-keyboard-response","37","284073","0.0-1.0-40.0","0","0","13459","","null","","","null","4","","NaN","","","","","","","","","","","","","",""
"","response","","html-keyboard-response","38","284385","0.0-1.0-41.0-0.0","0","0","13459","","310","","","68","4","","","1","4","training","adjacent","BC","2","3","M.jpg","N.jpg","0","1","0","",""
"","feedback","","html-keyboard-response","39","285394","0.0-1.0-42.0-0.0","0","0","13459","","null","","","null","4","","","","","","","","","","","","","","","",""
"","time_out","","html-keyboard-response","40","287401","0.0-1.0-44.0-0.0","0","0","13459","","null","","","null","4","","","","","","","","","","","","","","","",""
"","ITI","","html-keyboard-response","41","288410","0.0-1.0-45.0","0","0","13459","","165","","","68","4","","","","","","","","","","","","","","","d",""
"","S1","","html-keyboard-response","42","288665","0.0-1.0-47.0","0","0","13459","","null","","","null","5","","","","","","","","","","","","","","","",""
"","ISI","","html-keyboard-response","43","289673","0.0-1.0-48.0","0","0","13459","","7","","","68","5","d","","","","","","","","","","","","","","",""
"","S2","","html-keyboard-response","44","289742","0.0-1.0-49.0","0","0","13459","","68","","","75","5","","k","1","5","training","adjacent","ED","5","4","R.jpg","P.jpg","1","0","0","",""
"","feedback","","html-keyboard-response","45","290746","0.0-1.0-51.0-0.0","0","0","13459","","null","","","null","5","","","","","","","","","","","","","","","",""
"","time_out","","html-keyboard-response","46","292754","0.0-1.0-53.0-0.0","0","0","13459","","null","","","null","5","","","","","","","","","","","","","","","",""
"","ITI","","html-keyboard-response","47","293755","0.0-1.0-54.0","0","0","13459","","127","","","75","5","","","","","","","","","","","","","","","k",""
"","S1","","html-keyboard-response","48","294010","0.0-1.0-56.0","0","0","13459","","null","","","null","6","","","","","","","","","","","","","","","",""
"","ISI","","html-keyboard-response","49","295013","0.0-1.0-57.0","0","0","13459","","180","","","68","6","d","","","","","","","","","","","","","","",""
"","S2","","html-keyboard-response","50","295072","0.0-1.0-58.0","0","0","13459","","57","","","68","6","","d","1","6","training","adjacent","ED","5","4","R.jpg","P.jpg","0","0","1","",""
"","feedback","","html-keyboard-response","51","296082","0.0-1.0-60.0-0.0","0","0","13459","","null","","","null","6","","","","","","","","","","","","","","","",""
"","ITI","","html-keyboard-response","52","297090","0.0-1.0-63.0","0","0","13459","","70","","","75","6","","","","","","","","","","","","","","","k",""
"","S1","","html-keyboard-response","53","297346","0.0-1.0-65.0","0","0","13459","","null","","","null","7","","","","","","","","","","","","","","","",""
"","ISI","","html-keyboard-response","54","298354","0.0-1.0-66.0","0","0","13459","","212","","","68","7","d","","","","","","","","","","","","","","",""
"","S2","","html-keyboard-response","55","298553","0.0-1.0-67.0","0","0","13459","","197","","","75","7","","k","1","7","training","adjacent","FG","6","7","L.jpg","Q.jpg","1","1","1","",""
"","feedback","","html-keyboard-response","56","299562","0.0-1.0-69.0-0.0","0","0","13459","","null","","","null","7","","","","","","","","","","","","","","","",""
"","ITI","","html-keyboard-response","57","300569","0.0-1.0-72.0","0","0","13459","","19","","","68","7","","","","","","","","","","","","","","","d",""
"","S1","","html-keyboard-response","58","300873","0.0-1.0-74.0","0","0","13459","","null","","","null","8","","","","","","","","","","","","","","","",""
"","ISI","","html-keyboard-response","59","301883","0.0-1.0-75.0","0","0","13459","","24","","","68","8","d","","","","","","","","","","","","","","",""
"","S2","","html-keyboard-response","60","302010","0.0-1.0-76.0","0","0","13459","","125","","","68","8","","d","1","8","training","adjacent","DE","4","5","P.jpg","R.jpg","0","1","0","",""
"","feedback","","html-keyboard-response","61","303019","0.0-1.0-78.0-0.0","0","0","13459","","null","","","null","8","","","","","","","","","","","","","","","",""
"","time_out","","html-keyboard-response","62","305024","0.0-1.0-80.0-0.0","0","0","13459","","null","","","null","8","","","","","","","","","","","","","","","",""
"","ITI","","html-keyboard-response","63","306034","0.0-1.0-81.0","0","0","13459","","112","","","75","8","","","","","","","","","","","","","","","k",""
"","S1","","html-keyboard-response","64","306289","0.0-1.0-83.0","0","0","13459","","null","","","null","9","","","","","","","","","","","","","","","",""
"","ISI","","html-keyboard-response","65","307297","0.0-1.0-84.0","0","0","13459","","null","","","null","9","NaN","","","","","","","","","","","","","","",""
"","S2","","html-keyboard-response","66","307553","0.0-1.0-85.0","0","0","13459","","null","","","null","9","","NaN","","","","","","","","","","","","","",""
"","response","","html-keyboard-response","67","307999","0.0-1.0-86.0-0.0","0","0","13459","","445","","","75","9","","","1","9","training","adjacent","FG","6","7","L.jpg","Q.jpg","1","1","1","",""
"","feedback","","html-keyboard-response","68","309000","0.0-1.0-87.0-0.0","0","0","13459","","null","","","null","9","","","","","","","","","","","","","","","",""
"","ITI","","html-keyboard-response","69","310009","0.0-1.0-90.0","0","0","13459","","6","","","68","9","","","","","","","","","","","","","","","d",""
"","S1","","html-keyboard-response","70","310266","0.0-1.0-92.0","0","0","13459","","null","","","null","10","","","","","","","","","","","","","","","",""
"","ISI","","html-keyboard-response","71","311325","0.0-1.0-93.0","0","0","13459","","74","","","75","10","k","","","","","","","","","","","","","","",""
"","S2","","html-keyboard-response","72","311577","0.0-1.0-94.0","0","0","13459","","null","","","null","10","","NaN","","","","","","","","","","","","","",""
"","response","","html-keyboard-response","73","311850","0.0-1.0-95.0-0.0","0","0","13459","","273","","","68","10","","","1","10","training","adjacent","CB","3","2","N.jpg","M.jpg","0","0","1","",""
"","feedback","","html-keyboard-response","74","312856","0.0-1.0-96.0-0.0","0","0","13459","","null","","","null","10","","","","","","","","","","","","","","","",""
"","ITI","","html-keyboard-response","75","313932","0.0-1.0-99.0","0","0","13459","","258","","","68","10","","","","","","","","","","","","","","","d",""
"","S1","","html-keyboard-response","76","314202","0.0-1.0-101.0","0","0","13459","","null","","","null","11","","","","","","","","","","","","","","","",""
"","ISI","","html-keyboard-response","77","315209","0.0-1.0-102.0","0","0","13459","","154","","","68","11","d","","","","","","","","","","","","","","",""
"","S2","","html-keyboard-response","78","315238","0.0-1.0-103.0","0","0","13459","","27","","","75","11","","k","1","11","training","adjacent","CD","3","4","N.jpg","P.jpg","1","1","1","",""
"","feedback","","html-keyboard-response","79","316240","0.0-1.0-105.0-0.0","0","0","13459","","null","","","null","11","","","","","","","","","","","","","","","",""
"","ITI","","html-keyboard-response","80","317249","0.0-1.0-108.0","0","0","13459","","56","","","75","11","","","","","","","","","","","","","","","k",""
"","S1","","html-keyboard-response","81","317504","0.0-1.0-110.0","0","0","13459","","null","","","null","12","","","","","","","","","","","","","","","",""
"","ISI","","html-keyboard-response","82","318513","0.0-1.0-111.0","0","0","13459","","332","","","68","12","d","","","","","","","","","","","","","","",""
"","S2","","html-keyboard-response","83","318671","0.0-1.0-112.0","0","0","13459","","155","","","68","12","","d","1","12","training","adjacent","CD","3","4","N.jpg","P.jpg","0","1","0","",""
"","feedback","","html-keyboard-response","84","319673","0.0-1.0-114.0-0.0","0","0","13459","","null","","","null","12","","","","","","","","","","","","","","","",""
"","time_out","","html-keyboard-response","85","321680","0.0-1.0-116.0-0.0","0","0","13459","","null","","","null","12","","","","","","","","","","","","","","","",""
"","ITI","","html-keyboard-response","86","322684","0.0-1.0-117.0","0","0","13459","","196","","","68","12","","","","","","","","","","","","","","","d",""
"","S1","","html-keyboard-response","87","322958","0.0-1.0-119.0","0","0","13459","","null","","","null","13","","","","","","","","","","","","","","","",""
"","ISI","","html-keyboard-response","88","323961","0.0-1.0-120.0","0","0","13459","","78","","","68","13","d","","","","","","","","","","","","","","",""
"","S2","","html-keyboard-response","89","324098","0.0-1.0-121.0","0","0","13459","","135","","","68","13","","d","1","13","training","adjacent","DC","4","3","P.jpg","N.jpg","0","0","1","",""
"","feedback","","html-keyboard-response","90","325105","0.0-1.0-123.0-0.0","0","0","13459","","null","","","null","13","","","","","","","","","","","","","","","",""
"","ITI","","html-keyboard-response","91","326159","0.0-1.0-126.0","0","0","13459","","165","","","68","13","","","","","","","","","","","","","","","d",""
"","S1","","html-keyboard-response","92","326416","0.0-1.0-128.0","0","0","13459","","null","","","null","14","","","","","","","","","","","","","","","",""
"","ISI","","html-keyboard-response","93","327424","0.0-1.0-129.0","0","0","13459","","14","","","68","14","d","","","","","","","","","","","","","","",""
"","S2","","html-keyboard-response","94","327593","0.0-1.0-130.0","0","0","13459","","167","","","68","14","","d","1","14","training","adjacent","EF","5","6","R.jpg","L.jpg","0","1","0","",""
"","feedback","","html-keyboard-response","95","328600","0.0-1.0-132.0-0.0","0","0","13459","","null","","","null","14","","","","","","","","","","","","","","","",""
"","time_out","","html-keyboard-response","96","330608","0.0-1.0-134.0-0.0","0","0","13459","","null","","","null","14","","","","","","","","","","","","","","","",""
"","ITI","","html-keyboard-response","97","331617","0.0-1.0-135.0","0","0","13459","","null","","","null","14","","","","","","","","","","","","","","","NaN",""
"","S1","","html-keyboard-response","98","331873","0.0-1.0-137.0","0","0","13459","","null","","","null","15","","","","","","","","","","","","","","","",""
"","ISI","","html-keyboard-response","99","332881","0.0-1.0-138.0","0","0","13459","","63","","","68","15","d","","","","","","","","","","","","","","",""
"","S2","","html-keyboard-response","100","332901","0.0-1.0-139.0","0","0","13459","","19","","","68","15","","d","1","15","training","adjacent","BA","2","1","M.jpg","O.jpg","0","0","1","",""
"","feedback","","html-keyboard-response","101","333905","0.0-1.0-141.0-0.0","0","0","13459","","null","","","null","15","","","","","","","","","","","","","","","",""
"","ITI","","html-keyboard-response","102","334913","0.0-1.0-144.0","0","0","13459","","null","","","null","15","","","","","","","","","","","","","","","NaN",""
"","S1","","html-keyboard-response","103","335169","0.0-1.0-146.0","0","0","13459","","null","","","null","16","","","","","","","","","","","","","","","",""
"","ISI","","html-keyboard-response","104","336177","0.0-1.0-147.0","0","0","13459","","null","","","null","16","NaN","","","","","","","","","","","","","","",""
"","S2","","html-keyboard-response","105","336358","0.0-1.0-148.0","0","0","13459","","179","","","75","16","","k","1","16","training","adjacent","FG","6","7","L.jpg","Q.jpg","1","1","1","",""
"","feedback","","html-keyboard-response","106","337364","0.0-1.0-150.0-0.0","0","0","13459","","null","","","null","16","","","","","","","","","","","","","","","",""
"","ITI","","html-keyboard-response","107","338368","0.0-1.0-153.0","0","0","13459","","null","","","null","16","","","","","","","","","","","","","","","NaN",""
"","S1","","html-keyboard-response","108","338624","0.0-1.0-155.0","0","0","13459","","null","","","null","17","","","","","","","","","","","","","","","",""
"","ISI","","html-keyboard-response","109","339639","0.0-1.0-156.0","0","0","13459","","698","","","75","17","k","","","","","","","","","","","","","","",""
"","S2","","html-keyboard-response","110","339652","0.0-1.0-157.0","0","0","13459","","11","","","75","17","","k","1","17","training","adjacent","CB","3","2","N.jpg","M.jpg","1","0","0","",""
"","feedback","","html-keyboard-response","111","340658","0.0-1.0-159.0-0.0","0","0","13459","","null","","","null","17","","","","","","","","","","","","","","","",""
"","time_out","","html-keyboard-response","112","342662","0.0-1.0-161.0-0.0","0","0","13459","","null","","","null","17","","","","","","","","","","","","","","","",""
"","ITI","","html-keyboard-response","113","343678","0.0-1.0-162.0","0","0","13459","","670","","","75","17","","","","","","","","","","","","","","","k",""
"","S1","","html-keyboard-response","114","343932","0.0-1.0-164.0","0","0","13459","","null","","","null","18","","","","","","","","","","","","","","","",""
"","ISI","","html-keyboard-response","115","344932","0.0-1.0-165.0","0","0","13459","","60","","","68","18","d","","","","","","","","","","","","","","",""
"","S2","","html-keyboard-response","116","345132","0.0-1.0-166.0","0","0","13459","","198","","","68","18","","d","1","18","training","adjacent","EF","5","6","R.jpg","L.jpg","0","1","0","",""
"","feedback","","html-keyboard-response","117","346137","0.0-1.0-168.0-0.0","0","0","13459","","null","","","null","18","","","","","","","","","","","","","","","",""
"","time_out","","html-keyboard-response","118","348146","0.0-1.0-170.0-0.0","0","0","13459","","null","","","null","18","","","","","","","","","","","","","","","",""
"","ITI","","html-keyboard-response","119","349152","0.0-1.0-171.0","0","0","13459","","6","","","68","18","","","","","","","","","","","","","","","d",""
"","S1","","html-keyboard-response","120","349409","0.0-1.0-173.0","0","0","13459","","null","","","null","19","","","","","","","","","","","","","","","",""
"","ISI","","html-keyboard-response","121","350417","0.0-1.0-174.0","0","0","13459","","163","","","68","19","d","","","","","","","","","","","","","","",""
"","S2","","html-keyboard-response","122","350452","0.0-1.0-175.0","0","0","13459","","33","","","75","19","","k","1","19","training","adjacent","DC","4","3","P.jpg","N.jpg","1","0","0","",""
"","feedback","","html-keyboard-response","123","351458","0.0-1.0-177.0-0.0","0","0","13459","","null","","","null","19","","","","","","","","","","","","","","","",""
"","time_out","","html-keyboard-response","124","353465","0.0-1.0-179.0-0.0","0","0","13459","","null","","","null","19","","","","","","","","","","","","","","","",""
"","ITI","","html-keyboard-response","125","354473","0.0-1.0-180.0","0","0","13459","","226","","","68","19","","","","","","","","","","","","","","","d",""
"","S1","","html-keyboard-response","126","354729","0.0-1.0-182.0","0","0","13459","","null","","","null","20","","","","","","","","","","","","","","","",""
"","ISI","","html-keyboard-response","127","355736","0.0-1.0-183.0","0","0","13459","","102","","","75","20","k","","","","","","","","","","","","","","",""
"","S2","","html-keyboard-response","128","355792","0.0-1.0-184.0","0","0","13459","","54","","","68","20","","d","1","20","training","adjacent","CB","3","2","N.jpg","M.jpg","0","0","1","",""
"","feedback","","html-keyboard-response","129","356801","0.0-1.0-186.0-0.0","0","0","13459","","null","","","null","20","","","","","","","","","","","","","","","",""
"","ITI","","html-keyboard-response","130","357809","0.0-1.0-189.0","0","0","13459","","12","","","68","20","","","","","","","","","","","","","","","d",""
"","S1","","html-keyboard-response","131","358066","0.0-1.0-191.0","0","0","13459","","null","","","null","21","","","","","","","","","","","","","","","",""
"","ISI","","html-keyboard-response","132","359073","0.0-1.0-192.0","0","0","13459","","185","","","75","21","k","","","","","","","","","","","","","","",""
"","S2","","html-keyboard-response","133","359173","0.0-1.0-193.0","0","0","13459","","98","","","68","21","","d","1","21","training","adjacent","FG","6","7","L.jpg","Q.jpg","0","1","0","",""
"","feedback","","html-keyboard-response","134","360177","0.0-1.0-195.0-0.0","0","0","13459","","null","","","null","21","","","","","","","","","","","","","","","",""
"","time_out","","html-keyboard-response","135","362184","0.0-1.0-197.0-0.0","0","0","13459","","null","","","null","21","","","","","","","","","","","","","","","",""
"","ITI","","html-keyboard-response","136","363192","0.0-1.0-198.0","0","0","13459","","187","","","75","21","","","","","","","","","","","","","","","k",""
"","S1","","html-keyboard-response","137","363449","0.0-1.0-200.0","0","0","13459","","null","","","null","22","","","","","","","","","","","","","","","",""
"","ISI","","html-keyboard-response","138","364458","0.0-1.0-201.0","0","0","13459","","42","","","75","22","k","","","","","","","","","","","","","","",""
"","S2","","html-keyboard-response","139","364533","0.0-1.0-202.0","0","0","13459","","73","","","68","22","","d","1","22","training","adjacent","DE","4","5","P.jpg","R.jpg","0","1","0","",""
"","feedback","","html-keyboard-response","140","365537","0.0-1.0-204.0-0.0","0","0","13459","","null","","","null","22","","","","","","","","","","","","","","","",""
"","time_out","","html-keyboard-response","141","367546","0.0-1.0-206.0-0.0","0","0","13459","","null","","","null","22","","","","","","","","","","","","","","","",""
"","ITI","","html-keyboard-response","142","368554","0.0-1.0-207.0","0","0","13459","","106","","","75","22","","","","","","","","","","","","","","","k",""
"","S1","","html-keyboard-response","143","368810","0.0-1.0-209.0","0","0","13459","","null","","","null","23","","","","","","","","","","","","","","","",""
"","ISI","","html-keyboard-response","144","369818","0.0-1.0-210.0","0","0","13459","","21","","","75","23","k","","","","","","","","","","","","","","",""
"","S2","","html-keyboard-response","145","369865","0.0-1.0-211.0","0","0","13459","","45","","","68","23","","d","1","23","training","adjacent","GF","7","6","Q.jpg","L.jpg","0","0","1","",""
"","feedback","","html-keyboard-response","146","370872","0.0-1.0-213.0-0.0","0","0","13459","","null","","","null","23","","","","","","","","","","","","","","","",""
"","ITI","","html-keyboard-response","147","371873","0.0-1.0-216.0","0","0","13459","","160","","","75","23","","","","","","","","","","","","","","","k",""
"","S1","","html-keyboard-response","148","372129","0.0-1.0-218.0","0","0","13459","","null","","","null","24","","","","","","","","","","","","","","","",""
"","ISI","","html-keyboard-response","149","373138","0.0-1.0-219.0","0","0","13459","","103","","","68","24","d","","","","","","","","","","","","","","",""
"","S2","","html-keyboard-response","150","373292","0.0-1.0-220.0","0","0","13459","","154","","","68","24","","d","1","24","training","adjacent","BC","2","3","M.jpg","N.jpg","0","1","0","",""
"","feedback","","html-keyboard-response","151","374297","0.0-1.0-222.0-0.0","0","0","13459","","null","","","null","24","","","","","","","","","","","","","","","",""
"","time_out","","html-keyboard-response","152","376306","0.0-1.0-224.0-0.0","0","0","13459","","null","","","null","24","","","","","","","","","","","","","","","",""
"","ITI","","html-keyboard-response","153","377312","0.0-1.0-225.0","0","0","13459","","148","","","75","24","","","","","","","","","","","","","","","k",""
"","S1","","html-keyboard-response","154","377569","0.0-1.0-227.0","0","0","13459","","null","","","null","25","","","","","","","","","","","","","","","",""
"","ISI","","html-keyboard-response","155","378578","0.0-1.0-228.0","0","0","13459","","301","","","75","25","k","","","","","","","","","","","","","","",""
"","S2","","html-keyboard-response","156","378835","0.0-1.0-229.0","0","0","13459","","null","","","null","25","","NaN","","","","","","","","","","","","","",""
"","response","","html-keyboard-response","157","379073","0.0-1.0-230.0-0.0","0","0","13459","","237","","","75","25","","","1","25","training","adjacent","BA","2","1","M.jpg","O.jpg","1","0","0","",""
"","feedback","","html-keyboard-response","158","380080","0.0-1.0-231.0-0.0","0","0","13459","","null","","","null","25","","","","","","","","","","","","","","","",""
"","time_out","","html-keyboard-response","159","382250","0.0-1.0-233.0-0.0","0","0","13459","","null","","","null","25","","","","","","","","","","","","","","","",""
"","ITI","","html-keyboard-response","160","384250","0.0-1.0-234.0","0","0","13459","","null","","","null","25","","","","","","","","","","","","","","","NaN",""
"","S1","","html-keyboard-response","161","385256","0.0-1.0-236.0","0","0","13459","","null","","","null","26","","","","","","","","","","","","","","","",""
"","ISI","","html-keyboard-response","162","387248","0.0-1.0-237.0","0","0","13459","","null","","","null","26","NaN","","","","","","","","","","","","","","",""
"","S2","","html-keyboard-response","163","388248","0.0-1.0-238.0","0","0","13459","","null","","","null","26","","NaN","","","","","","","","","","","","","",""
"","response","","html-keyboard-response","164","390250","0.0-1.0-239.0-0.0","0","0","13459","","null","","","null","26","","","1","26","training","adjacent","CB","3","2","N.jpg","M.jpg","NaN","0","0","",""
"","too_slow_prompt","","html-keyboard-response","165","392249","0.0-1.0-241.0-0.0","1","0","13459","","null","","","null","","","","","","","","","","","","","","","","",""
"","time_out","","html-keyboard-response","166","395249","0.0-1.0-242.0-0.0","0","0","13459","","null","","","null","26","","","","","","","","","","","","","","","",""
"","ITI","","html-keyboard-response","167","397260","0.0-1.0-243.0","0","0","13459","","null","","","null","26","","","","","","","","","","","","","","","NaN",""
"","S1","","html-keyboard-response","168","398250","0.0-1.0-245.0","0","0","13459","","null","","","null","27","","","","","","","","","","","","","","","",""
"","ISI","","html-keyboard-response","169","400249","0.0-1.0-246.0","0","0","13459","","null","","","null","27","NaN","","","","","","","","","","","","","","",""
"","S2","","html-keyboard-response","170","401297","0.0-1.0-247.0","0","0","13459","","null","","","null","27","","NaN","","","","","","","","","","","","","",""
"","response","","html-keyboard-response","171","403251","0.0-1.0-248.0-0.0","0","0","13459","","null","","","null","27","","","1","27","training","adjacent","BC","2","3","M.jpg","N.jpg","NaN","1","0","",""
"","too_slow_prompt","","html-keyboard-response","172","405248","0.0-1.0-250.0-0.0","1","0","13459","","null","","","null","","","","","","","","","","","","","","","","",""
"","time_out","","html-keyboard-response","173","408269","0.0-1.0-251.0-0.0","0","0","13459","","null","","","null","27","","","","","","","","","","","","","","","",""
"","ITI","","html-keyboard-response","174","410253","0.0-1.0-252.0","0","0","13459","","null","","","null","27","","","","","","","","","","","","","","","NaN",""
"","S1","","html-keyboard-response","175","411249","0.0-1.0-254.0","0","0","13459","","null","","","null","28","","","","","","","","","","","","","","","",""
"","ISI","","html-keyboard-response","176","413299","0.0-1.0-255.0","0","0","13459","","null","","","null","28","NaN","","","","","","","","","","","","","","",""
"","S2","","html-keyboard-response","177","414250","0.0-1.0-256.0","0","0","13459","","null","","","null","28","","NaN","","","","","","","","","","","","","",""
"","response","","html-keyboard-response","178","416250","0.0-1.0-257.0-0.0","0","0","13459","","null","","","null","28","","","1","28","training","adjacent","CD","3","4","N.jpg","P.jpg","NaN","1","0","",""
"","too_slow_prompt","","html-keyboard-response","179","418250","0.0-1.0-259.0-0.0","1","0","13459","","null","","","null","","","","","","","","","","","","","","","","",""
"","time_out","","html-keyboard-response","180","421252","0.0-1.0-260.0-0.0","0","0","13459","","null","","","null","28","","","","","","","","","","","","","","","",""
"","ITI","","html-keyboard-response","181","423254","0.0-1.0-261.0","0","0","13459","","null","","","null","28","","","","","","","","","","","","","","","NaN",""
"","S1","","html-keyboard-response","182","424391","0.0-1.0-263.0","0","0","13459","","null","","","null","29","","","","","","","","","","","","","","","",""
"","ISI","","html-keyboard-response","183","425706","0.0-1.0-264.0","0","0","13459","","null","","","null","29","NaN","","","","","","","","","","","","","","",""
"","S2","","html-keyboard-response","184","425960","0.0-1.0-265.0","0","0","13459","","null","","","null","29","","NaN","","","","","","","","","","","","","",""
"","response","","html-keyboard-response","185","427712","0.0-1.0-266.0-0.0","0","0","13459","","null","","","null","29","","","1","29","training","adjacent","DC","4","3","P.jpg","N.jpg","NaN","0","0","",""
"","too_slow_prompt","","html-keyboard-response","186","428721","0.0-1.0-268.0-0.0","1","0","13459","","null","","","null","","","","","","","","","","","","","","","","",""
"","time_out","","html-keyboard-response","187","430730","0.0-1.0-269.0-0.0","0","0","13459","","null","","","null","29","","","","","","","","","","","","","","","",""
"","ITI","","html-keyboard-response","188","431738","0.0-1.0-270.0","0","0","13459","","21","","","75","29","","","","","","","","","","","","","","","k",""
"","S1","","html-keyboard-response","189","431993","0.0-1.0-272.0","0","0","13459","","null","","","null","30","","","","","","","","","","","","","","","",""
"","ISI","","html-keyboard-response","190","433001","0.0-1.0-273.0","0","0","13459","","78","","","75","30","k","","","","","","","","","","","","","","",""
"","S2","","html-keyboard-response","191","433172","0.0-1.0-274.0","0","0","13459","","170","","","68","30","","d","1","30","training","adjacent","FE","6","5","L.jpg","R.jpg","0","0","1","",""
"","feedback","","html-keyboard-response","192","434178","0.0-1.0-276.0-0.0","0","0","13459","","null","","","null","30","","","","","","","","","","","","","","","",""
"","ITI","","html-keyboard-response","193","435186","0.0-1.0-279.0","0","0","13459","","95","","","75","30","","","","","","","","","","","","","","","k",""
"","S1","","html-keyboard-response","194","435442","0.0-1.0-281.0","0","0","13459","","null","","","null","31","","","","","","","","","","","","","","","",""
"","ISI","","html-keyboard-response","195","436449","0.0-1.0-282.0","0","0","13459","","70","","","75","31","k","","","","","","","","","","","","","","",""
"","S2","","html-keyboard-response","196","436553","0.0-1.0-283.0","0","0","13459","","101","","","68","31","","d","1","31","training","adjacent","AB","1","2","O.jpg","M.jpg","0","1","0","",""
"","feedback","","html-keyboard-response","197","437562","0.0-1.0-285.0-0.0","0","0","13459","","null","","","null","31","","","","","","","","","","","","","","","",""
"","time_out","","html-keyboard-response","198","439568","0.0-1.0-287.0-0.0","0","0","13459","","null","","","null","31","","","","","","","","","","","","","","","",""
"","ITI","","html-keyboard-response","199","440576","0.0-1.0-288.0","0","0","13459","","62","","","68","31","","","","","","","","","","","","","","","d",""
"","S1","","html-keyboard-response","200","440834","0.0-1.0-290.0","0","0","13459","","null","","","null","32","","","","","","","","","","","","","","","",""
"","ISI","","html-keyboard-response","201","441846","0.0-1.0-291.0","0","0","13459","","597","","","75","32","k","","","","","","","","","","","","","","",""
"","S2","","html-keyboard-response","202","442105","0.0-1.0-292.0","0","0","13459","","null","","","null","32","","NaN","","","","","","","","","","","","","",""
"","response","","html-keyboard-response","203","442173","0.0-1.0-293.0-0.0","0","0","13459","","66","","","68","32","","","1","32","training","adjacent","FE","6","5","L.jpg","R.jpg","0","0","1","",""
"","feedback","","html-keyboard-response","204","443178","0.0-1.0-294.0-0.0","0","0","13459","","null","","","null","32","","","","","","","","","","","","","","","",""
"","ITI","","html-keyboard-response","205","444186","0.0-1.0-297.0","0","0","13459","","263","","","75","32","","","","","","","","","","","","","","","k",""
"","S1","","html-keyboard-response","206","444442","0.0-1.0-299.0","0","0","13459","","null","","","null","33","","","","","","","","","","","","","","","",""
"","ISI","","html-keyboard-response","207","445449","0.0-1.0-300.0","0","0","13459","","89","","","68","33","d","","","","","","","","","","","","","","",""
"","S2","","html-keyboard-response","208","445455","0.0-1.0-301.0","0","0","13459","","4","","","68","33","","d","1","33","training","adjacent","FE","6","5","L.jpg","R.jpg","0","0","1","",""
"","feedback","","html-keyboard-response","209","446458","0.0-1.0-303.0-0.0","0","0","13459","","null","","","null","33","","","","","","","","","","","","","","","",""
"","ITI","","html-keyboard-response","210","447463","0.0-1.0-306.0","0","0","13459","","58","","","75","33","","","","","","","","","","","","","","","k",""
"","S1","","html-keyboard-response","211","447721","0.0-1.0-308.0","0","0","13459","","null","","","null","34","","","","","","","","","","","","","","","",""
"","ISI","","html-keyboard-response","212","448729","0.0-1.0-309.0","0","0","13459","","229","","","68","34","d","","","","","","","","","","","","","","",""
"","S2","","html-keyboard-response","213","448829","0.0-1.0-310.0","0","0","13459","","99","","","68","34","","d","1","34","training","adjacent","AB","1","2","O.jpg","M.jpg","0","1","0","",""
"","feedback","","html-keyboard-response","214","449832","0.0-1.0-312.0-0.0","0","0","13459","","null","","","null","34","","","","","","","","","","","","","","","",""
"","time_out","","html-keyboard-response","215","451847","0.0-1.0-314.0-0.0","0","0","13459","","null","","","null","34","","","","","","","","","","","","","","","",""
"","ITI","","html-keyboard-response","216","452849","0.0-1.0-315.0","0","0","13459","","124","","","68","34","","","","","","","","","","","","","","","d",""
"","S1","","html-keyboard-response","217","453104","0.0-1.0-317.0","0","0","13459","","null","","","null","35","","","","","","","","","","","","","","","",""
"","ISI","","html-keyboard-response","218","454114","0.0-1.0-318.0","0","0","13459","","26","","","68","35","d","","","","","","","","","","","","","","",""
"","S2","","html-keyboard-response","219","454232","0.0-1.0-319.0","0","0","13459","","117","","","75","35","","k","1","35","training","adjacent","GF","7","6","Q.jpg","L.jpg","1","0","0","",""
"","feedback","","html-keyboard-response","220","455241","0.0-1.0-321.0-0.0","0","0","13459","","null","","","null","35","","","","","","","","","","","","","","","",""
"","time_out","","html-keyboard-response","221","457249","0.0-1.0-323.0-0.0","0","0","13459","","null","","","null","35","","","","","","","","","","","","","","","",""
"","ITI","","html-keyboard-response","222","458256","0.0-1.0-324.0","0","0","13459","","261","","","68","35","","","","","","","","","","","","","","","d",""
"","S1","","html-keyboard-response","223","458513","0.0-1.0-326.0","0","0","13459","","null","","","null","36","","","","","","","","","","","","","","","",""
"","ISI","","html-keyboard-response","224","459514","0.0-1.0-327.0","0","0","13459","","98","","","75","36","k","","","","","","","","","","","","","","",""
"","S2","","html-keyboard-response","225","459769","0.0-1.0-328.0","0","0","13459","","null","","","null","36","","NaN","","","","","","","","","","","","","",""
"","response","","html-keyboard-response","226","460972","0.0-1.0-329.0-0.0","0","0","13459","","1201","","","75","36","","","1","36","training","adjacent","DE","4","5","P.jpg","R.jpg","1","1","1","",""
"","feedback","","html-keyboard-response","227","461977","0.0-1.0-330.0-0.0","0","0","13459","","null","","","null","36","","","","","","","","","","","","","","","",""
"","ITI","","html-keyboard-response","228","462986","0.0-1.0-333.0","0","0","13459","","136","","","75","36","","","","","","","","","","","","","","","k",""
"","S1","","html-keyboard-response","229","463242","0.0-1.0-335.0","0","0","13459","","null","","","null","37","","","","","","","","","","","","","","","",""
"","ISI","","html-keyboard-response","230","464250","0.0-1.0-336.0","0","0","13459","","19","","","75","37","k","","","","","","","","","","","","","","",""
"","S2","","html-keyboard-response","231","464372","0.0-1.0-337.0","0","0","13459","","121","","","68","37","","d","1","37","training","adjacent","ED","5","4","R.jpg","P.jpg","0","0","1","",""
"","feedback","","html-keyboard-response","232","465377","0.0-1.0-339.0-0.0","0","0","13459","","null","","","null","37","","","","","","","","","","","","","","","",""
"","ITI","","html-keyboard-response","233","466382","0.0-1.0-342.0","0","0","13459","","23","","","75","37","","","","","","","","","","","","","","","k",""
"","S1","","html-keyboard-response","234","466633","0.0-1.0-344.0","0","0","13459","","null","","","null","38","","","","","","","","","","","","","","","",""
"","ISI","","html-keyboard-response","235","467641","0.0-1.0-345.0","0","0","13459","","68","","","75","38","k","","","","","","","","","","","","","","",""
"","S2","","html-keyboard-response","236","467792","0.0-1.0-346.0","0","0","13459","","149","","","75","38","","k","1","38","training","adjacent","BA","2","1","M.jpg","O.jpg","1","0","0","",""
"","feedback","","html-keyboard-response","237","468801","0.0-1.0-348.0-0.0","0","0","13459","","null","","","null","38","","","","","","","","","","","","","","","",""
"","time_out","","html-keyboard-response","238","470809","0.0-1.0-350.0-0.0","0","0","13459","","null","","","null","38","","","","","","","","","","","","","","","",""
"","ITI","","html-keyboard-response","239","471817","0.0-1.0-351.0","0","0","13459","","181","","","75","38","","","","","","","","","","","","","","","k",""
"","S1","","html-keyboard-response","240","472073","0.0-1.0-353.0","0","0","13459","","null","","","null","39","","","","","","","","","","","","","","","",""
"","ISI","","html-keyboard-response","241","473081","0.0-1.0-354.0","0","0","13459","","110","","","75","39","k","","","","","","","","","","","","","","",""
"","S2","","html-keyboard-response","242","473157","0.0-1.0-355.0","0","0","13459","","75","","","68","39","","d","1","39","training","adjacent","DE","4","5","P.jpg","R.jpg","0","1","0","",""
"","feedback","","html-keyboard-response","243","474161","0.0-1.0-357.0-0.0","0","0","13459","","null","","","null","39","","","","","","","","","","","","","","","",""
"","time_out","","html-keyboard-response","244","476235","0.0-1.0-359.0-0.0","0","0","13459","","null","","","null","39","","","","","","","","","","","","","","","",""
"","ITI","","html-keyboard-response","245","477240","0.0-1.0-360.0","0","0","13459","","35","","","68","39","","","","","","","","","","","","","","","d",""
"","S1","","html-keyboard-response","246","477497","0.0-1.0-362.0","0","0","13459","","null","","","null","40","","","","","","","","","","","","","","","",""
"","ISI","","html-keyboard-response","247","478504","0.0-1.0-363.0","0","0","13459","","29","","","75","40","k","","","","","","","","","","","","","","",""
"","S2","","html-keyboard-response","248","478672","0.0-1.0-364.0","0","0","13459","","166","","","75","40","","k","1","40","training","adjacent","EF","5","6","R.jpg","L.jpg","1","1","1","",""
"","feedback","","html-keyboard-response","249","479681","0.0-1.0-366.0-0.0","0","0","13459","","null","","","null","40","","","","","","","","","","","","","","","",""
"","ITI","","html-keyboard-response","250","480689","0.0-1.0-369.0","0","0","13459","","110","","","75","40","","","","","","","","","","","","","","","k",""
"","S1","","html-keyboard-response","251","480942","0.0-1.0-371.0","0","0","13459","","null","","","null","41","","","","","","","","","","","","","","","",""
"","ISI","","html-keyboard-response","252","481946","0.0-1.0-372.0","0","0","13459","","160","","","68","41","d","","","","","","","","","","","","","","",""
"","S2","","html-keyboard-response","253","482072","0.0-1.0-373.0","0","0","13459","","125","","","68","41","","d","1","41","training","adjacent","BA","2","1","M.jpg","O.jpg","0","0","1","",""
"","feedback","","html-keyboard-response","254","483080","0.0-1.0-375.0-0.0","0","0","13459","","null","","","null","41","","","","","","","","","","","","","","","",""
"","ITI","","html-keyboard-response","255","484088","0.0-1.0-378.0","0","0","13459","","110","","","68","41","","","","","","","","","","","","","","","d",""
"","S1","","html-keyboard-response","256","484349","0.0-1.0-380.0","0","0","13459","","null","","","null","42","","","","","","","","","","","","","","","",""
"","ISI","","html-keyboard-response","257","485386","0.0-1.0-381.0","0","0","13459","","132","","","75","42","k","","","","","","","","","","","","","","",""
"","S2","","html-keyboard-response","258","485423","0.0-1.0-382.0","0","0","13459","","35","","","68","42","","d","1","42","training","adjacent","AB","1","2","O.jpg","M.jpg","0","1","0","",""
"","feedback","","html-keyboard-response","259","486429","0.0-1.0-384.0-0.0","0","0","13459","","null","","","null","42","","","","","","","","","","","","","","","",""
"","time_out","","html-keyboard-response","260","488433","0.0-1.0-386.0-0.0","0","0","13459","","null","","","null","42","","","","","","","","","","","","","","","",""
"","ITI","","html-keyboard-response","261","489442","0.0-1.0-387.0","0","0","13459","","308","","","75","42","","","","","","","","","","","","","","","k",""
"","S1","","html-keyboard-response","262","489697","0.0-1.0-389.0","0","0","13459","","null","","","null","43","","","","","","","","","","","","","","","",""
"","ISI","","html-keyboard-response","263","490725","0.0-1.0-390.0","0","0","13459","","43","","","75","43","k","","","","","","","","","","","","","","",""
"","S2","","html-keyboard-response","264","490822","0.0-1.0-391.0","0","0","13459","","96","","","75","43","","k","1","43","training","adjacent","CD","3","4","N.jpg","P.jpg","1","1","1","",""
"","feedback","","html-keyboard-response","265","491826","0.0-1.0-393.0-0.0","0","0","13459","","null","","","null","43","","","","","","","","","","","","","","","",""
"","ITI","","html-keyboard-response","266","492853","0.0-1.0-396.0","0","0","13459","","46","","","68","43","","","","","","","","","","","","","","","d",""
"","S1","","html-keyboard-response","267","493106","0.0-1.0-398.0","0","0","13459","","null","","","null","44","","","","","","","","","","","","","","","",""
"","ISI","","html-keyboard-response","268","494114","0.0-1.0-399.0","0","0","13459","","46","","","68","44","d","","","","","","","","","","","","","","",""
"","S2","","html-keyboard-response","269","494122","0.0-1.0-400.0","0","0","13459","","6","","","68","44","","d","1","44","training","adjacent","BC","2","3","M.jpg","N.jpg","0","1","0","",""
"","feedback","","html-keyboard-response","270","495129","0.0-1.0-402.0-0.0","0","0","13459","","null","","","null","44","","","","","","","","","","","","","","","",""
"","time_out","","html-keyboard-response","271","497137","0.0-1.0-404.0-0.0","0","0","13459","","null","","","null","44","","","","","","","","","","","","","","","",""
"","ITI","","html-keyboard-response","272","498145","0.0-1.0-405.0","0","0","13459","","53","","","68","44","","","","","","","","","","","","","","","d",""
"","S1","","html-keyboard-response","273","498402","0.0-1.0-407.0","0","0","13459","","null","","","null","45","","","","","","","","","","","","","","","",""
"","ISI","","html-keyboard-response","274","499409","0.0-1.0-408.0","0","0","13459","","100","","","75","45","k","","","","","","","","","","","","","","",""
"","S2","","html-keyboard-response","275","499542","0.0-1.0-409.0","0","0","13459","","132","","","75","45","","k","1","45","training","adjacent","ED","5","4","R.jpg","P.jpg","1","0","0","",""
"","feedback","","html-keyboard-response","276","500570","0.0-1.0-411.0-0.0","0","0","13459","","null","","","null","45","","","","","","","","","","","","","","","",""
"","time_out","","html-keyboard-response","277","502578","0.0-1.0-413.0-0.0","0","0","13459","","null","","","null","45","","","","","","","","","","","","","","","",""
"","ITI","","html-keyboard-response","278","503585","0.0-1.0-414.0","0","0","13459","","143","","","75","45","","","","","","","","","","","","","","","k",""
"","S1","","html-keyboard-response","279","503848","0.0-1.0-416.0","0","0","13459","","null","","","null","46","","","","","","","","","","","","","","","",""
"","ISI","","html-keyboard-response","280","504857","0.0-1.0-417.0","0","0","13459","","60","","","75","46","k","","","","","","","","","","","","","","",""
"","S2","","html-keyboard-response","281","504972","0.0-1.0-418.0","0","0","13459","","114","","","68","46","","d","1","46","training","adjacent","GF","7","6","Q.jpg","L.jpg","0","0","1","",""
"","feedback","","html-keyboard-response","282","505977","0.0-1.0-420.0-0.0","0","0","13459","","null","","","null","46","","","","","","","","","","","","","","","",""
"","ITI","","html-keyboard-response","283","506986","0.0-1.0-423.0","0","0","13459","","33","","","75","46","","","","","","","","","","","","","","","k",""
"","S1","","html-keyboard-response","284","507241","0.0-1.0-425.0","0","0","13459","","null","","","null","47","","","","","","","","","","","","","","","",""
"","ISI","","html-keyboard-response","285","508248","0.0-1.0-426.0","0","0","13459","","250","","","75","47","k","","","","","","","","","","","","","","",""
"","S2","","html-keyboard-response","286","508392","0.0-1.0-427.0","0","0","13459","","142","","","75","47","","k","1","47","training","adjacent","EF","5","6","R.jpg","L.jpg","1","1","1","",""
"","feedback","","html-keyboard-response","287","509394","0.0-1.0-429.0-0.0","0","0","13459","","null","","","null","47","","","","","","","","","","","","","","","",""
"","ITI","","html-keyboard-response","288","510400","0.0-1.0-432.0","0","0","13459","","237","","","75","47","","","","","","","","","","","","","","","k",""
"","block_over","","html-keyboard-response","289","514122","0.0-1.0-433.0-0.0","0","0","13459","","3720","","","32","47","","","","","","","","","","","","","","","",""
"","S1","","html-keyboard-response","290","514377","0.0-1.0-434.0","0","0","13459","","null","","","null","48","","","","","","","","","","","","","","","",""
"","ISI","","html-keyboard-response","291","515385","0.0-1.0-435.0","0","0","13459","","534","","","68","48","d","","","","","","","","","","","","","","",""
"","S2","","html-keyboard-response","292","515471","0.0-1.0-436.0","0","0","13459","","85","","","68","48","","d","2","48","training","adjacent","DE","4","5","P.jpg","R.jpg","0","1","0","",""
"","feedback","","html-keyboard-response","293","516472","0.0-1.0-438.0-0.0","0","0","13459","","null","","","null","48","","","","","","","","","","","","","","","",""
"","time_out","","html-keyboard-response","294","518482","0.0-1.0-440.0-0.0","0","0","13459","","null","","","null","48","","","","","","","","","","","","","","","",""
"","ITI","","html-keyboard-response","295","519485","0.0-1.0-441.0","0","0","13459","","109","","","68","48","","","","","","","","","","","","","","","d",""
"","S1","","html-keyboard-response","296","519737","0.0-1.0-443.0","0","0","13459","","null","","","null","49","","","","","","","","","","","","","","","",""
"","ISI","","html-keyboard-response","297","520745","0.0-1.0-444.0","0","0","13459","","23","","","75","49","k","","","","","","","","","","","","","","",""
"","S2","","html-keyboard-response","298","520812","0.0-1.0-445.0","0","0","13459","","65","","","75","49","","k","2","49","training","adjacent","EF","5","6","R.jpg","L.jpg","1","1","1","",""
"","feedback","","html-keyboard-response","299","521817","0.0-1.0-447.0-0.0","0","0","13459","","null","","","null","49","","","","","","","","","","","","","","","",""
"","ITI","","html-keyboard-response","300","522827","0.0-1.0-450.0","0","0","13459","","85","","","75","49","","","","","","","","","","","","","","","k",""
"","S1","","html-keyboard-response","301","523081","0.0-1.0-452.0","0","0","13459","","null","","","null","50","","","","","","","","","","","","","","","",""
"","ISI","","html-keyboard-response","302","524089","0.0-1.0-453.0","0","0","13459","","141","","","75","50","k","","","","","","","","","","","","","","",""
"","S2","","html-keyboard-response","303","524112","0.0-1.0-454.0","0","0","13459","","22","","","75","50","","k","2","50","training","adjacent","BA","2","1","M.jpg","O.jpg","1","0","0","",""
"","feedback","","html-keyboard-response","304","525112","0.0-1.0-456.0-0.0","0","0","13459","","null","","","null","50","","","","","","","","","","","","","","","",""
"","time_out","","html-keyboard-response","305","527121","0.0-1.0-458.0-0.0","0","0","13459","","null","","","null","50","","","","","","","","","","","","","","","",""
"","ITI","","html-keyboard-response","306","528129","0.0-1.0-459.0","0","0","13459","","19","","","75","50","","","","","","","","","","","","","","","k",""
"","S1","","html-keyboard-response","307","528382","0.0-1.0-461.0","0","0","13459","","null","","","null","51","","","","","","","","","","","","","","","",""
"","ISI","","html-keyboard-response","308","529385","0.0-1.0-462.0","0","0","13459","","158","","","75","51","k","","","","","","","","","","","","","","",""
"","S2","","html-keyboard-response","309","529442","0.0-1.0-463.0","0","0","13459","","55","","","68","51","","d","2","51","training","adjacent","BA","2","1","M.jpg","O.jpg","0","0","1","",""
"","feedback","","html-keyboard-response","310","530450","0.0-1.0-465.0-0.0","0","0","13459","","null","","","null","51","","","","","","","","","","","","","","","",""
"","ITI","","html-keyboard-response","311","531456","0.0-1.0-468.0","0","0","13459","","102","","","75","51","","","","","","","","","","","","","","","k",""
"","S1","","html-keyboard-response","312","531713","0.0-1.0-470.0","0","0","13459","","null","","","null","52","","","","","","","","","","","","","","","",""
"","ISI","","html-keyboard-response","313","532720","0.0-1.0-471.0","0","0","13459","","239","","","75","52","k","","","","","","","","","","","","","","",""
"","S2","","html-keyboard-response","314","532762","0.0-1.0-472.0","0","0","13459","","40","","","68","52","","d","2","52","training","adjacent","BA","2","1","M.jpg","O.jpg","0","0","1","",""
"","feedback","","html-keyboard-response","315","533770","0.0-1.0-474.0-0.0","0","0","13459","","null","","","null","52","","","","","","","","","","","","","","","",""
"","ITI","","html-keyboard-response","316","534777","0.0-1.0-477.0","0","0","13459","","25","","","75","52","","","","","","","","","","","","","","","k",""
"","S1","","html-keyboard-response","317","535033","0.0-1.0-479.0","0","0","13459","","null","","","null","53","","","","","","","","","","","","","","","",""
"","ISI","","html-keyboard-response","318","536042","0.0-1.0-480.0","0","0","13459","","89","","","75","53","k","","","","","","","","","","","","","","",""
"","S2","","html-keyboard-response","319","536102","0.0-1.0-481.0","0","0","13459","","59","","","75","53","","k","2","53","training","adjacent","DE","4","5","P.jpg","R.jpg","1","1","1","",""
"","feedback","","html-keyboard-response","320","537106","0.0-1.0-483.0-0.0","0","0","13459","","null","","","null","53","","","","","","","","","","","","","","","",""
"","ITI","","html-keyboard-response","321","538113","0.0-1.0-486.0","0","0","13459","","104","","","75","53","","","","","","","","","","","","","","","k",""
"","S1","","html-keyboard-response","322","538375","0.0-1.0-488.0","0","0","13459","","null","","","null","54","","","","","","","","","","","","","","","",""
"","ISI","","html-keyboard-response","323","539377","0.0-1.0-489.0","0","0","13459","","76","","","68","54","d","","","","","","","","","","","","","","",""
"","S2","","html-keyboard-response","324","539512","0.0-1.0-490.0","0","0","13459","","133","","","68","54","","d","2","54","training","adjacent","DC","4","3","P.jpg","N.jpg","0","0","1","",""
"","feedback","","html-keyboard-response","325","540522","0.0-1.0-492.0-0.0","0","0","13459","","null","","","null","54","","","","","","","","","","","","","","","",""
"","ITI","","html-keyboard-response","326","541529","0.0-1.0-495.0","0","0","13459","","38","","","68","54","","","","","","","","","","","","","","","d",""
"","S1","","html-keyboard-response","327","541786","0.0-1.0-497.0","0","0","13459","","null","","","null","55","","","","","","","","","","","","","","","",""
"","ISI","","html-keyboard-response","328","542822","0.0-1.0-498.0","0","0","13459","","155","","","68","55","d","","","","","","","","","","","","","","",""
"","S2","","html-keyboard-response","329","542833","0.0-1.0-499.0","0","0","13459","","9","","","75","55","","k","2","55","training","adjacent","AB","1","2","O.jpg","M.jpg","1","1","1","",""
"","feedback","","html-keyboard-response","330","543842","0.0-1.0-501.0-0.0","0","0","13459","","null","","","null","55","","","","","","","","","","","","","","","",""
"","ITI","","html-keyboard-response","331","544849","0.0-1.0-504.0","0","0","13459","","81","","","75","55","","","","","","","","","","","","","","","k",""
"","S1","","html-keyboard-response","332","545112","0.0-1.0-506.0","0","0","13459","","null","","","null","56","","","","","","","","","","","","","","","",""
"","ISI","","html-keyboard-response","333","546122","0.0-1.0-507.0","0","0","13459","","48","","","75","56","k","","","","","","","","","","","","","","",""
"","S2","","html-keyboard-response","334","546242","0.0-1.0-508.0","0","0","13459","","119","","","75","56","","k","2","56","training","adjacent","DE","4","5","P.jpg","R.jpg","1","1","1","",""
"","feedback","","html-keyboard-response","335","547249","0.0-1.0-510.0-0.0","0","0","13459","","null","","","null","56","","","","","","","","","","","","","","","",""
"","ITI","","html-keyboard-response","336","548256","0.0-1.0-513.0","0","0","13459","","66","","","75","56","","","","","","","","","","","","","","","k",""
"","S1","","html-keyboard-response","337","548514","0.0-1.0-515.0","0","0","13459","","null","","","null","57","","","","","","","","","","","","","","","",""
"","ISI","","html-keyboard-response","338","549521","0.0-1.0-516.0","0","0","13459","","8","","","68","57","d","","","","","","","","","","","","","","",""
"","S2","","html-keyboard-response","339","549693","0.0-1.0-517.0","0","0","13459","","169","","","68","57","","d","2","57","training","adjacent","CD","3","4","N.jpg","P.jpg","0","1","0","",""
"","feedback","","html-keyboard-response","340","550698","0.0-1.0-519.0-0.0","0","0","13459","","null","","","null","57","","","","","","","","","","","","","","","",""
"","time_out","","html-keyboard-response","341","552705","0.0-1.0-521.0-0.0","0","0","13459","","null","","","null","57","","","","","","","","","","","","","","","",""
"","ITI","","html-keyboard-response","342","553713","0.0-1.0-522.0","0","0","13459","","326","","","68","57","","","","","","","","","","","","","","","d",""
"","S1","","html-keyboard-response","343","553970","0.0-1.0-524.0","0","0","13459","","null","","","null","58","","","","","","","","","","","","","","","",""
"","ISI","","html-keyboard-response","344","554977","0.0-1.0-525.0","0","0","13459","","192","","","68","58","d","","","","","","","","","","","","","","",""
"","S2","","html-keyboard-response","345","555234","0.0-1.0-526.0","0","0","13459","","null","","","null","58","","NaN","","","","","","","","","","","","","",""
"","response","","html-keyboard-response","346","555261","0.0-1.0-527.0-0.0","0","0","13459","","27","","","75","58","","","2","58","training","adjacent","ED","5","4","R.jpg","P.jpg","1","0","0","",""
"","feedback","","html-keyboard-response","347","556264","0.0-1.0-528.0-0.0","0","0","13459","","null","","","null","58","","","","","","","","","","","","","","","",""
"","time_out","","html-keyboard-response","348","558272","0.0-1.0-530.0-0.0","0","0","13459","","null","","","null","58","","","","","","","","","","","","","","","",""
"","ITI","","html-keyboard-response","349","559273","0.0-1.0-531.0","0","0","13459","","193","","","68","58","","","","","","","","","","","","","","","d",""
"","S1","","html-keyboard-response","350","559529","0.0-1.0-533.0","0","0","13459","","null","","","null","59","","","","","","","","","","","","","","","",""
"","ISI","","html-keyboard-response","351","560537","0.0-1.0-534.0","0","0","13459","","62","","","68","59","d","","","","","","","","","","","","","","",""
"","S2","","html-keyboard-response","352","560682","0.0-1.0-535.0","0","0","13459","","143","","","68","59","","d","2","59","training","adjacent","FE","6","5","L.jpg","R.jpg","0","0","1","",""
"","feedback","","html-keyboard-response","353","561689","0.0-1.0-537.0-0.0","0","0","13459","","null","","","null","59","","","","","","","","","","","","","","","",""
"","ITI","","html-keyboard-response","354","562716","0.0-1.0-540.0","0","0","13459","","52","","","68","59","","","","","","","","","","","","","","","d",""
"","S1","","html-keyboard-response","355","562968","0.0-1.0-542.0","0","0","13459","","null","","","null","60","","","","","","","","","","","","","","","",""
"","ISI","","html-keyboard-response","356","563977","0.0-1.0-543.0","0","0","13459","","22","","","75","60","k","","","","","","","","","","","","","","",""
"","S2","","html-keyboard-response","357","564165","0.0-1.0-544.0","0","0","13459","","186","","","68","60","","d","2","60","training","adjacent","GF","7","6","Q.jpg","L.jpg","0","0","1","",""
"","feedback","","html-keyboard-response","358","565170","0.0-1.0-546.0-0.0","0","0","13459","","null","","","null","60","","","","","","","","","","","","","","","",""
"","ITI","","html-keyboard-response","359","566176","0.0-1.0-549.0","0","0","13459","","91","","","75","60","","","","","","","","","","","","","","","k",""
"","S1","","html-keyboard-response","360","566433","0.0-1.0-551.0","0","0","13459","","null","","","null","61","","","","","","","","","","","","","","","",""
"","ISI","","html-keyboard-response","361","567441","0.0-1.0-552.0","0","0","13459","","47","","","68","61","d","","","","","","","","","","","","","","",""
"","S2","","html-keyboard-response","362","567448","0.0-1.0-553.0","0","0","13459","","6","","","68","61","","d","2","61","training","adjacent","DE","4","5","P.jpg","R.jpg","0","1","0","",""
"","feedback","","html-keyboard-response","363","568453","0.0-1.0-555.0-0.0","0","0","13459","","null","","","null","61","","","","","","","","","","","","","","","",""
"","time_out","","html-keyboard-response","364","570457","0.0-1.0-557.0-0.0","0","0","13459","","null","","","null","61","","","","","","","","","","","","","","","",""
"","ITI","","html-keyboard-response","365","571466","0.0-1.0-558.0","0","0","13459","","93","","","68","61","","","","","","","","","","","","","","","d",""
"","S1","","html-keyboard-response","366","571721","0.0-1.0-560.0","0","0","13459","","null","","","null","62","","","","","","","","","","","","","","","",""
"","ISI","","html-keyboard-response","367","572730","0.0-1.0-561.0","0","0","13459","","49","","","75","62","k","","","","","","","","","","","","","","",""
"","S2","","html-keyboard-response","368","572842","0.0-1.0-562.0","0","0","13459","","111","","","75","62","","k","2","62","training","adjacent","CB","3","2","N.jpg","M.jpg","1","0","0","",""
"","feedback","","html-keyboard-response","369","573848","0.0-1.0-564.0-0.0","0","0","13459","","null","","","null","62","","","","","","","","","","","","","","","",""
"","time_out","","html-keyboard-response","370","575856","0.0-1.0-566.0-0.0","0","0","13459","","null","","","null","62","","","","","","","","","","","","","","","",""
"","ITI","","html-keyboard-response","371","576864","0.0-1.0-567.0","0","0","13459","","14","","","75","62","","","","","","","","","","","","","","","k",""
"","S1","","html-keyboard-response","372","577122","0.0-1.0-569.0","0","0","13459","","null","","","null","63","","","","","","","","","","","","","","","",""
"","ISI","","html-keyboard-response","373","578128","0.0-1.0-570.0","0","0","13459","","79","","","68","63","d","","","","","","","","","","","","","","",""
"","S2","","html-keyboard-response","374","578384","0.0-1.0-571.0","0","0","13459","","null","","","null","63","","NaN","","","","","","","","","","","","","",""
"","response","","html-keyboard-response","375","578402","0.0-1.0-572.0-0.0","0","0","13459","","16","","","68","63","","","2","63","training","adjacent","DC","4","3","P.jpg","N.jpg","0","0","1","",""
"","feedback","","html-keyboard-response","376","579409","0.0-1.0-573.0-0.0","0","0","13459","","null","","","null","63","","","","","","","","","","","","","","","",""
"","ITI","","html-keyboard-response","377","580418","0.0-1.0-576.0","0","0","13459","","51","","","75","63","","","","","","","","","","","","","","","k",""
"","S1","","html-keyboard-response","378","580674","0.0-1.0-578.0","0","0","13459","","null","","","null","64","","","","","","","","","","","","","","","",""
"","ISI","","html-keyboard-response","379","581681","0.0-1.0-579.0","0","0","13459","","19","","","68","64","d","","","","","","","","","","","","","","",""
"","S2","","html-keyboard-response","380","581735","0.0-1.0-580.0","0","0","13459","","52","","","68","64","","d","2","64","training","adjacent","ED","5","4","R.jpg","P.jpg","0","0","1","",""
"","feedback","","html-keyboard-response","381","583259","0.0-1.0-582.0-0.0","0","0","13459","","null","","","null","64","","","","","","","","","","","","","","","",""
"","ITI","","html-keyboard-response","382","585251","0.0-1.0-585.0","0","0","13459","","null","","","null","64","","","","","","","","","","","","","","","NaN",""
"","S1","","html-keyboard-response","383","586251","0.0-1.0-587.0","0","0","13459","","null","","","null","65","","","","","","","","","","","","","","","",""
"","ISI","","html-keyboard-response","384","588250","0.0-1.0-588.0","0","0","13459","","null","","","null","65","NaN","","","","","","","","","","","","","","",""
"","S2","","html-keyboard-response","385","589252","0.0-1.0-589.0","0","0","13459","","null","","","null","65","","NaN","","","","","","","","","","","","","",""
"","response","","html-keyboard-response","386","590822","0.0-1.0-590.0-0.0","0","0","13459","","1569","","","75","65","","","2","65","training","adjacent","FG","6","7","L.jpg","Q.jpg","1","1","1","",""
"","feedback","","html-keyboard-response","387","591825","0.0-1.0-591.0-0.0","0","0","13459","","null","","","null","65","","","","","","","","","","","","","","","",""
"","ITI","","html-keyboard-response","388","592833","0.0-1.0-594.0","0","0","13459","","105","","","68","65","","","","","","","","","","","","","","","d",""
"","S1","","html-keyboard-response","389","593091","0.0-1.0-596.0","0","0","13459","","null","","","null","66","","","","","","","","","","","","","","","",""
"","ISI","","html-keyboard-response","390","594097","0.0-1.0-597.0","0","0","13459","","50","","","75","66","k","","","","","","","","","","","","","","",""
"","S2","","html-keyboard-response","391","594202","0.0-1.0-598.0","0","0","13459","","103","","","68","66","","d","2","66","training","adjacent","BC","2","3","M.jpg","N.jpg","0","1","0","",""
"","feedback","","html-keyboard-response","392","595208","0.0-1.0-600.0-0.0","0","0","13459","","null","","","null","66","","","","","","","","","","","","","","","",""
"","time_out","","html-keyboard-response","393","597218","0.0-1.0-602.0-0.0","0","0","13459","","null","","","null","66","","","","","","","","","","","","","","","",""
"","ITI","","html-keyboard-response","394","598224","0.0-1.0-603.0","0","0","13459","","33","","","75","66","","","","","","","","","","","","","","","k",""
"","S1","","html-keyboard-response","395","598481","0.0-1.0-605.0","0","0","13459","","null","","","null","67","","","","","","","","","","","","","","","",""
"","ISI","","html-keyboard-response","396","599511","0.0-1.0-606.0","0","0","13459","","129","","","75","67","k","","","","","","","","","","","","","","",""
"","S2","","html-keyboard-response","397","599572","0.0-1.0-607.0","0","0","13459","","59","","","75","67","","k","2","67","training","adjacent","FE","6","5","L.jpg","R.jpg","1","0","0","",""
"","feedback","","html-keyboard-response","398","600577","0.0-1.0-609.0-0.0","0","0","13459","","null","","","null","67","","","","","","","","","","","","","","","",""
"","time_out","","html-keyboard-response","399","602585","0.0-1.0-611.0-0.0","0","0","13459","","null","","","null","67","","","","","","","","","","","","","","","",""
"","ITI","","html-keyboard-response","400","603592","0.0-1.0-612.0","0","0","13459","","146","","","75","67","","","","","","","","","","","","","","","k",""
"","S1","","html-keyboard-response","401","603849","0.0-1.0-614.0","0","0","13459","","null","","","null","68","","","","","","","","","","","","","","","",""
"","ISI","","html-keyboard-response","402","604857","0.0-1.0-615.0","0","0","13459","","61","","","75","68","k","","","","","","","","","","","","","","",""
"","S2","","html-keyboard-response","403","605022","0.0-1.0-616.0","0","0","13459","","163","","","68","68","","d","2","68","training","adjacent","EF","5","6","R.jpg","L.jpg","0","1","0","",""
"","feedback","","html-keyboard-response","404","606025","0.0-1.0-618.0-0.0","0","0","13459","","null","","","null","68","","","","","","","","","","","","","","","",""
"","time_out","","html-keyboard-response","405","608033","0.0-1.0-620.0-0.0","0","0","13459","","null","","","null","68","","","","","","","","","","","","","","","",""
"","ITI","","html-keyboard-response","406","609041","0.0-1.0-621.0","0","0","13459","","309","","","68","68","","","","","","","","","","","","","","","d",""
"","S1","","html-keyboard-response","407","609296","0.0-1.0-623.0","0","0","13459","","null","","","null","69","","","","","","","","","","","","","","","",""
"","ISI","","html-keyboard-response","408","610305","0.0-1.0-624.0","0","0","13459","","14","","","68","69","d","","","","","","","","","","","","","","",""
"","S2","","html-keyboard-response","409","610532","0.0-1.0-625.0","0","0","13459","","225","","","75","69","","k","2","69","training","adjacent","EF","5","6","R.jpg","L.jpg","1","1","1","",""
"","feedback","","html-keyboard-response","410","611537","0.0-1.0-627.0-0.0","0","0","13459","","null","","","null","69","","","","","","","","","","","","","","","",""
"","ITI","","html-keyboard-response","411","612545","0.0-1.0-630.0","0","0","13459","","214","","","68","69","","","","","","","","","","","","","","","d",""
"","S1","","html-keyboard-response","412","612801","0.0-1.0-632.0","0","0","13459","","null","","","null","70","","","","","","","","","","","","","","","",""
"","ISI","","html-keyboard-response","413","613802","0.0-1.0-633.0","0","0","13459","","211","","","75","70","k","","","","","","","","","","","","","","",""
"","S2","","html-keyboard-response","414","614058","0.0-1.0-634.0","0","0","13459","","null","","","null","70","","NaN","","","","","","","","","","","","","",""
"","response","","html-keyboard-response","415","614222","0.0-1.0-635.0-0.0","0","0","13459","","162","","","68","70","","","2","70","training","adjacent","AB","1","2","O.jpg","M.jpg","0","1","0","",""
"","feedback","","html-keyboard-response","416","615225","0.0-1.0-636.0-0.0","0","0","13459","","null","","","null","70","","","","","","","","","","","","","","","",""
"","time_out","","html-keyboard-response","417","617236","0.0-1.0-638.0-0.0","0","0","13459","","null","","","null","70","","","","","","","","","","","","","","","",""
"","ITI","","html-keyboard-response","418","618291","0.0-1.0-639.0","0","0","13459","","115","","","75","70","","","","","","","","","","","","","","","k",""
"","S1","","html-keyboard-response","419","618545","0.0-1.0-641.0","0","0","13459","","null","","","null","71","","","","","","","","","","","","","","","",""
"","ISI","","html-keyboard-response","420","619552","0.0-1.0-642.0","0","0","13459","","45","","","68","71","d","","","","","","","","","","","","","","",""
"","S2","","html-keyboard-response","421","619562","0.0-1.0-643.0","0","0","13459","","8","","","68","71","","d","2","71","training","adjacent","BC","2","3","M.jpg","N.jpg","0","1","0","",""
"","feedback","","html-keyboard-response","422","620569","0.0-1.0-645.0-0.0","0","0","13459","","null","","","null","71","","","","","","","","","","","","","","","",""
"","time_out","","html-keyboard-response","423","622577","0.0-1.0-647.0-0.0","0","0","13459","","null","","","null","71","","","","","","","","","","","","","","","",""
"","ITI","","html-keyboard-response","424","623584","0.0-1.0-648.0","0","0","13459","","185","","","75","71","","","","","","","","","","","","","","","k",""
"","S1","","html-keyboard-response","425","623842","0.0-1.0-650.0","0","0","13459","","null","","","null","72","","","","","","","","","","","","","","","",""
"","ISI","","html-keyboard-response","426","624849","0.0-1.0-651.0","0","0","13459","","99","","","68","72","d","","","","","","","","","","","","","","",""
"","S2","","html-keyboard-response","427","624855","0.0-1.0-652.0","0","0","13459","","5","","","68","72","","d","2","72","training","adjacent","CB","3","2","N.jpg","M.jpg","0","0","1","",""
"","feedback","","html-keyboard-response","428","625857","0.0-1.0-654.0-0.0","0","0","13459","","null","","","null","72","","","","","","","","","","","","","","","",""
"","ITI","","html-keyboard-response","429","626865","0.0-1.0-657.0","0","0","13459","","63","","","68","72","","","","","","","","","","","","","","","d",""
"","S1","","html-keyboard-response","430","627121","0.0-1.0-659.0","0","0","13459","","null","","","null","73","","","","","","","","","","","","","","","",""
"","ISI","","html-keyboard-response","431","628129","0.0-1.0-660.0","0","0","13459","","179","","","75","73","k","","","","","","","","","","","","","","",""
"","S2","","html-keyboard-response","432","628152","0.0-1.0-661.0","0","0","13459","","22","","","68","73","","d","2","73","training","adjacent","BA","2","1","M.jpg","O.jpg","0","0","1","",""
"","feedback","","html-keyboard-response","433","629161","0.0-1.0-663.0-0.0","0","0","13459","","null","","","null","73","","","","","","","","","","","","","","","",""
"","ITI","","html-keyboard-response","434","630168","0.0-1.0-666.0","0","0","13459","","10","","","68","73","","","","","","","","","","","","","","","d",""
"","S1","","html-keyboard-response","435","630424","0.0-1.0-668.0","0","0","13459","","null","","","null","74","","","","","","","","","","","","","","","",""
"","ISI","","html-keyboard-response","436","631433","0.0-1.0-669.0","0","0","13459","","176","","","75","74","k","","","","","","","","","","","","","","",""
"","S2","","html-keyboard-response","437","631441","0.0-1.0-670.0","0","0","13459","","7","","","68","74","","d","2","74","training","adjacent","ED","5","4","R.jpg","P.jpg","0","0","1","",""
"","feedback","","html-keyboard-response","438","632448","0.0-1.0-672.0-0.0","0","0","13459","","null","","","null","74","","","","","","","","","","","","","","","",""
"","ITI","","html-keyboard-response","439","633455","0.0-1.0-675.0","0","0","13459","","242","","","75","74","","","","","","","","","","","","","","","k",""
"","S1","","html-keyboard-response","440","633712","0.0-1.0-677.0","0","0","13459","","null","","","null","75","","","","","","","","","","","","","","","",""
"","ISI","","html-keyboard-response","441","634720","0.0-1.0-678.0","0","0","13459","","359","","","68","75","d","","","","","","","","","","","","","","",""
"","S2","","html-keyboard-response","442","634731","0.0-1.0-679.0","0","0","13459","","9","","","68","75","","d","2","75","training","adjacent","AB","1","2","O.jpg","M.jpg","0","1","0","",""
"","feedback","","html-keyboard-response","443","635735","0.0-1.0-681.0-0.0","0","0","13459","","null","","","null","75","","","","","","","","","","","","","","","",""
"","time_out","","html-keyboard-response","444","637808","0.0-1.0-683.0-0.0","0","0","13459","","null","","","null","75","","","","","","","","","","","","","","","",""
"","ITI","","html-keyboard-response","445","638816","0.0-1.0-684.0","0","0","13459","","2","","","75","75","","","","","","","","","","","","","","","k",""
"","S1","","html-keyboard-response","446","639128","0.0-1.0-686.0","0","0","13459","","null","","","null","76","","","","","","","","","","","","","","","",""
"","ISI","","html-keyboard-response","447","640137","0.0-1.0-687.0","0","0","13459","","52","","","68","76","d","","","","","","","","","","","","","","",""
"","S2","","html-keyboard-response","448","640393","0.0-1.0-688.0","0","0","13459","","null","","","null","76","","NaN","","","","","","","","","","","","","",""
"","response","","html-keyboard-response","449","640411","0.0-1.0-689.0-0.0","0","0","13459","","16","","","75","76","","","2","76","training","adjacent","CD","3","4","N.jpg","P.jpg","1","1","1","",""
"","feedback","","html-keyboard-response","450","641416","0.0-1.0-690.0-0.0","0","0","13459","","null","","","null","76","","","","","","","","","","","","","","","",""
"","ITI","","html-keyboard-response","451","642425","0.0-1.0-693.0","0","0","13459","","173","","","68","76","","","","","","","","","","","","","","","d",""
"","S1","","html-keyboard-response","452","642680","0.0-1.0-695.0","0","0","13459","","null","","","null","77","","","","","","","","","","","","","","","",""
"","ISI","","html-keyboard-response","453","643688","0.0-1.0-696.0","0","0","13459","","51","","","68","77","d","","","","","","","","","","","","","","",""
"","S2","","html-keyboard-response","454","643781","0.0-1.0-697.0","0","0","13459","","93","","","68","77","","d","2","77","training","adjacent","GF","7","6","Q.jpg","L.jpg","0","0","1","",""
"","feedback","","html-keyboard-response","455","644784","0.0-1.0-699.0-0.0","0","0","13459","","null","","","null","77","","","","","","","","","","","","","","","",""
"","ITI","","html-keyboard-response","456","645791","0.0-1.0-702.0","0","0","13459","","7","","","75","77","","","","","","","","","","","","","","","k",""
"","S1","","html-keyboard-response","457","646048","0.0-1.0-704.0","0","0","13459","","null","","","null","78","","","","","","","","","","","","","","","",""
"","ISI","","html-keyboard-response","458","647057","0.0-1.0-705.0","0","0","13459","","81","","","75","78","k","","","","","","","","","","","","","","",""
"","S2","","html-keyboard-response","459","647241","0.0-1.0-706.0","0","0","13459","","183","","","75","78","","k","2","78","training","adjacent","BC","2","3","M.jpg","N.jpg","1","1","1","",""
"","feedback","","html-keyboard-response","460","648247","0.0-1.0-708.0-0.0","0","0","13459","","null","","","null","78","","","","","","","","","","","","","","","",""
"","ITI","","html-keyboard-response","461","649256","0.0-1.0-711.0","0","0","13459","","42","","","68","78","","","","","","","","","","","","","","","d",""
"","S1","","html-keyboard-response","462","649512","0.0-1.0-713.0","0","0","13459","","null","","","null","79","","","","","","","","","","","","","","","",""
"","ISI","","html-keyboard-response","463","650520","0.0-1.0-714.0","0","0","13459","","21","","","68","79","d","","","","","","","","","","","","","","",""
"","S2","","html-keyboard-response","464","650551","0.0-1.0-715.0","0","0","13459","","29","","","68","79","","d","2","79","training","adjacent","BC","2","3","M.jpg","N.jpg","0","1","0","",""
"","feedback","","html-keyboard-response","465","651560","0.0-1.0-717.0-0.0","0","0","13459","","null","","","null","79","","","","","","","","","","","","","","","",""
"","time_out","","html-keyboard-response","466","653568","0.0-1.0-719.0-0.0","0","0","13459","","null","","","null","79","","","","","","","","","","","","","","","",""
"","ITI","","html-keyboard-response","467","654576","0.0-1.0-720.0","0","0","13459","","811","","","68","79","","","","","","","","","","","","","","","d",""
"","S1","","html-keyboard-response","468","654832","0.0-1.0-722.0","0","0","13459","","null","","","null","80","","","","","","","","","","","","","","","",""
"","ISI","","html-keyboard-response","469","655840","0.0-1.0-723.0","0","0","13459","","null","","","null","80","NaN","","","","","","","","","","","","","","",""
"","S2","","html-keyboard-response","470","655860","0.0-1.0-724.0","0","0","13459","","20","","","75","80","","k","2","80","training","adjacent","FE","6","5","L.jpg","R.jpg","1","0","0","",""
"","feedback","","html-keyboard-response","471","656865","0.0-1.0-726.0-0.0","0","0","13459","","null","","","null","80","","","","","","","","","","","","","","","",""
"","time_out","","html-keyboard-response","472","658873","0.0-1.0-728.0-0.0","0","0","13459","","null","","","null","80","","","","","","","","","","","","","","","",""
"","ITI","","html-keyboard-response","473","659881","0.0-1.0-729.0","0","0","13459","","108","","","75","80","","","","","","","","","","","","","","","k",""
"","S1","","html-keyboard-response","474","660137","0.0-1.0-731.0","0","0","13459","","null","","","null","81","","","","","","","","","","","","","","","",""
"","ISI","","html-keyboard-response","475","661141","0.0-1.0-732.0","0","0","13459","","4","","","75","81","k","","","","","","","","","","","","","","",""
"","S2","","html-keyboard-response","476","661200","0.0-1.0-733.0","0","0","13459","","58","","","68","81","","d","2","81","training","adjacent","FG","6","7","L.jpg","Q.jpg","0","1","0","",""
"","feedback","","html-keyboard-response","477","662237","0.0-1.0-735.0-0.0","0","0","13459","","null","","","null","81","","","","","","","","","","","","","","","",""
"","time_out","","html-keyboard-response","478","664241","0.0-1.0-737.0-0.0","0","0","13459","","null","","","null","81","","","","","","","","","","","","","","","",""
"","ITI","","html-keyboard-response","479","665248","0.0-1.0-738.0","0","0","13459","","90","","","68","81","","","","","","","","","","","","","","","d",""
"","S1","","html-keyboard-response","480","665505","0.0-1.0-740.0","0","0","13459","","null","","","null","82","","","","","","","","","","","","","","","",""
"","ISI","","html-keyboard-response","481","666512","0.0-1.0-741.0","0","0","13459","","116","","","68","82","d","","","","","","","","","","","","","","",""
"","S2","","html-keyboard-response","482","666531","0.0-1.0-742.0","0","0","13459","","18","","","75","82","","k","2","82","training","adjacent","CB","3","2","N.jpg","M.jpg","1","0","0","",""
"","feedback","","html-keyboard-response","483","667542","0.0-1.0-744.0-0.0","0","0","13459","","null","","","null","82","","","","","","","","","","","","","","","",""
"","time_out","","html-keyboard-response","484","669545","0.0-1.0-746.0-0.0","0","0","13459","","null","","","null","82","","","","","","","","","","","","","","","",""
"","ITI","","html-keyboard-response","485","670552","0.0-1.0-747.0","0","0","13459","","155","","","75","82","","","","","","","","","","","","","","","k",""
"","S1","","html-keyboard-response","486","670808","0.0-1.0-749.0","0","0","13459","","null","","","null","83","","","","","","","","","","","","","","","",""
"","ISI","","html-keyboard-response","487","671815","0.0-1.0-750.0","0","0","13459","","252","","","75","83","k","","","","","","","","","","","","","","",""
"","S2","","html-keyboard-response","488","671901","0.0-1.0-751.0","0","0","13459","","85","","","68","83","","d","2","83","training","adjacent","DC","4","3","P.jpg","N.jpg","0","0","1","",""
"","feedback","","html-keyboard-response","489","672904","0.0-1.0-753.0-0.0","0","0","13459","","null","","","null","83","","","","","","","","","","","","","","","",""
"","ITI","","html-keyboard-response","490","673912","0.0-1.0-756.0","0","0","13459","","76","","","75","83","","","","","","","","","","","","","","","k",""
"","S1","","html-keyboard-response","491","674169","0.0-1.0-758.0","0","0","13459","","null","","","null","84","","","","","","","","","","","","","","","",""
"","ISI","","html-keyboard-response","492","675176","0.0-1.0-759.0","0","0","13459","","131","","","75","84","k","","","","","","","","","","","","","","",""
"","S2","","html-keyboard-response","493","675261","0.0-1.0-760.0","0","0","13459","","83","","","75","84","","k","2","84","training","adjacent","CD","3","4","N.jpg","P.jpg","1","1","1","",""
"","feedback","","html-keyboard-response","494","676264","0.0-1.0-762.0-0.0","0","0","13459","","null","","","null","84","","","","","","","","","","","","","","","",""
"","ITI","","html-keyboard-response","495","677272","0.0-1.0-765.0","0","0","13459","","327","","","68","84","","","","","","","","","","","","","","","d",""
"","S1","","html-keyboard-response","496","677528","0.0-1.0-767.0","0","0","13459","","null","","","null","85","","","","","","","","","","","","","","","",""
"","ISI","","html-keyboard-response","497","678536","0.0-1.0-768.0","0","0","13459","","41","","","75","85","k","","","","","","","","","","","","","","",""
"","S2","","html-keyboard-response","498","678781","0.0-1.0-769.0","0","0","13459","","242","","","68","85","","d","2","85","training","adjacent","ED","5","4","R.jpg","P.jpg","0","0","1","",""
"","feedback","","html-keyboard-response","499","679785","0.0-1.0-771.0-0.0","0","0","13459","","null","","","null","85","","","","","","","","","","","","","","","",""
"","ITI","","html-keyboard-response","500","680792","0.0-1.0-774.0","0","0","13459","","225","","","68","85","","","","","","","","","","","","","","","d",""
"","S1","","html-keyboard-response","501","681066","0.0-1.0-776.0","0","0","13459","","null","","","null","86","","","","","","","","","","","","","","","",""
"","ISI","","html-keyboard-response","502","682072","0.0-1.0-777.0","0","0","13459","","40","","","68","86","d","","","","","","","","","","","","","","",""
"","S2","","html-keyboard-response","503","682111","0.0-1.0-778.0","0","0","13459","","35","","","68","86","","d","2","86","training","adjacent","GF","7","6","Q.jpg","L.jpg","0","0","1","",""
"","feedback","","html-keyboard-response","504","683119","0.0-1.0-780.0-0.0","0","0","13459","","null","","","null","86","","","","","","","","","","","","","","","",""
"","ITI","","html-keyboard-response","505","684128","0.0-1.0-783.0","0","0","13459","","603","","","68","86","","","","","","","","","","","","","","","d",""
"","S1","","html-keyboard-response","506","684383","0.0-1.0-785.0","0","0","13459","","null","","","null","87","","","","","","","","","","","","","","","",""
"","ISI","","html-keyboard-response","507","685393","0.0-1.0-786.0","0","0","13459","","102","","","75","87","k","","","","","","","","","","","","","","",""
"","S2","","html-keyboard-response","508","685457","0.0-1.0-787.0","0","0","13459","","63","","","75","87","","k","2","87","training","adjacent","CD","3","4","N.jpg","P.jpg","1","1","1","",""
"","feedback","","html-keyboard-response","509","686463","0.0-1.0-789.0-0.0","0","0","13459","","null","","","null","87","","","","","","","","","","","","","","","",""
"","ITI","","html-keyboard-response","510","687472","0.0-1.0-792.0","0","0","13459","","42","","","75","87","","","","","","","","","","","","","","","k",""
"","S1","","html-keyboard-response","511","687728","0.0-1.0-794.0","0","0","13459","","null","","","null","88","","","","","","","","","","","","","","","",""
"","ISI","","html-keyboard-response","512","688736","0.0-1.0-795.0","0","0","13459","","46","","","75","88","k","","","","","","","","","","","","","","",""
"","S2","","html-keyboard-response","513","688776","0.0-1.0-796.0","0","0","13459","","35","","","68","88","","d","2","88","training","adjacent","FE","6","5","L.jpg","R.jpg","0","0","1","",""
"","feedback","","html-keyboard-response","514","689783","0.0-1.0-798.0-0.0","0","0","13459","","null","","","null","88","","","","","","","","","","","","","","","",""
"","ITI","","html-keyboard-response","515","690792","0.0-1.0-801.0","0","0","13459","","3","","","75","88","","","","","","","","","","","","","","","k",""
"","S1","","html-keyboard-response","516","691049","0.0-1.0-803.0","0","0","13459","","null","","","null","89","","","","","","","","","","","","","","","",""
"","ISI","","html-keyboard-response","517","692070","0.0-1.0-804.0","0","0","13459","","6","","","68","89","d","","","","","","","","","","","","","","",""
"","S2","","html-keyboard-response","518","692126","0.0-1.0-805.0","0","0","13459","","54","","","75","89","","k","2","89","training","adjacent","EF","5","6","R.jpg","L.jpg","1","1","1","",""
"","feedback","","html-keyboard-response","519","693130","0.0-1.0-807.0-0.0","0","0","13459","","null","","","null","89","","","","","","","","","","","","","","","",""
"","ITI","","html-keyboard-response","520","694144","0.0-1.0-810.0","0","0","13459","","156","","","68","89","","","","","","","","","","","","","","","d",""
"","S1","","html-keyboard-response","521","694401","0.0-1.0-812.0","0","0","13459","","null","","","null","90","","","","","","","","","","","","","","","",""
"","ISI","","html-keyboard-response","522","695409","0.0-1.0-813.0","0","0","13459","","33","","","75","90","k","","","","","","","","","","","","","","",""
"","S2","","html-keyboard-response","523","695546","0.0-1.0-814.0","0","0","13459","","137","","","68","90","","d","2","90","training","adjacent","CB","3","2","N.jpg","M.jpg","0","0","1","",""
"","feedback","","html-keyboard-response","524","696552","0.0-1.0-816.0-0.0","0","0","13459","","null","","","null","90","","","","","","","","","","","","","","","",""
"","ITI","","html-keyboard-response","525","697561","0.0-1.0-819.0","0","0","13459","","147","","","68","90","","","","","","","","","","","","","","","d",""
"","S1","","html-keyboard-response","526","697816","0.0-1.0-821.0","0","0","13459","","null","","","null","91","","","","","","","","","","","","","","","",""
"","ISI","","html-keyboard-response","527","698829","0.0-1.0-822.0","0","0","13459","","50","","","75","91","k","","","","","","","","","","","","","","",""
"","S2","","html-keyboard-response","528","698871","0.0-1.0-823.0","0","0","13459","","40","","","75","91","","k","2","91","training","adjacent","FG","6","7","L.jpg","Q.jpg","1","1","1","",""
"","feedback","","html-keyboard-response","529","699873","0.0-1.0-825.0-0.0","0","0","13459","","null","","","null","91","","","","","","","","","","","","","","","",""
"","ITI","","html-keyboard-response","530","700881","0.0-1.0-828.0","0","0","13459","","3","","","75","91","","","","","","","","","","","","","","","k",""
"","S1","","html-keyboard-response","531","701136","0.0-1.0-830.0","0","0","13459","","null","","","null","92","","","","","","","","","","","","","","","",""
"","ISI","","html-keyboard-response","532","702155","0.0-1.0-831.0","0","0","13459","","20","","","75","92","k","","","","","","","","","","","","","","",""
"","S2","","html-keyboard-response","533","702199","0.0-1.0-832.0","0","0","13459","","41","","","75","92","","k","2","92","training","adjacent","AB","1","2","O.jpg","M.jpg","1","1","1","",""
"","feedback","","html-keyboard-response","534","703200","0.0-1.0-834.0-0.0","0","0","13459","","null","","","null","92","","","","","","","","","","","","","","","",""
"","ITI","","html-keyboard-response","535","704203","0.0-1.0-837.0","0","0","13459","","95","","","75","92","","","","","","","","","","","","","","","k",""
"","S1","","html-keyboard-response","536","704458","0.0-1.0-839.0","0","0","13459","","null","","","null","93","","","","","","","","","","","","","","","",""
"","ISI","","html-keyboard-response","537","705465","0.0-1.0-840.0","0","0","13459","","349","","","75","93","k","","","","","","","","","","","","","","",""
"","S2","","html-keyboard-response","538","705527","0.0-1.0-841.0","0","0","13459","","61","","","75","93","","k","2","93","training","adjacent","GF","7","6","Q.jpg","L.jpg","1","0","0","",""
"","feedback","","html-keyboard-response","539","706529","0.0-1.0-843.0-0.0","0","0","13459","","null","","","null","93","","","","","","","","","","","","","","","",""
"","time_out","","html-keyboard-response","540","708536","0.0-1.0-845.0-0.0","0","0","13459","","null","","","null","93","","","","","","","","","","","","","","","",""
"","ITI","","html-keyboard-response","541","709545","0.0-1.0-846.0","0","0","13459","","99","","","68","93","","","","","","","","","","","","","","","d",""
"","S1","","html-keyboard-response","542","709838","0.0-1.0-848.0","0","0","13459","","null","","","null","94","","","","","","","","","","","","","","","",""
"","ISI","","html-keyboard-response","543","710840","0.0-1.0-849.0","0","0","13459","","8","","","75","94","k","","","","","","","","","","","","","","",""
"","S2","","html-keyboard-response","544","710976","0.0-1.0-850.0","0","0","13459","","134","","","68","94","","d","2","94","training","adjacent","FG","6","7","L.jpg","Q.jpg","0","1","0","",""
"","feedback","","html-keyboard-response","545","711978","0.0-1.0-852.0-0.0","0","0","13459","","null","","","null","94","","","","","","","","","","","","","","","",""
"","time_out","","html-keyboard-response","546","713986","0.0-1.0-854.0-0.0","0","0","13459","","null","","","null","94","","","","","","","","","","","","","","","",""
"","ITI","","html-keyboard-response","547","714992","0.0-1.0-855.0","0","0","13459","","184","","","68","94","","","","","","","","","","","","","","","d",""
"","S1","","html-keyboard-response","548","715248","0.0-1.0-857.0","0","0","13459","","null","","","null","95","","","","","","","","","","","","","","","",""
"","ISI","","html-keyboard-response","549","716256","0.0-1.0-858.0","0","0","13459","","88","","","68","95","d","","","","","","","","","","","","","","",""
"","S2","","html-keyboard-response","550","716347","0.0-1.0-859.0","0","0","13459","","90","","","68","95","","d","2","95","training","adjacent","DC","4","3","P.jpg","N.jpg","0","0","1","",""
"","feedback","","html-keyboard-response","551","717352","0.0-1.0-861.0-0.0","0","0","13459","","null","","","null","95","","","","","","","","","","","","","","","",""
"","ITI","","html-keyboard-response","552","718363","0.0-1.0-864.0","0","0","13459","","22","","","68","95","","","","","","","","","","","","","","","d",""
"","block_over","","html-keyboard-response","553","818351","0.0-1.0-865.0-0.0","0","0","13459","","99973","","","32","95","","","","","","","","","","","","","","","",""
"","S1","","html-keyboard-response","554","818609","0.0-1.0-866.0","0","0","13459","","null","","","null","96","","","","","","","","","","","","","","","",""
"","ISI","","html-keyboard-response","555","819627","0.0-1.0-867.0","0","0","13459","","382","","","68","96","d","","","","","","","","","","","","","","",""
"","S2","","html-keyboard-response","556","819772","0.0-1.0-868.0","0","0","13459","","144","","","75","96","","k","3","96","training","adjacent","FE","6","5","L.jpg","R.jpg","1","0","0","",""
"","feedback","","html-keyboard-response","557","820779","0.0-1.0-870.0-0.0","0","0","13459","","null","","","null","96","","","","","","","","","","","","","","","",""
"","time_out","","html-keyboard-response","558","822782","0.0-1.0-872.0-0.0","0","0","13459","","null","","","null","96","","","","","","","","","","","","","","","",""
"","ITI","","html-keyboard-response","559","823784","0.0-1.0-873.0","0","0","13459","","78","","","68","96","","","","","","","","","","","","","","","d",""
"","S1","","html-keyboard-response","560","824041","0.0-1.0-875.0","0","0","13459","","null","","","null","97","","","","","","","","","","","","","","","",""
"","ISI","","html-keyboard-response","561","825050","0.0-1.0-876.0","0","0","13459","","207","","","68","97","d","","","","","","","","","","","","","","",""
"","S2","","html-keyboard-response","562","825122","0.0-1.0-877.0","0","0","13459","","70","","","68","97","","d","3","97","training","adjacent","BC","2","3","M.jpg","N.jpg","0","1","0","",""
"","feedback","","html-keyboard-response","563","826130","0.0-1.0-879.0-0.0","0","0","13459","","null","","","null","97","","","","","","","","","","","","","","","",""
"","time_out","","html-keyboard-response","564","828131","0.0-1.0-881.0-0.0","0","0","13459","","null","","","null","97","","","","","","","","","","","","","","","",""
"","ITI","","html-keyboard-response","565","829136","0.0-1.0-882.0","0","0","13459","","199","","","68","97","","","","","","","","","","","","","","","d",""
"","S1","","html-keyboard-response","566","829392","0.0-1.0-884.0","0","0","13459","","null","","","null","98","","","","","","","","","","","","","","","",""
"","ISI","","html-keyboard-response","567","830402","0.0-1.0-885.0","0","0","13459","","78","","","68","98","d","","","","","","","","","","","","","","",""
"","S2","","html-keyboard-response","568","830522","0.0-1.0-886.0","0","0","13459","","120","","","68","98","","d","3","98","training","adjacent","BC","2","3","M.jpg","N.jpg","0","1","0","",""
"","feedback","","html-keyboard-response","569","831528","0.0-1.0-888.0-0.0","0","0","13459","","null","","","null","98","","","","","","","","","","","","","","","",""
"","time_out","","html-keyboard-response","570","833536","0.0-1.0-890.0-0.0","0","0","13459","","null","","","null","98","","","","","","","","","","","","","","","",""
"","ITI","","html-keyboard-response","571","834538","0.0-1.0-891.0","0","0","13459","","104","","","75","98","","","","","","","","","","","","","","","k",""
"","S1","","html-keyboard-response","572","834793","0.0-1.0-893.0","0","0","13459","","null","","","null","99","","","","","","","","","","","","","","","",""
"","ISI","","html-keyboard-response","573","835802","0.0-1.0-894.0","0","0","13459","","96","","","75","99","k","","","","","","","","","","","","","","",""
"","S2","","html-keyboard-response","574","835804","0.0-1.0-895.0","0","0","13459","","0","","","75","99","","k","3","99","training","adjacent","EF","5","6","R.jpg","L.jpg","1","1","1","",""
"","feedback","","html-keyboard-response","575","836808","0.0-1.0-897.0-0.0","0","0","13459","","null","","","null","99","","","","","","","","","","","","","","","",""
"","ITI","","html-keyboard-response","576","837811","0.0-1.0-900.0","0","0","13459","","120","","","68","99","","","","","","","","","","","","","","","d",""
"","S1","","html-keyboard-response","577","838064","0.0-1.0-902.0","0","0","13459","","null","","","null","100","","","","","","","","","","","","","","","",""
"","ISI","","html-keyboard-response","578","839086","0.0-1.0-903.0","0","0","13459","","157","","","75","100","k","","","","","","","","","","","","","","",""
"","S2","","html-keyboard-response","579","839100","0.0-1.0-904.0","0","0","13459","","10","","","68","100","","d","3","100","training","adjacent","DE","4","5","P.jpg","R.jpg","0","1","0","",""
"","feedback","","html-keyboard-response","580","840106","0.0-1.0-906.0-0.0","0","0","13459","","null","","","null","100","","","","","","","","","","","","","","","",""
"","time_out","","html-keyboard-response","581","842131","0.0-1.0-908.0-0.0","0","0","13459","","null","","","null","100","","","","","","","","","","","","","","","",""
"","ITI","","html-keyboard-response","582","843137","0.0-1.0-909.0","0","0","13459","","200","","","75","100","","","","","","","","","","","","","","","k",""
"","S1","","html-keyboard-response","583","843392","0.0-1.0-911.0","0","0","13459","","null","","","null","101","","","","","","","","","","","","","","","",""
"","ISI","","html-keyboard-response","584","844400","0.0-1.0-912.0","0","0","13459","","157","","","75","101","k","","","","","","","","","","","","","","",""
