"success","ttype","start_time","trial_type","trial_index","time_elapsed","internal_node_id","warning","missed_checkup","PID","view_history","rt","responses","repeat_instructions","key_press","index","keypress_isi","keypress_S2","block","trial_num","phase","group_type","pair_type","S1_stim","S2_stim","S1_img","S2_img","S1_chosen","S1_higher","accuracy","keypress_iti","total_bonus_tally"
"true","full_screen","d03072023hr2037","fullscreen","0","32429","0.0-0.0","0","0","41119","","","","","","","","","","","","","","","","","","","","","",""
"","instructions","","instructions","1","136611","0.0-1.0-0.0-0.0","0","0","41119","[{""page_index"":0,""viewing_time"":15944},{""page_index"":1,""viewing_time"":41385},{""page_index"":2,""viewing_time"":42902},{""page_index"":3,""viewing_time"":3942}]","104177","","","","","","","","","","","","","","","","","","","",""
"","comprehension_check","","survey-multi-choice","2","174215","0.0-1.0-0.0-1.0","0","0","41119","","37591","{""Q0"":""True"",""Q1"":""K"",""Q2"":""Once the second image appears and while the screen 'MAKE A CHOICE' is shown"",""Q3"":""Green mark"",""Q4"":""either D or K""}","0","","","","","","","","","","","","","","","","","",""
"","start_exp","","html-keyboard-response","3","177642","0.0-1.0-1.0","0","0","41119","","3418","","","32","","","","","","","","","","","","","","","","",""
"","S1","","html-keyboard-response","4","177901","0.0-1.0-2.0","0","0","41119","","null","","","null","0","","","","","","","","","","","","","","","",""
"","ISI","","html-keyboard-response","5","178908","0.0-1.0-3.0","0","0","41119","","null","","","null","0","NaN","","","","","","","","","","","","","","",""
"","S2","","html-keyboard-response","6","179168","0.0-1.0-4.0","0","0","41119","","null","","","null","0","","NaN","","","","","","","","","","","","","",""
"","response","","html-keyboard-response","7","180152","0.0-1.0-5.0-0.0","0","0","41119","","980","","","75","0","","","1","0","training","adjacent","CB","3","2","R.jpg","M.jpg","1","0","0","",""
"","feedback","","html-keyboard-response","8","181161","0.0-1.0-6.0-0.0","0","0","41119","","null","","","null","0","","","","","","","","","","","","","","","",""
"","time_out","","html-keyboard-response","9","183173","0.0-1.0-8.0-0.0","0","0","41119","","null","","","null","0","","","","","","","","","","","","","","","",""
"","ITI","","html-keyboard-response","10","184179","0.0-1.0-9.0","0","0","41119","","null","","","null","0","","","","","","","","","","","","","","","NaN",""
"","S1","","html-keyboard-response","11","184434","0.0-1.0-11.0","0","0","41119","","null","","","null","1","","","","","","","","","","","","","","","",""
"","ISI","","html-keyboard-response","12","185439","0.0-1.0-12.0","0","0","41119","","null","","","null","1","NaN","","","","","","","","","","","","","","",""
"","S2","","html-keyboard-response","13","185699","0.0-1.0-13.0","0","0","41119","","null","","","null","1","","NaN","","","","","","","","","","","","","",""
"","response","","html-keyboard-response","14","186186","0.0-1.0-14.0-0.0","0","0","41119","","483","","","75","1","","","1","1","training","adjacent","EF","5","6","N.jpg","Q.jpg","1","1","1","",""
"","feedback","","html-keyboard-response","15","187199","0.0-1.0-15.0-0.0","0","0","41119","","null","","","null","1","","","","","","","","","","","","","","","",""
"","ITI","","html-keyboard-response","16","188206","0.0-1.0-18.0","0","0","41119","","null","","","null","1","","","","","","","","","","","","","","","NaN",""
"","S1","","html-keyboard-response","17","188462","0.0-1.0-20.0","0","0","41119","","null","","","null","2","","","","","","","","","","","","","","","",""
"","ISI","","html-keyboard-response","18","189474","0.0-1.0-21.0","0","0","41119","","null","","","null","2","NaN","","","","","","","","","","","","","","",""
"","S2","","html-keyboard-response","19","189732","0.0-1.0-22.0","0","0","41119","","null","","","null","2","","NaN","","","","","","","","","","","","","",""
"","response","","html-keyboard-response","20","190183","0.0-1.0-23.0-0.0","0","0","41119","","447","","","75","2","","","1","2","training","adjacent","DE","4","5","P.jpg","N.jpg","1","1","1","",""
"","feedback","","html-keyboard-response","21","191205","0.0-1.0-24.0-0.0","0","0","41119","","null","","","null","2","","","","","","","","","","","","","","","",""
"","ITI","","html-keyboard-response","22","192218","0.0-1.0-27.0","0","0","41119","","null","","","null","2","","","","","","","","","","","","","","","NaN",""
"","S1","","html-keyboard-response","23","192477","0.0-1.0-29.0","0","0","41119","","null","","","null","3","","","","","","","","","","","","","","","",""
"","ISI","","html-keyboard-response","24","193489","0.0-1.0-30.0","0","0","41119","","null","","","null","3","NaN","","","","","","","","","","","","","","",""
"","S2","","html-keyboard-response","25","193753","0.0-1.0-31.0","0","0","41119","","null","","","null","3","","NaN","","","","","","","","","","","","","",""
"","response","","html-keyboard-response","26","193964","0.0-1.0-32.0-0.0","0","0","41119","","206","","","75","3","","","1","3","training","adjacent","CD","3","4","R.jpg","P.jpg","1","1","1","",""
"","feedback","","html-keyboard-response","27","194975","0.0-1.0-33.0-0.0","0","0","41119","","null","","","null","3","","","","","","","","","","","","","","","",""
"","ITI","","html-keyboard-response","28","195986","0.0-1.0-36.0","0","0","41119","","null","","","null","3","","","","","","","","","","","","","","","NaN",""
"","S1","","html-keyboard-response","29","196247","0.0-1.0-38.0","0","0","41119","","null","","","null","4","","","","","","","","","","","","","","","",""
"","ISI","","html-keyboard-response","30","197255","0.0-1.0-39.0","0","0","41119","","null","","","null","4","NaN","","","","","","","","","","","","","","",""
"","S2","","html-keyboard-response","31","197512","0.0-1.0-40.0","0","0","41119","","null","","","null","4","","NaN","","","","","","","","","","","","","",""
"","response","","html-keyboard-response","32","198090","0.0-1.0-41.0-0.0","0","0","41119","","574","","","68","4","","","1","4","training","adjacent","FG","6","7","Q.jpg","L.jpg","0","1","0","",""
"","feedback","","html-keyboard-response","33","199100","0.0-1.0-42.0-0.0","0","0","41119","","null","","","null","4","","","","","","","","","","","","","","","",""
"","time_out","","html-keyboard-response","34","201118","0.0-1.0-44.0-0.0","0","0","41119","","null","","","null","4","","","","","","","","","","","","","","","",""
"","ITI","","html-keyboard-response","35","202122","0.0-1.0-45.0","0","0","41119","","null","","","null","4","","","","","","","","","","","","","","","NaN",""
"","S1","","html-keyboard-response","36","202379","0.0-1.0-47.0","0","0","41119","","null","","","null","5","","","","","","","","","","","","","","","",""
"","ISI","","html-keyboard-response","37","203382","0.0-1.0-48.0","0","0","41119","","null","","","null","5","NaN","","","","","","","","","","","","","","",""
"","S2","","html-keyboard-response","38","203643","0.0-1.0-49.0","0","0","41119","","null","","","null","5","","NaN","","","","","","","","","","","","","",""
"","response","","html-keyboard-response","39","203953","0.0-1.0-50.0-0.0","0","0","41119","","306","","","75","5","","","1","5","training","adjacent","FG","6","7","Q.jpg","L.jpg","1","1","1","",""
"","feedback","","html-keyboard-response","40","204962","0.0-1.0-51.0-0.0","0","0","41119","","null","","","null","5","","","","","","","","","","","","","","","",""
"","ITI","","html-keyboard-response","41","205975","0.0-1.0-54.0","0","0","41119","","null","","","null","5","","","","","","","","","","","","","","","NaN",""
"","S1","","html-keyboard-response","42","206232","0.0-1.0-56.0","0","0","41119","","null","","","null","6","","","","","","","","","","","","","","","",""
"","ISI","","html-keyboard-response","43","207242","0.0-1.0-57.0","0","0","41119","","null","","","null","6","NaN","","","","","","","","","","","","","","",""
"","S2","","html-keyboard-response","44","207501","0.0-1.0-58.0","0","0","41119","","null","","","null","6","","NaN","","","","","","","","","","","","","",""
"","response","","html-keyboard-response","45","207970","0.0-1.0-59.0-0.0","0","0","41119","","465","","","75","6","","","1","6","training","adjacent","CB","3","2","R.jpg","M.jpg","1","0","0","",""
"","feedback","","html-keyboard-response","46","208979","0.0-1.0-60.0-0.0","0","0","41119","","null","","","null","6","","","","","","","","","","","","","","","",""
"","time_out","","html-keyboard-response","47","210996","0.0-1.0-62.0-0.0","0","0","41119","","null","","","null","6","","","","","","","","","","","","","","","",""
"","ITI","","html-keyboard-response","48","212002","0.0-1.0-63.0","0","0","41119","","null","","","null","6","","","","","","","","","","","","","","","NaN",""
"","S1","","html-keyboard-response","49","212262","0.0-1.0-65.0","0","0","41119","","null","","","null","7","","","","","","","","","","","","","","","",""
"","ISI","","html-keyboard-response","50","213272","0.0-1.0-66.0","0","0","41119","","null","","","null","7","NaN","","","","","","","","","","","","","","",""
"","S2","","html-keyboard-response","51","213529","0.0-1.0-67.0","0","0","41119","","null","","","null","7","","NaN","","","","","","","","","","","","","",""
"","response","","html-keyboard-response","52","213851","0.0-1.0-68.0-0.0","0","0","41119","","318","","","68","7","","","1","7","training","adjacent","BC","2","3","M.jpg","R.jpg","0","1","0","",""
"","feedback","","html-keyboard-response","53","214856","0.0-1.0-69.0-0.0","0","0","41119","","null","","","null","7","","","","","","","","","","","","","","","",""
"","time_out","","html-keyboard-response","54","216875","0.0-1.0-71.0-0.0","0","0","41119","","null","","","null","7","","","","","","","","","","","","","","","",""
"","ITI","","html-keyboard-response","55","217883","0.0-1.0-72.0","0","0","41119","","null","","","null","7","","","","","","","","","","","","","","","NaN",""
"","S1","","html-keyboard-response","56","218144","0.0-1.0-74.0","0","0","41119","","null","","","null","8","","","","","","","","","","","","","","","",""
"","ISI","","html-keyboard-response","57","219161","0.0-1.0-75.0","0","0","41119","","null","","","null","8","NaN","","","","","","","","","","","","","","",""
"","S2","","html-keyboard-response","58","219422","0.0-1.0-76.0","0","0","41119","","null","","","null","8","","NaN","","","","","","","","","","","","","",""
"","response","","html-keyboard-response","59","219806","0.0-1.0-77.0-0.0","0","0","41119","","381","","","75","8","","","1","8","training","adjacent","DC","4","3","P.jpg","R.jpg","1","0","0","",""
"","feedback","","html-keyboard-response","60","220816","0.0-1.0-78.0-0.0","0","0","41119","","null","","","null","8","","","","","","","","","","","","","","","",""
"","time_out","","html-keyboard-response","61","222827","0.0-1.0-80.0-0.0","0","0","41119","","null","","","null","8","","","","","","","","","","","","","","","",""
"","ITI","","html-keyboard-response","62","223834","0.0-1.0-81.0","0","0","41119","","null","","","null","8","","","","","","","","","","","","","","","NaN",""
"","S1","","html-keyboard-response","63","224089","0.0-1.0-83.0","0","0","41119","","null","","","null","9","","","","","","","","","","","","","","","",""
"","ISI","","html-keyboard-response","64","225103","0.0-1.0-84.0","0","0","41119","","null","","","null","9","NaN","","","","","","","","","","","","","","",""
"","S2","","html-keyboard-response","65","225362","0.0-1.0-85.0","0","0","41119","","null","","","null","9","","NaN","","","","","","","","","","","","","",""
"","response","","html-keyboard-response","66","225667","0.0-1.0-86.0-0.0","0","0","41119","","300","","","75","9","","","1","9","training","adjacent","ED","5","4","N.jpg","P.jpg","1","0","0","",""
"","feedback","","html-keyboard-response","67","226680","0.0-1.0-87.0-0.0","0","0","41119","","null","","","null","9","","","","","","","","","","","","","","","",""
"","time_out","","html-keyboard-response","68","228702","0.0-1.0-89.0-0.0","0","0","41119","","null","","","null","9","","","","","","","","","","","","","","","",""
"","ITI","","html-keyboard-response","69","229713","0.0-1.0-90.0","0","0","41119","","null","","","null","9","","","","","","","","","","","","","","","NaN",""
"","S1","","html-keyboard-response","70","229972","0.0-1.0-92.0","0","0","41119","","null","","","null","10","","","","","","","","","","","","","","","",""
"","ISI","","html-keyboard-response","71","230983","0.0-1.0-93.0","0","0","41119","","null","","","null","10","NaN","","","","","","","","","","","","","","",""
"","S2","","html-keyboard-response","72","231240","0.0-1.0-94.0","0","0","41119","","null","","","null","10","","NaN","","","","","","","","","","","","","",""
"","response","","html-keyboard-response","73","231670","0.0-1.0-95.0-0.0","0","0","41119","","428","","","75","10","","","1","10","training","adjacent","FE","6","5","Q.jpg","N.jpg","1","0","0","",""
"","feedback","","html-keyboard-response","74","232682","0.0-1.0-96.0-0.0","0","0","41119","","null","","","null","10","","","","","","","","","","","","","","","",""
"","time_out","","html-keyboard-response","75","234693","0.0-1.0-98.0-0.0","0","0","41119","","null","","","null","10","","","","","","","","","","","","","","","",""
"","ITI","","html-keyboard-response","76","235702","0.0-1.0-99.0","0","0","41119","","null","","","null","10","","","","","","","","","","","","","","","NaN",""
"","S1","","html-keyboard-response","77","235962","0.0-1.0-101.0","0","0","41119","","null","","","null","11","","","","","","","","","","","","","","","",""
"","ISI","","html-keyboard-response","78","236972","0.0-1.0-102.0","0","0","41119","","null","","","null","11","NaN","","","","","","","","","","","","","","",""
"","S2","","html-keyboard-response","79","237232","0.0-1.0-103.0","0","0","41119","","null","","","null","11","","NaN","","","","","","","","","","","","","",""
"","response","","html-keyboard-response","80","237585","0.0-1.0-104.0-0.0","0","0","41119","","348","","","68","11","","","1","11","training","adjacent","ED","5","4","N.jpg","P.jpg","0","0","1","",""
"","feedback","","html-keyboard-response","81","238591","0.0-1.0-105.0-0.0","0","0","41119","","null","","","null","11","","","","","","","","","","","","","","","",""
"","ITI","","html-keyboard-response","82","239599","0.0-1.0-108.0","0","0","41119","","null","","","null","11","","","","","","","","","","","","","","","NaN",""
"","S1","","html-keyboard-response","83","239862","0.0-1.0-110.0","0","0","41119","","null","","","null","12","","","","","","","","","","","","","","","",""
"","ISI","","html-keyboard-response","84","240868","0.0-1.0-111.0","0","0","41119","","null","","","null","12","NaN","","","","","","","","","","","","","","",""
"","S2","","html-keyboard-response","85","241125","0.0-1.0-112.0","0","0","41119","","null","","","null","12","","NaN","","","","","","","","","","","","","",""
"","response","","html-keyboard-response","86","241493","0.0-1.0-113.0-0.0","0","0","41119","","364","","","75","12","","","1","12","training","adjacent","DC","4","3","P.jpg","R.jpg","1","0","0","",""
"","feedback","","html-keyboard-response","87","242498","0.0-1.0-114.0-0.0","0","0","41119","","null","","","null","12","","","","","","","","","","","","","","","",""
"","time_out","","html-keyboard-response","88","244508","0.0-1.0-116.0-0.0","0","0","41119","","null","","","null","12","","","","","","","","","","","","","","","",""
"","ITI","","html-keyboard-response","89","245516","0.0-1.0-117.0","0","0","41119","","null","","","null","12","","","","","","","","","","","","","","","NaN",""
"","S1","","html-keyboard-response","90","245771","0.0-1.0-119.0","0","0","41119","","null","","","null","13","","","","","","","","","","","","","","","",""
"","ISI","","html-keyboard-response","91","246777","0.0-1.0-120.0","0","0","41119","","null","","","null","13","NaN","","","","","","","","","","","","","","",""
"","S2","","html-keyboard-response","92","247040","0.0-1.0-121.0","0","0","41119","","null","","","null","13","","NaN","","","","","","","","","","","","","",""
"","response","","html-keyboard-response","93","247614","0.0-1.0-122.0-0.0","0","0","41119","","570","","","68","13","","","1","13","training","adjacent","AB","1","2","O.jpg","M.jpg","0","1","0","",""
"","feedback","","html-keyboard-response","94","248624","0.0-1.0-123.0-0.0","0","0","41119","","null","","","null","13","","","","","","","","","","","","","","","",""
"","time_out","","html-keyboard-response","95","250635","0.0-1.0-125.0-0.0","0","0","41119","","null","","","null","13","","","","","","","","","","","","","","","",""
"","ITI","","html-keyboard-response","96","251643","0.0-1.0-126.0","0","0","41119","","null","","","null","13","","","","","","","","","","","","","","","NaN",""
"","S1","","html-keyboard-response","97","251904","0.0-1.0-128.0","0","0","41119","","null","","","null","14","","","","","","","","","","","","","","","",""
"","ISI","","html-keyboard-response","98","252921","0.0-1.0-129.0","0","0","41119","","null","","","null","14","NaN","","","","","","","","","","","","","","",""
"","S2","","html-keyboard-response","99","253179","0.0-1.0-130.0","0","0","41119","","null","","","null","14","","NaN","","","","","","","","","","","","","",""
"","response","","html-keyboard-response","100","253439","0.0-1.0-131.0-0.0","0","0","41119","","256","","","68","14","","","1","14","training","adjacent","CD","3","4","R.jpg","P.jpg","0","1","0","",""
"","feedback","","html-keyboard-response","101","254446","0.0-1.0-132.0-0.0","0","0","41119","","null","","","null","14","","","","","","","","","","","","","","","",""
"","time_out","","html-keyboard-response","102","256455","0.0-1.0-134.0-0.0","0","0","41119","","null","","","null","14","","","","","","","","","","","","","","","",""
"","ITI","","html-keyboard-response","103","257461","0.0-1.0-135.0","0","0","41119","","null","","","null","14","","","","","","","","","","","","","","","NaN",""
"","S1","","html-keyboard-response","104","257715","0.0-1.0-137.0","0","0","41119","","null","","","null","15","","","","","","","","","","","","","","","",""
"","ISI","","html-keyboard-response","105","258720","0.0-1.0-138.0","0","0","41119","","null","","","null","15","NaN","","","","","","","","","","","","","","",""
"","S2","","html-keyboard-response","106","258983","0.0-1.0-139.0","0","0","41119","","null","","","null","15","","NaN","","","","","","","","","","","","","",""
"","response","","html-keyboard-response","107","259421","0.0-1.0-140.0-0.0","0","0","41119","","435","","","68","15","","","1","15","training","adjacent","DC","4","3","P.jpg","R.jpg","0","0","1","",""
"","feedback","","html-keyboard-response","108","260425","0.0-1.0-141.0-0.0","0","0","41119","","null","","","null","15","","","","","","","","","","","","","","","",""
"","ITI","","html-keyboard-response","109","261436","0.0-1.0-144.0","0","0","41119","","null","","","null","15","","","","","","","","","","","","","","","NaN",""
"","S1","","html-keyboard-response","110","261694","0.0-1.0-146.0","0","0","41119","","null","","","null","16","","","","","","","","","","","","","","","",""
"","ISI","","html-keyboard-response","111","262701","0.0-1.0-147.0","0","0","41119","","null","","","null","16","NaN","","","","","","","","","","","","","","",""
"","S2","","html-keyboard-response","112","262965","0.0-1.0-148.0","0","0","41119","","null","","","null","16","","NaN","","","","","","","","","","","","","",""
"","response","","html-keyboard-response","113","263236","0.0-1.0-149.0-0.0","0","0","41119","","267","","","75","16","","","1","16","training","adjacent","AB","1","2","O.jpg","M.jpg","1","1","1","",""
"","feedback","","html-keyboard-response","114","264246","0.0-1.0-150.0-0.0","0","0","41119","","null","","","null","16","","","","","","","","","","","","","","","",""
"","ITI","","html-keyboard-response","115","265255","0.0-1.0-153.0","0","0","41119","","null","","","null","16","","","","","","","","","","","","","","","NaN",""
"","S1","","html-keyboard-response","116","265517","0.0-1.0-155.0","0","0","41119","","null","","","null","17","","","","","","","","","","","","","","","",""
"","ISI","","html-keyboard-response","117","266530","0.0-1.0-156.0","0","0","41119","","null","","","null","17","NaN","","","","","","","","","","","","","","",""
"","S2","","html-keyboard-response","118","266793","0.0-1.0-157.0","0","0","41119","","null","","","null","17","","NaN","","","","","","","","","","","","","",""
"","response","","html-keyboard-response","119","267214","0.0-1.0-158.0-0.0","0","0","41119","","418","","","75","17","","","1","17","training","adjacent","DC","4","3","P.jpg","R.jpg","1","0","0","",""
"","feedback","","html-keyboard-response","120","268237","0.0-1.0-159.0-0.0","0","0","41119","","null","","","null","17","","","","","","","","","","","","","","","",""
"","time_out","","html-keyboard-response","121","270242","0.0-1.0-161.0-0.0","0","0","41119","","null","","","null","17","","","","","","","","","","","","","","","",""
"","ITI","","html-keyboard-response","122","271250","0.0-1.0-162.0","0","0","41119","","null","","","null","17","","","","","","","","","","","","","","","NaN",""
"","S1","","html-keyboard-response","123","271512","0.0-1.0-164.0","0","0","41119","","null","","","null","18","","","","","","","","","","","","","","","",""
"","ISI","","html-keyboard-response","124","272522","0.0-1.0-165.0","0","0","41119","","null","","","null","18","NaN","","","","","","","","","","","","","","",""
"","S2","","html-keyboard-response","125","272786","0.0-1.0-166.0","0","0","41119","","null","","","null","18","","NaN","","","","","","","","","","","","","",""
"","response","","html-keyboard-response","126","273214","0.0-1.0-167.0-0.0","0","0","41119","","424","","","68","18","","","1","18","training","adjacent","GF","7","6","L.jpg","Q.jpg","0","0","1","",""
"","feedback","","html-keyboard-response","127","274219","0.0-1.0-168.0-0.0","0","0","41119","","null","","","null","18","","","","","","","","","","","","","","","",""
"","ITI","","html-keyboard-response","128","275229","0.0-1.0-171.0","0","0","41119","","0","","","68","18","","","","","","","","","","","","","","","d",""
"","S1","","html-keyboard-response","129","275494","0.0-1.0-173.0","0","0","41119","","null","","","null","19","","","","","","","","","","","","","","","",""
"","ISI","","html-keyboard-response","130","276503","0.0-1.0-174.0","0","0","41119","","null","","","null","19","NaN","","","","","","","","","","","","","","",""
"","S2","","html-keyboard-response","131","276762","0.0-1.0-175.0","0","0","41119","","null","","","null","19","","NaN","","","","","","","","","","","","","",""
"","response","","html-keyboard-response","132","277185","0.0-1.0-176.0-0.0","0","0","41119","","420","","","68","19","","","1","19","training","adjacent","EF","5","6","N.jpg","Q.jpg","0","1","0","",""
"","feedback","","html-keyboard-response","133","278195","0.0-1.0-177.0-0.0","0","0","41119","","null","","","null","19","","","","","","","","","","","","","","","",""
"","time_out","","html-keyboard-response","134","280201","0.0-1.0-179.0-0.0","0","0","41119","","null","","","null","19","","","","","","","","","","","","","","","",""
"","ITI","","html-keyboard-response","135","281212","0.0-1.0-180.0","0","0","41119","","null","","","null","19","","","","","","","","","","","","","","","NaN",""
"","S1","","html-keyboard-response","136","281476","0.0-1.0-182.0","0","0","41119","","null","","","null","20","","","","","","","","","","","","","","","",""
"","ISI","","html-keyboard-response","137","282480","0.0-1.0-183.0","0","0","41119","","null","","","null","20","NaN","","","","","","","","","","","","","","",""
"","S2","","html-keyboard-response","138","282742","0.0-1.0-184.0","0","0","41119","","null","","","null","20","","NaN","","","","","","","","","","","","","",""
"","response","","html-keyboard-response","139","283047","0.0-1.0-185.0-0.0","0","0","41119","","302","","","68","20","","","1","20","training","adjacent","DE","4","5","P.jpg","N.jpg","0","1","0","",""
"","feedback","","html-keyboard-response","140","284052","0.0-1.0-186.0-0.0","0","0","41119","","null","","","null","20","","","","","","","","","","","","","","","",""
"","time_out","","html-keyboard-response","141","286063","0.0-1.0-188.0-0.0","0","0","41119","","null","","","null","20","","","","","","","","","","","","","","","",""
"","ITI","","html-keyboard-response","142","287070","0.0-1.0-189.0","0","0","41119","","null","","","null","20","","","","","","","","","","","","","","","NaN",""
"","S1","","html-keyboard-response","143","287331","0.0-1.0-191.0","0","0","41119","","null","","","null","21","","","","","","","","","","","","","","","",""
"","ISI","","html-keyboard-response","144","288344","0.0-1.0-192.0","0","0","41119","","null","","","null","21","NaN","","","","","","","","","","","","","","",""
"","S2","","html-keyboard-response","145","288615","0.0-1.0-193.0","0","0","41119","","null","","","null","21","","NaN","","","","","","","","","","","","","",""
"","response","","html-keyboard-response","146","289013","0.0-1.0-194.0-0.0","0","0","41119","","394","","","75","21","","","1","21","training","adjacent","BA","2","1","M.jpg","O.jpg","1","0","0","",""
"","feedback","","html-keyboard-response","147","290022","0.0-1.0-195.0-0.0","0","0","41119","","null","","","null","21","","","","","","","","","","","","","","","",""
"","time_out","","html-keyboard-response","148","292032","0.0-1.0-197.0-0.0","0","0","41119","","null","","","null","21","","","","","","","","","","","","","","","",""
"","ITI","","html-keyboard-response","149","293040","0.0-1.0-198.0","0","0","41119","","null","","","null","21","","","","","","","","","","","","","","","NaN",""
"","S1","","html-keyboard-response","150","293299","0.0-1.0-200.0","0","0","41119","","null","","","null","22","","","","","","","","","","","","","","","",""
"","ISI","","html-keyboard-response","151","294309","0.0-1.0-201.0","0","0","41119","","null","","","null","22","NaN","","","","","","","","","","","","","","",""
"","S2","","html-keyboard-response","152","294563","0.0-1.0-202.0","0","0","41119","","null","","","null","22","","NaN","","","","","","","","","","","","","",""
"","response","","html-keyboard-response","153","294725","0.0-1.0-203.0-0.0","0","0","41119","","160","","","68","22","","","1","22","training","adjacent","BC","2","3","M.jpg","R.jpg","0","1","0","",""
"","feedback","","html-keyboard-response","154","295736","0.0-1.0-204.0-0.0","0","0","41119","","null","","","null","22","","","","","","","","","","","","","","","",""
"","time_out","","html-keyboard-response","155","297741","0.0-1.0-206.0-0.0","0","0","41119","","null","","","null","22","","","","","","","","","","","","","","","",""
"","ITI","","html-keyboard-response","156","298753","0.0-1.0-207.0","0","0","41119","","null","","","null","22","","","","","","","","","","","","","","","NaN",""
"","S1","","html-keyboard-response","157","299013","0.0-1.0-209.0","0","0","41119","","null","","","null","23","","","","","","","","","","","","","","","",""
"","ISI","","html-keyboard-response","158","300018","0.0-1.0-210.0","0","0","41119","","null","","","null","23","NaN","","","","","","","","","","","","","","",""
"","S2","","html-keyboard-response","159","300281","0.0-1.0-211.0","0","0","41119","","null","","","null","23","","NaN","","","","","","","","","","","","","",""
"","response","","html-keyboard-response","160","300493","0.0-1.0-212.0-0.0","0","0","41119","","207","","","68","23","","","1","23","training","adjacent","AB","1","2","O.jpg","M.jpg","0","1","0","",""
"","feedback","","html-keyboard-response","161","301500","0.0-1.0-213.0-0.0","0","0","41119","","null","","","null","23","","","","","","","","","","","","","","","",""
"","time_out","","html-keyboard-response","162","303508","0.0-1.0-215.0-0.0","0","0","41119","","null","","","null","23","","","","","","","","","","","","","","","",""
"","ITI","","html-keyboard-response","163","304517","0.0-1.0-216.0","0","0","41119","","null","","","null","23","","","","","","","","","","","","","","","NaN",""
"","S1","","html-keyboard-response","164","304778","0.0-1.0-218.0","0","0","41119","","null","","","null","24","","","","","","","","","","","","","","","",""
"","ISI","","html-keyboard-response","165","305784","0.0-1.0-219.0","0","0","41119","","null","","","null","24","NaN","","","","","","","","","","","","","","",""
"","S2","","html-keyboard-response","166","306040","0.0-1.0-220.0","0","0","41119","","null","","","null","24","","NaN","","","","","","","","","","","","","",""
"","response","","html-keyboard-response","167","306500","0.0-1.0-221.0-0.0","0","0","41119","","456","","","68","24","","","1","24","training","adjacent","GF","7","6","L.jpg","Q.jpg","0","0","1","",""
"","feedback","","html-keyboard-response","168","307511","0.0-1.0-222.0-0.0","0","0","41119","","null","","","null","24","","","","","","","","","","","","","","","",""
"","ITI","","html-keyboard-response","169","308522","0.0-1.0-225.0","0","0","41119","","null","","","null","24","","","","","","","","","","","","","","","NaN",""
"","S1","","html-keyboard-response","170","308782","0.0-1.0-227.0","0","0","41119","","null","","","null","25","","","","","","","","","","","","","","","",""
"","ISI","","html-keyboard-response","171","309792","0.0-1.0-228.0","0","0","41119","","null","","","null","25","NaN","","","","","","","","","","","","","","",""
"","S2","","html-keyboard-response","172","310048","0.0-1.0-229.0","0","0","41119","","null","","","null","25","","NaN","","","","","","","","","","","","","",""
"","response","","html-keyboard-response","173","310261","0.0-1.0-230.0-0.0","0","0","41119","","209","","","75","25","","","1","25","training","adjacent","FE","6","5","Q.jpg","N.jpg","1","0","0","",""
"","feedback","","html-keyboard-response","174","311266","0.0-1.0-231.0-0.0","0","0","41119","","null","","","null","25","","","","","","","","","","","","","","","",""
"","time_out","","html-keyboard-response","175","313279","0.0-1.0-233.0-0.0","0","0","41119","","null","","","null","25","","","","","","","","","","","","","","","",""
"","ITI","","html-keyboard-response","176","314292","0.0-1.0-234.0","0","0","41119","","null","","","null","25","","","","","","","","","","","","","","","NaN",""
"","S1","","html-keyboard-response","177","314553","0.0-1.0-236.0","0","0","41119","","null","","","null","26","","","","","","","","","","","","","","","",""
"","ISI","","html-keyboard-response","178","315573","0.0-1.0-237.0","0","0","41119","","null","","","null","26","NaN","","","","","","","","","","","","","","",""
"","S2","","html-keyboard-response","179","315827","0.0-1.0-238.0","0","0","41119","","null","","","null","26","","NaN","","","","","","","","","","","","","",""
"","response","","html-keyboard-response","180","316108","0.0-1.0-239.0-0.0","0","0","41119","","276","","","75","26","","","1","26","training","adjacent","BC","2","3","M.jpg","R.jpg","1","1","1","",""
"","feedback","","html-keyboard-response","181","317122","0.0-1.0-240.0-0.0","0","0","41119","","null","","","null","26","","","","","","","","","","","","","","","",""
"","ITI","","html-keyboard-response","182","318135","0.0-1.0-243.0","0","0","41119","","null","","","null","26","","","","","","","","","","","","","","","NaN",""
"","S1","","html-keyboard-response","183","318398","0.0-1.0-245.0","0","0","41119","","null","","","null","27","","","","","","","","","","","","","","","",""
"","ISI","","html-keyboard-response","184","319403","0.0-1.0-246.0","0","0","41119","","null","","","null","27","NaN","","","","","","","","","","","","","","",""
"","S2","","html-keyboard-response","185","319659","0.0-1.0-247.0","0","0","41119","","null","","","null","27","","NaN","","","","","","","","","","","","","",""
"","response","","html-keyboard-response","186","319855","0.0-1.0-248.0-0.0","0","0","41119","","192","","","75","27","","","1","27","training","adjacent","FG","6","7","Q.jpg","L.jpg","1","1","1","",""
"","feedback","","html-keyboard-response","187","320864","0.0-1.0-249.0-0.0","0","0","41119","","null","","","null","27","","","","","","","","","","","","","","","",""
"","ITI","","html-keyboard-response","188","321877","0.0-1.0-252.0","0","0","41119","","null","","","null","27","","","","","","","","","","","","","","","NaN",""
"","S1","","html-keyboard-response","189","322134","0.0-1.0-254.0","0","0","41119","","null","","","null","28","","","","","","","","","","","","","","","",""
"","ISI","","html-keyboard-response","190","323150","0.0-1.0-255.0","0","0","41119","","null","","","null","28","NaN","","","","","","","","","","","","","","",""
"","S2","","html-keyboard-response","191","323424","0.0-1.0-256.0","0","0","41119","","null","","","null","28","","NaN","","","","","","","","","","","","","",""
"","response","","html-keyboard-response","192","323603","0.0-1.0-257.0-0.0","0","0","41119","","176","","","68","28","","","1","28","training","adjacent","FE","6","5","Q.jpg","N.jpg","0","0","1","",""
"","feedback","","html-keyboard-response","193","324615","0.0-1.0-258.0-0.0","0","0","41119","","null","","","null","28","","","","","","","","","","","","","","","",""
"","ITI","","html-keyboard-response","194","325629","0.0-1.0-261.0","0","0","41119","","null","","","null","28","","","","","","","","","","","","","","","NaN",""
"","S1","","html-keyboard-response","195","325886","0.0-1.0-263.0","0","0","41119","","null","","","null","29","","","","","","","","","","","","","","","",""
"","ISI","","html-keyboard-response","196","326892","0.0-1.0-264.0","0","0","41119","","null","","","null","29","NaN","","","","","","","","","","","","","","",""
"","S2","","html-keyboard-response","197","327153","0.0-1.0-265.0","0","0","41119","","null","","","null","29","","NaN","","","","","","","","","","","","","",""
"","response","","html-keyboard-response","198","327493","0.0-1.0-266.0-0.0","0","0","41119","","336","","","75","29","","","1","29","training","adjacent","ED","5","4","N.jpg","P.jpg","1","0","0","",""
"","feedback","","html-keyboard-response","199","328510","0.0-1.0-267.0-0.0","0","0","41119","","null","","","null","29","","","","","","","","","","","","","","","",""
"","time_out","","html-keyboard-response","200","330520","0.0-1.0-269.0-0.0","0","0","41119","","null","","","null","29","","","","","","","","","","","","","","","",""
"","ITI","","html-keyboard-response","201","331525","0.0-1.0-270.0","0","0","41119","","null","","","null","29","","","","","","","","","","","","","","","NaN",""
"","S1","","html-keyboard-response","202","331785","0.0-1.0-272.0","0","0","41119","","null","","","null","30","","","","","","","","","","","","","","","",""
"","ISI","","html-keyboard-response","203","332803","0.0-1.0-273.0","0","0","41119","","null","","","null","30","NaN","","","","","","","","","","","","","","",""
"","S2","","html-keyboard-response","204","333066","0.0-1.0-274.0","0","0","41119","","null","","","null","30","","NaN","","","","","","","","","","","","","",""
"","response","","html-keyboard-response","205","333277","0.0-1.0-275.0-0.0","0","0","41119","","209","","","68","30","","","1","30","training","adjacent","BA","2","1","M.jpg","O.jpg","0","0","1","",""
"","feedback","","html-keyboard-response","206","334296","0.0-1.0-276.0-0.0","0","0","41119","","null","","","null","30","","","","","","","","","","","","","","","",""
"","ITI","","html-keyboard-response","207","335316","0.0-1.0-279.0","0","0","41119","","null","","","null","30","","","","","","","","","","","","","","","NaN",""
"","S1","","html-keyboard-response","208","335572","0.0-1.0-281.0","0","0","41119","","null","","","null","31","","","","","","","","","","","","","","","",""
"","ISI","","html-keyboard-response","209","336579","0.0-1.0-282.0","0","0","41119","","null","","","null","31","NaN","","","","","","","","","","","","","","",""
"","S2","","html-keyboard-response","210","336843","0.0-1.0-283.0","0","0","41119","","null","","","null","31","","NaN","","","","","","","","","","","","","",""
"","response","","html-keyboard-response","211","337100","0.0-1.0-284.0-0.0","0","0","41119","","253","","","68","31","","","1","31","training","adjacent","BA","2","1","M.jpg","O.jpg","0","0","1","",""
"","feedback","","html-keyboard-response","212","338106","0.0-1.0-285.0-0.0","0","0","41119","","null","","","null","31","","","","","","","","","","","","","","","",""
"","ITI","","html-keyboard-response","213","339112","0.0-1.0-288.0","0","0","41119","","null","","","null","31","","","","","","","","","","","","","","","NaN",""
"","S1","","html-keyboard-response","214","339365","0.0-1.0-290.0","0","0","41119","","null","","","null","32","","","","","","","","","","","","","","","",""
"","ISI","","html-keyboard-response","215","340377","0.0-1.0-291.0","0","0","41119","","null","","","null","32","NaN","","","","","","","","","","","","","","",""
"","S2","","html-keyboard-response","216","340639","0.0-1.0-292.0","0","0","41119","","null","","","null","32","","NaN","","","","","","","","","","","","","",""
"","response","","html-keyboard-response","217","340946","0.0-1.0-293.0-0.0","0","0","41119","","303","","","75","32","","","1","32","training","adjacent","AB","1","2","O.jpg","M.jpg","1","1","1","",""
"","feedback","","html-keyboard-response","218","341951","0.0-1.0-294.0-0.0","0","0","41119","","null","","","null","32","","","","","","","","","","","","","","","",""
"","ITI","","html-keyboard-response","219","342958","0.0-1.0-297.0","0","0","41119","","null","","","null","32","","","","","","","","","","","","","","","NaN",""
"","S1","","html-keyboard-response","220","343218","0.0-1.0-299.0","0","0","41119","","null","","","null","33","","","","","","","","","","","","","","","",""
"","ISI","","html-keyboard-response","221","344226","0.0-1.0-300.0","0","0","41119","","null","","","null","33","NaN","","","","","","","","","","","","","","",""
"","S2","","html-keyboard-response","222","344486","0.0-1.0-301.0","0","0","41119","","null","","","null","33","","NaN","","","","","","","","","","","","","",""
"","response","","html-keyboard-response","223","344718","0.0-1.0-302.0-0.0","0","0","41119","","228","","","68","33","","","1","33","training","adjacent","CD","3","4","R.jpg","P.jpg","0","1","0","",""
"","feedback","","html-keyboard-response","224","345728","0.0-1.0-303.0-0.0","0","0","41119","","null","","","null","33","","","","","","","","","","","","","","","",""
"","time_out","","html-keyboard-response","225","347737","0.0-1.0-305.0-0.0","0","0","41119","","null","","","null","33","","","","","","","","","","","","","","","",""
"","ITI","","html-keyboard-response","226","348758","0.0-1.0-306.0","0","0","41119","","null","","","null","33","","","","","","","","","","","","","","","NaN",""
"","S1","","html-keyboard-response","227","349015","0.0-1.0-308.0","0","0","41119","","null","","","null","34","","","","","","","","","","","","","","","",""
"","ISI","","html-keyboard-response","228","350022","0.0-1.0-309.0","0","0","41119","","null","","","null","34","NaN","","","","","","","","","","","","","","",""
"","S2","","html-keyboard-response","229","350283","0.0-1.0-310.0","0","0","41119","","null","","","null","34","","NaN","","","","","","","","","","","","","",""
"","response","","html-keyboard-response","230","350502","0.0-1.0-311.0-0.0","0","0","41119","","216","","","68","34","","","1","34","training","adjacent","BC","2","3","M.jpg","R.jpg","0","1","0","",""
"","feedback","","html-keyboard-response","231","351507","0.0-1.0-312.0-0.0","0","0","41119","","null","","","null","34","","","","","","","","","","","","","","","",""
"","time_out","","html-keyboard-response","232","353514","0.0-1.0-314.0-0.0","0","0","41119","","null","","","null","34","","","","","","","","","","","","","","","",""
"","ITI","","html-keyboard-response","233","354526","0.0-1.0-315.0","0","0","41119","","null","","","null","34","","","","","","","","","","","","","","","NaN",""
"","S1","","html-keyboard-response","234","354795","0.0-1.0-317.0","0","0","41119","","null","","","null","35","","","","","","","","","","","","","","","",""
"","ISI","","html-keyboard-response","235","355805","0.0-1.0-318.0","0","0","41119","","null","","","null","35","NaN","","","","","","","","","","","","","","",""
"","S2","","html-keyboard-response","236","356067","0.0-1.0-319.0","0","0","41119","","null","","","null","35","","NaN","","","","","","","","","","","","","",""
"","response","","html-keyboard-response","237","356257","0.0-1.0-320.0-0.0","0","0","41119","","188","","","75","35","","","1","35","training","adjacent","FG","6","7","Q.jpg","L.jpg","1","1","1","",""
"","feedback","","html-keyboard-response","238","357267","0.0-1.0-321.0-0.0","0","0","41119","","null","","","null","35","","","","","","","","","","","","","","","",""
"","ITI","","html-keyboard-response","239","358273","0.0-1.0-324.0","0","0","41119","","null","","","null","35","","","","","","","","","","","","","","","NaN",""
"","S1","","html-keyboard-response","240","358536","0.0-1.0-326.0","0","0","41119","","null","","","null","36","","","","","","","","","","","","","","","",""
"","ISI","","html-keyboard-response","241","359544","0.0-1.0-327.0","0","0","41119","","null","","","null","36","NaN","","","","","","","","","","","","","","",""
"","S2","","html-keyboard-response","242","359806","0.0-1.0-328.0","0","0","41119","","null","","","null","36","","NaN","","","","","","","","","","","","","",""
"","response","","html-keyboard-response","243","360113","0.0-1.0-329.0-0.0","0","0","41119","","304","","","68","36","","","1","36","training","adjacent","CD","3","4","R.jpg","P.jpg","0","1","0","",""
"","feedback","","html-keyboard-response","244","361119","0.0-1.0-330.0-0.0","0","0","41119","","null","","","null","36","","","","","","","","","","","","","","","",""
"","time_out","","html-keyboard-response","245","363132","0.0-1.0-332.0-0.0","0","0","41119","","null","","","null","36","","","","","","","","","","","","","","","",""
"","ITI","","html-keyboard-response","246","364142","0.0-1.0-333.0","0","0","41119","","null","","","null","36","","","","","","","","","","","","","","","NaN",""
"","S1","","html-keyboard-response","247","364397","0.0-1.0-335.0","0","0","41119","","null","","","null","37","","","","","","","","","","","","","","","",""
"","ISI","","html-keyboard-response","248","365407","0.0-1.0-336.0","0","0","41119","","null","","","null","37","NaN","","","","","","","","","","","","","","",""
"","S2","","html-keyboard-response","249","365667","0.0-1.0-337.0","0","0","41119","","null","","","null","37","","NaN","","","","","","","","","","","","","",""
"","response","","html-keyboard-response","250","365780","0.0-1.0-338.0-0.0","0","0","41119","","110","","","68","37","","","1","37","training","adjacent","ED","5","4","N.jpg","P.jpg","0","0","1","",""
"","feedback","","html-keyboard-response","251","366794","0.0-1.0-339.0-0.0","0","0","41119","","null","","","null","37","","","","","","","","","","","","","","","",""
"","ITI","","html-keyboard-response","252","367798","0.0-1.0-342.0","0","0","41119","","null","","","null","37","","","","","","","","","","","","","","","NaN",""
"","S1","","html-keyboard-response","253","368058","0.0-1.0-344.0","0","0","41119","","null","","","null","38","","","","","","","","","","","","","","","",""
"","ISI","","html-keyboard-response","254","369070","0.0-1.0-345.0","0","0","41119","","null","","","null","38","NaN","","","","","","","","","","","","","","",""
"","S2","","html-keyboard-response","255","369329","0.0-1.0-346.0","0","0","41119","","null","","","null","38","","NaN","","","","","","","","","","","","","",""
"","response","","html-keyboard-response","256","369389","0.0-1.0-347.0-0.0","0","0","41119","","56","","","75","38","","","1","38","training","adjacent","FE","6","5","Q.jpg","N.jpg","1","0","0","",""
"","feedback","","html-keyboard-response","257","370402","0.0-1.0-348.0-0.0","0","0","41119","","null","","","null","38","","","","","","","","","","","","","","","",""
"","time_out","","html-keyboard-response","258","372414","0.0-1.0-350.0-0.0","0","0","41119","","null","","","null","38","","","","","","","","","","","","","","","",""
"","ITI","","html-keyboard-response","259","373422","0.0-1.0-351.0","0","0","41119","","null","","","null","38","","","","","","","","","","","","","","","NaN",""
"","S1","","html-keyboard-response","260","373684","0.0-1.0-353.0","0","0","41119","","null","","","null","39","","","","","","","","","","","","","","","",""
"","ISI","","html-keyboard-response","261","374692","0.0-1.0-354.0","0","0","41119","","null","","","null","39","NaN","","","","","","","","","","","","","","",""
"","S2","","html-keyboard-response","262","374954","0.0-1.0-355.0","0","0","41119","","null","","","null","39","","NaN","","","","","","","","","","","","","",""
"","response","","html-keyboard-response","263","375313","0.0-1.0-356.0-0.0","0","0","41119","","356","","","68","39","","","1","39","training","adjacent","DE","4","5","P.jpg","N.jpg","0","1","0","",""
"","feedback","","html-keyboard-response","264","376323","0.0-1.0-357.0-0.0","0","0","41119","","null","","","null","39","","","","","","","","","","","","","","","",""
"","time_out","","html-keyboard-response","265","378327","0.0-1.0-359.0-0.0","0","0","41119","","null","","","null","39","","","","","","","","","","","","","","","",""
"","ITI","","html-keyboard-response","266","379344","0.0-1.0-360.0","0","0","41119","","null","","","null","39","","","","","","","","","","","","","","","NaN",""
"","S1","","html-keyboard-response","267","379600","0.0-1.0-362.0","0","0","41119","","null","","","null","40","","","","","","","","","","","","","","","",""
"","ISI","","html-keyboard-response","268","380606","0.0-1.0-363.0","0","0","41119","","null","","","null","40","NaN","","","","","","","","","","","","","","",""
"","S2","","html-keyboard-response","269","380869","0.0-1.0-364.0","0","0","41119","","null","","","null","40","","NaN","","","","","","","","","","","","","",""
"","response","","html-keyboard-response","270","381134","0.0-1.0-365.0-0.0","0","0","41119","","261","","","68","40","","","1","40","training","adjacent","GF","7","6","L.jpg","Q.jpg","0","0","1","",""
"","feedback","","html-keyboard-response","271","382142","0.0-1.0-366.0-0.0","0","0","41119","","null","","","null","40","","","","","","","","","","","","","","","",""
"","ITI","","html-keyboard-response","272","383151","0.0-1.0-369.0","0","0","41119","","null","","","null","40","","","","","","","","","","","","","","","NaN",""
"","S1","","html-keyboard-response","273","383406","0.0-1.0-371.0","0","0","41119","","null","","","null","41","","","","","","","","","","","","","","","",""
"","ISI","","html-keyboard-response","274","384425","0.0-1.0-372.0","0","0","41119","","null","","","null","41","NaN","","","","","","","","","","","","","","",""
"","S2","","html-keyboard-response","275","384680","0.0-1.0-373.0","0","0","41119","","null","","","null","41","","NaN","","","","","","","","","","","","","",""
"","response","","html-keyboard-response","276","384876","0.0-1.0-374.0-0.0","0","0","41119","","193","","","75","41","","","1","41","training","adjacent","CB","3","2","R.jpg","M.jpg","1","0","0","",""
"","feedback","","html-keyboard-response","277","385883","0.0-1.0-375.0-0.0","0","0","41119","","null","","","null","41","","","","","","","","","","","","","","","",""
"","time_out","","html-keyboard-response","278","387895","0.0-1.0-377.0-0.0","0","0","41119","","null","","","null","41","","","","","","","","","","","","","","","",""
"","ITI","","html-keyboard-response","279","388902","0.0-1.0-378.0","0","0","41119","","null","","","null","41","","","","","","","","","","","","","","","NaN",""
"","S1","","html-keyboard-response","280","389162","0.0-1.0-380.0","0","0","41119","","null","","","null","42","","","","","","","","","","","","","","","",""
"","ISI","","html-keyboard-response","281","390170","0.0-1.0-381.0","0","0","41119","","null","","","null","42","NaN","","","","","","","","","","","","","","",""
"","S2","","html-keyboard-response","282","390429","0.0-1.0-382.0","0","0","41119","","null","","","null","42","","NaN","","","","","","","","","","","","","",""
"","response","","html-keyboard-response","283","390726","0.0-1.0-383.0-0.0","0","0","41119","","294","","","68","42","","","1","42","training","adjacent","EF","5","6","N.jpg","Q.jpg","0","1","0","",""
"","feedback","","html-keyboard-response","284","391742","0.0-1.0-384.0-0.0","0","0","41119","","null","","","null","42","","","","","","","","","","","","","","","",""
"","time_out","","html-keyboard-response","285","393749","0.0-1.0-386.0-0.0","0","0","41119","","null","","","null","42","","","","","","","","","","","","","","","",""
"","ITI","","html-keyboard-response","286","394757","0.0-1.0-387.0","0","0","41119","","null","","","null","42","","","","","","","","","","","","","","","NaN",""
"","S1","","html-keyboard-response","287","395017","0.0-1.0-389.0","0","0","41119","","null","","","null","43","","","","","","","","","","","","","","","",""
"","ISI","","html-keyboard-response","288","396033","0.0-1.0-390.0","0","0","41119","","null","","","null","43","NaN","","","","","","","","","","","","","","",""
"","S2","","html-keyboard-response","289","396296","0.0-1.0-391.0","0","0","41119","","null","","","null","43","","NaN","","","","","","","","","","","","","",""
"","response","","html-keyboard-response","290","396358","0.0-1.0-392.0-0.0","0","0","41119","","58","","","75","43","","","1","43","training","adjacent","CB","3","2","R.jpg","M.jpg","1","0","0","",""
"","feedback","","html-keyboard-response","291","397369","0.0-1.0-393.0-0.0","0","0","41119","","null","","","null","43","","","","","","","","","","","","","","","",""
"","time_out","","html-keyboard-response","292","399375","0.0-1.0-395.0-0.0","0","0","41119","","null","","","null","43","","","","","","","","","","","","","","","",""
"","ITI","","html-keyboard-response","293","400382","0.0-1.0-396.0","0","0","41119","","null","","","null","43","","","","","","","","","","","","","","","NaN",""
"","S1","","html-keyboard-response","294","400646","0.0-1.0-398.0","0","0","41119","","null","","","null","44","","","","","","","","","","","","","","","",""
"","ISI","","html-keyboard-response","295","401657","0.0-1.0-399.0","0","0","41119","","null","","","null","44","NaN","","","","","","","","","","","","","","",""
"","S2","","html-keyboard-response","296","401839","0.0-1.0-400.0","0","0","41119","","179","","","75","44","","k","1","44","training","adjacent","EF","5","6","N.jpg","Q.jpg","1","1","1","",""
"","feedback","","html-keyboard-response","297","402849","0.0-1.0-402.0-0.0","0","0","41119","","null","","","null","44","","","","","","","","","","","","","","","",""
"","ITI","","html-keyboard-response","298","403858","0.0-1.0-405.0","0","0","41119","","null","","","null","44","","","","","","","","","","","","","","","NaN",""
"","S1","","html-keyboard-response","299","404120","0.0-1.0-407.0","0","0","41119","","null","","","null","45","","","","","","","","","","","","","","","",""
"","ISI","","html-keyboard-response","300","405129","0.0-1.0-408.0","0","0","41119","","null","","","null","45","NaN","","","","","","","","","","","","","","",""
"","S2","","html-keyboard-response","301","405384","0.0-1.0-409.0","0","0","41119","","null","","","null","45","","NaN","","","","","","","","","","","","","",""
"","response","","html-keyboard-response","302","405532","0.0-1.0-410.0-0.0","0","0","41119","","145","","","68","45","","","1","45","training","adjacent","DE","4","5","P.jpg","N.jpg","0","1","0","",""
"","feedback","","html-keyboard-response","303","406542","0.0-1.0-411.0-0.0","0","0","41119","","null","","","null","45","","","","","","","","","","","","","","","",""
"","time_out","","html-keyboard-response","304","408552","0.0-1.0-413.0-0.0","0","0","41119","","null","","","null","45","","","","","","","","","","","","","","","",""
"","ITI","","html-keyboard-response","305","409558","0.0-1.0-414.0","0","0","41119","","null","","","null","45","","","","","","","","","","","","","","","NaN",""
"","S1","","html-keyboard-response","306","409822","0.0-1.0-416.0","0","0","41119","","null","","","null","46","","","","","","","","","","","","","","","",""
"","ISI","","html-keyboard-response","307","410833","0.0-1.0-417.0","0","0","41119","","null","","","null","46","NaN","","","","","","","","","","","","","","",""
"","S2","","html-keyboard-response","308","411088","0.0-1.0-418.0","0","0","41119","","null","","","null","46","","NaN","","","","","","","","","","","","","",""
"","response","","html-keyboard-response","309","411265","0.0-1.0-419.0-0.0","0","0","41119","","172","","","75","46","","","1","46","training","adjacent","GF","7","6","L.jpg","Q.jpg","1","0","0","",""
"","feedback","","html-keyboard-response","310","412278","0.0-1.0-420.0-0.0","0","0","41119","","null","","","null","46","","","","","","","","","","","","","","","",""
"","time_out","","html-keyboard-response","311","414289","0.0-1.0-422.0-0.0","0","0","41119","","null","","","null","46","","","","","","","","","","","","","","","",""
"","ITI","","html-keyboard-response","312","415309","0.0-1.0-423.0","0","0","41119","","null","","","null","46","","","","","","","","","","","","","","","NaN",""
"","S1","","html-keyboard-response","313","415568","0.0-1.0-425.0","0","0","41119","","null","","","null","47","","","","","","","","","","","","","","","",""
"","ISI","","html-keyboard-response","314","416572","0.0-1.0-426.0","0","0","41119","","null","","","null","47","NaN","","","","","","","","","","","","","","",""
"","S2","","html-keyboard-response","315","416828","0.0-1.0-427.0","0","0","41119","","null","","","null","47","","NaN","","","","","","","","","","","","","",""
"","response","","html-keyboard-response","316","417040","0.0-1.0-428.0-0.0","0","0","41119","","209","","","75","47","","","1","47","training","adjacent","BA","2","1","M.jpg","O.jpg","1","0","0","",""
"","feedback","","html-keyboard-response","317","418046","0.0-1.0-429.0-0.0","0","0","41119","","null","","","null","47","","","","","","","","","","","","","","","",""
"","time_out","","html-keyboard-response","318","420058","0.0-1.0-431.0-0.0","0","0","41119","","null","","","null","47","","","","","","","","","","","","","","","",""
"","ITI","","html-keyboard-response","319","421077","0.0-1.0-432.0","0","0","41119","","null","","","null","47","","","","","","","","","","","","","","","NaN",""
"","block_over","","html-keyboard-response","320","431458","0.0-1.0-433.0-0.0","0","0","41119","","10376","","","32","47","","","","","","","","","","","","","","","",""
"","S1","","html-keyboard-response","321","431727","0.0-1.0-434.0","0","0","41119","","null","","","null","48","","","","","","","","","","","","","","","",""
"","ISI","","html-keyboard-response","322","432737","0.0-1.0-435.0","0","0","41119","","null","","","null","48","NaN","","","","","","","","","","","","","","",""
"","S2","","html-keyboard-response","323","433001","0.0-1.0-436.0","0","0","41119","","null","","","null","48","","NaN","","","","","","","","","","","","","",""
"","response","","html-keyboard-response","324","433402","0.0-1.0-437.0-0.0","0","0","41119","","398","","","68","48","","","2","48","training","adjacent","BA","2","1","M.jpg","O.jpg","0","0","1","",""
"","feedback","","html-keyboard-response","325","434419","0.0-1.0-438.0-0.0","0","0","41119","","null","","","null","48","","","","","","","","","","","","","","","",""
"","ITI","","html-keyboard-response","326","435430","0.0-1.0-441.0","0","0","41119","","null","","","null","48","","","","","","","","","","","","","","","NaN",""
"","S1","","html-keyboard-response","327","435692","0.0-1.0-443.0","0","0","41119","","null","","","null","49","","","","","","","","","","","","","","","",""
"","ISI","","html-keyboard-response","328","436712","0.0-1.0-444.0","0","0","41119","","null","","","null","49","NaN","","","","","","","","","","","","","","",""
"","S2","","html-keyboard-response","329","436972","0.0-1.0-445.0","0","0","41119","","null","","","null","49","","NaN","","","","","","","","","","","","","",""
"","response","","html-keyboard-response","330","437006","0.0-1.0-446.0-0.0","0","0","41119","","31","","","75","49","","","2","49","training","adjacent","FG","6","7","Q.jpg","L.jpg","1","1","1","",""
"","feedback","","html-keyboard-response","331","438015","0.0-1.0-447.0-0.0","0","0","41119","","null","","","null","49","","","","","","","","","","","","","","","",""
"","ITI","","html-keyboard-response","332","439020","0.0-1.0-450.0","0","0","41119","","null","","","null","49","","","","","","","","","","","","","","","NaN",""
"","S1","","html-keyboard-response","333","439282","0.0-1.0-452.0","0","0","41119","","null","","","null","50","","","","","","","","","","","","","","","",""
"","ISI","","html-keyboard-response","334","440295","0.0-1.0-453.0","0","0","41119","","null","","","null","50","NaN","","","","","","","","","","","","","","",""
"","S2","","html-keyboard-response","335","440557","0.0-1.0-454.0","0","0","41119","","null","","","null","50","","NaN","","","","","","","","","","","","","",""
"","response","","html-keyboard-response","336","440625","0.0-1.0-455.0-0.0","0","0","41119","","64","","","68","50","","","2","50","training","adjacent","BA","2","1","M.jpg","O.jpg","0","0","1","",""
"","feedback","","html-keyboard-response","337","441638","0.0-1.0-456.0-0.0","0","0","41119","","null","","","null","50","","","","","","","","","","","","","","","",""
"","ITI","","html-keyboard-response","338","442643","0.0-1.0-459.0","0","0","41119","","null","","","null","50","","","","","","","","","","","","","","","NaN",""
"","S1","","html-keyboard-response","339","442904","0.0-1.0-461.0","0","0","41119","","null","","","null","51","","","","","","","","","","","","","","","",""
"","ISI","","html-keyboard-response","340","443910","0.0-1.0-462.0","0","0","41119","","null","","","null","51","NaN","","","","","","","","","","","","","","",""
"","S2","","html-keyboard-response","341","444165","0.0-1.0-463.0","0","0","41119","","null","","","null","51","","NaN","","","","","","","","","","","","","",""
"","response","","html-keyboard-response","342","444491","0.0-1.0-464.0-0.0","0","0","41119","","321","","","75","51","","","2","51","training","adjacent","ED","5","4","N.jpg","P.jpg","1","0","0","",""
"","feedback","","html-keyboard-response","343","445502","0.0-1.0-465.0-0.0","0","0","41119","","null","","","null","51","","","","","","","","","","","","","","","",""
"","time_out","","html-keyboard-response","344","447510","0.0-1.0-467.0-0.0","0","0","41119","","null","","","null","51","","","","","","","","","","","","","","","",""
"","ITI","","html-keyboard-response","345","448515","0.0-1.0-468.0","0","0","41119","","null","","","null","51","","","","","","","","","","","","","","","NaN",""
"","S1","","html-keyboard-response","346","448774","0.0-1.0-470.0","0","0","41119","","null","","","null","52","","","","","","","","","","","","","","","",""
"","ISI","","html-keyboard-response","347","449786","0.0-1.0-471.0","0","0","41119","","null","","","null","52","NaN","","","","","","","","","","","","","","",""
"","S2","","html-keyboard-response","348","450041","0.0-1.0-472.0","0","0","41119","","null","","","null","52","","NaN","","","","","","","","","","","","","",""
"","response","","html-keyboard-response","349","450222","0.0-1.0-473.0-0.0","0","0","41119","","177","","","68","52","","","2","52","training","adjacent","EF","5","6","N.jpg","Q.jpg","0","1","0","",""
"","feedback","","html-keyboard-response","350","451236","0.0-1.0-474.0-0.0","0","0","41119","","null","","","null","52","","","","","","","","","","","","","","","",""
"","time_out","","html-keyboard-response","351","453247","0.0-1.0-476.0-0.0","0","0","41119","","null","","","null","52","","","","","","","","","","","","","","","",""
"","ITI","","html-keyboard-response","352","454265","0.0-1.0-477.0","0","0","41119","","null","","","null","52","","","","","","","","","","","","","","","NaN",""
"","S1","","html-keyboard-response","353","454524","0.0-1.0-479.0","0","0","41119","","null","","","null","53","","","","","","","","","","","","","","","",""
"","ISI","","html-keyboard-response","354","455543","0.0-1.0-480.0","0","0","41119","","null","","","null","53","NaN","","","","","","","","","","","","","","",""
"","S2","","html-keyboard-response","355","455805","0.0-1.0-481.0","0","0","41119","","null","","","null","53","","NaN","","","","","","","","","","","","","",""
"","response","","html-keyboard-response","356","455916","0.0-1.0-482.0-0.0","0","0","41119","","108","","","75","53","","","2","53","training","adjacent","GF","7","6","L.jpg","Q.jpg","1","0","0","",""
"","feedback","","html-keyboard-response","357","456922","0.0-1.0-483.0-0.0","0","0","41119","","null","","","null","53","","","","","","","","","","","","","","","",""
"","time_out","","html-keyboard-response","358","458930","0.0-1.0-485.0-0.0","0","0","41119","","null","","","null","53","","","","","","","","","","","","","","","",""
"","ITI","","html-keyboard-response","359","459934","0.0-1.0-486.0","0","0","41119","","null","","","null","53","","","","","","","","","","","","","","","NaN",""
"","S1","","html-keyboard-response","360","460197","0.0-1.0-488.0","0","0","41119","","null","","","null","54","","","","","","","","","","","","","","","",""
"","ISI","","html-keyboard-response","361","461208","0.0-1.0-489.0","0","0","41119","","null","","","null","54","NaN","","","","","","","","","","","","","","",""
"","S2","","html-keyboard-response","362","461463","0.0-1.0-490.0","0","0","41119","","null","","","null","54","","NaN","","","","","","","","","","","","","",""
"","response","","html-keyboard-response","363","461668","0.0-1.0-491.0-0.0","0","0","41119","","202","","","75","54","","","2","54","training","adjacent","CB","3","2","R.jpg","M.jpg","1","0","0","",""
"","feedback","","html-keyboard-response","364","462679","0.0-1.0-492.0-0.0","0","0","41119","","null","","","null","54","","","","","","","","","","","","","","","",""
"","time_out","","html-keyboard-response","365","464693","0.0-1.0-494.0-0.0","0","0","41119","","null","","","null","54","","","","","","","","","","","","","","","",""
"","ITI","","html-keyboard-response","366","465700","0.0-1.0-495.0","0","0","41119","","null","","","null","54","","","","","","","","","","","","","","","NaN",""
"","S1","","html-keyboard-response","367","465959","0.0-1.0-497.0","0","0","41119","","null","","","null","55","","","","","","","","","","","","","","","",""
"","ISI","","html-keyboard-response","368","466967","0.0-1.0-498.0","0","0","41119","","null","","","null","55","NaN","","","","","","","","","","","","","","",""
"","S2","","html-keyboard-response","369","467225","0.0-1.0-499.0","0","0","41119","","null","","","null","55","","NaN","","","","","","","","","","","","","",""
"","response","","html-keyboard-response","370","467380","0.0-1.0-500.0-0.0","0","0","41119","","151","","","68","55","","","2","55","training","adjacent","CB","3","2","R.jpg","M.jpg","0","0","1","",""
"","feedback","","html-keyboard-response","371","468385","0.0-1.0-501.0-0.0","0","0","41119","","null","","","null","55","","","","","","","","","","","","","","","",""
"","ITI","","html-keyboard-response","372","469396","0.0-1.0-504.0","0","0","41119","","null","","","null","55","","","","","","","","","","","","","","","NaN",""
"","S1","","html-keyboard-response","373","469664","0.0-1.0-506.0","0","0","41119","","null","","","null","56","","","","","","","","","","","","","","","",""
"","ISI","","html-keyboard-response","374","470673","0.0-1.0-507.0","0","0","41119","","null","","","null","56","NaN","","","","","","","","","","","","","","",""
"","S2","","html-keyboard-response","375","470934","0.0-1.0-508.0","0","0","41119","","null","","","null","56","","NaN","","","","","","","","","","","","","",""
"","response","","html-keyboard-response","376","471027","0.0-1.0-509.0-0.0","0","0","41119","","89","","","68","56","","","2","56","training","adjacent","ED","5","4","N.jpg","P.jpg","0","0","1","",""
"","feedback","","html-keyboard-response","377","472050","0.0-1.0-510.0-0.0","0","0","41119","","null","","","null","56","","","","","","","","","","","","","","","",""
"","ITI","","html-keyboard-response","378","473061","0.0-1.0-513.0","0","0","41119","","null","","","null","56","","","","","","","","","","","","","","","NaN",""
"","S1","","html-keyboard-response","379","473322","0.0-1.0-515.0","0","0","41119","","null","","","null","57","","","","","","","","","","","","","","","",""
"","ISI","","html-keyboard-response","380","474336","0.0-1.0-516.0","0","0","41119","","null","","","null","57","NaN","","","","","","","","","","","","","","",""
"","S2","","html-keyboard-response","381","474600","0.0-1.0-517.0","0","0","41119","","null","","","null","57","","NaN","","","","","","","","","","","","","",""
"","response","","html-keyboard-response","382","474660","0.0-1.0-518.0-0.0","0","0","41119","","56","","","75","57","","","2","57","training","adjacent","FE","6","5","Q.jpg","N.jpg","1","0","0","",""
"","feedback","","html-keyboard-response","383","475670","0.0-1.0-519.0-0.0","0","0","41119","","null","","","null","57","","","","","","","","","","","","","","","",""
"","time_out","","html-keyboard-response","384","477675","0.0-1.0-521.0-0.0","0","0","41119","","null","","","null","57","","","","","","","","","","","","","","","",""
"","ITI","","html-keyboard-response","385","478680","0.0-1.0-522.0","0","0","41119","","null","","","null","57","","","","","","","","","","","","","","","NaN",""
"","S1","","html-keyboard-response","386","478943","0.0-1.0-524.0","0","0","41119","","null","","","null","58","","","","","","","","","","","","","","","",""
"","ISI","","html-keyboard-response","387","479953","0.0-1.0-525.0","0","0","41119","","null","","","null","58","NaN","","","","","","","","","","","","","","",""
"","S2","","html-keyboard-response","388","480213","0.0-1.0-526.0","0","0","41119","","null","","","null","58","","NaN","","","","","","","","","","","","","",""
"","response","","html-keyboard-response","389","480335","0.0-1.0-527.0-0.0","0","0","41119","","118","","","68","58","","","2","58","training","adjacent","ED","5","4","N.jpg","P.jpg","0","0","1","",""
"","feedback","","html-keyboard-response","390","481343","0.0-1.0-528.0-0.0","0","0","41119","","null","","","null","58","","","","","","","","","","","","","","","",""
"","ITI","","html-keyboard-response","391","482352","0.0-1.0-531.0","0","0","41119","","null","","","null","58","","","","","","","","","","","","","","","NaN",""
"","S1","","html-keyboard-response","392","482614","0.0-1.0-533.0","0","0","41119","","null","","","null","59","","","","","","","","","","","","","","","",""
"","ISI","","html-keyboard-response","393","483622","0.0-1.0-534.0","0","0","41119","","null","","","null","59","NaN","","","","","","","","","","","","","","",""
"","S2","","html-keyboard-response","394","483881","0.0-1.0-535.0","0","0","41119","","null","","","null","59","","NaN","","","","","","","","","","","","","",""
"","response","","html-keyboard-response","395","484001","0.0-1.0-536.0-0.0","0","0","41119","","117","","","68","59","","","2","59","training","adjacent","BA","2","1","M.jpg","O.jpg","0","0","1","",""
"","feedback","","html-keyboard-response","396","485016","0.0-1.0-537.0-0.0","0","0","41119","","null","","","null","59","","","","","","","","","","","","","","","",""
"","ITI","","html-keyboard-response","397","486026","0.0-1.0-540.0","0","0","41119","","null","","","null","59","","","","","","","","","","","","","","","NaN",""
"","S1","","html-keyboard-response","398","486288","0.0-1.0-542.0","0","0","41119","","null","","","null","60","","","","","","","","","","","","","","","",""
"","ISI","","html-keyboard-response","399","487300","0.0-1.0-543.0","0","0","41119","","null","","","null","60","NaN","","","","","","","","","","","","","","",""
"","S2","","html-keyboard-response","400","487560","0.0-1.0-544.0","0","0","41119","","null","","","null","60","","NaN","","","","","","","","","","","","","",""
"","response","","html-keyboard-response","401","487718","0.0-1.0-545.0-0.0","0","0","41119","","155","","","68","60","","","2","60","training","adjacent","DE","4","5","P.jpg","N.jpg","0","1","0","",""
"","feedback","","html-keyboard-response","402","488732","0.0-1.0-546.0-0.0","0","0","41119","","null","","","null","60","","","","","","","","","","","","","","","",""
"","time_out","","html-keyboard-response","403","490743","0.0-1.0-548.0-0.0","0","0","41119","","null","","","null","60","","","","","","","","","","","","","","","",""
"","ITI","","html-keyboard-response","404","491763","0.0-1.0-549.0","0","0","41119","","null","","","null","60","","","","","","","","","","","","","","","NaN",""
"","S1","","html-keyboard-response","405","492024","0.0-1.0-551.0","0","0","41119","","null","","","null","61","","","","","","","","","","","","","","","",""
"","ISI","","html-keyboard-response","406","493033","0.0-1.0-552.0","0","0","41119","","null","","","null","61","NaN","","","","","","","","","","","","","","",""
"","S2","","html-keyboard-response","407","493294","0.0-1.0-553.0","0","0","41119","","null","","","null","61","","NaN","","","","","","","","","","","","","",""
"","response","","html-keyboard-response","408","493366","0.0-1.0-554.0-0.0","0","0","41119","","69","","","75","61","","","2","61","training","adjacent","FE","6","5","Q.jpg","N.jpg","1","0","0","",""
"","feedback","","html-keyboard-response","409","494372","0.0-1.0-555.0-0.0","0","0","41119","","null","","","null","61","","","","","","","","","","","","","","","",""
"","time_out","","html-keyboard-response","410","496382","0.0-1.0-557.0-0.0","0","0","41119","","null","","","null","61","","","","","","","","","","","","","","","",""
"","ITI","","html-keyboard-response","411","497395","0.0-1.0-558.0","0","0","41119","","null","","","null","61","","","","","","","","","","","","","","","NaN",""
"","S1","","html-keyboard-response","412","497659","0.0-1.0-560.0","0","0","41119","","null","","","null","62","","","","","","","","","","","","","","","",""
"","ISI","","html-keyboard-response","413","498673","0.0-1.0-561.0","0","0","41119","","null","","","null","62","NaN","","","","","","","","","","","","","","",""
"","S2","","html-keyboard-response","414","498931","0.0-1.0-562.0","0","0","41119","","null","","","null","62","","NaN","","","","","","","","","","","","","",""
"","response","","html-keyboard-response","415","499095","0.0-1.0-563.0-0.0","0","0","41119","","160","","","68","62","","","2","62","training","adjacent","CD","3","4","R.jpg","P.jpg","0","1","0","",""
"","feedback","","html-keyboard-response","416","500100","0.0-1.0-564.0-0.0","0","0","41119","","null","","","null","62","","","","","","","","","","","","","","","",""
"","time_out","","html-keyboard-response","417","502110","0.0-1.0-566.0-0.0","0","0","41119","","null","","","null","62","","","","","","","","","","","","","","","",""
"","ITI","","html-keyboard-response","418","503118","0.0-1.0-567.0","0","0","41119","","null","","","null","62","","","","","","","","","","","","","","","NaN",""
"","S1","","html-keyboard-response","419","503379","0.0-1.0-569.0","0","0","41119","","null","","","null","63","","","","","","","","","","","","","","","",""
"","ISI","","html-keyboard-response","420","504391","0.0-1.0-570.0","0","0","41119","","null","","","null","63","NaN","","","","","","","","","","","","","","",""
"","S2","","html-keyboard-response","421","504651","0.0-1.0-571.0","0","0","41119","","null","","","null","63","","NaN","","","","","","","","","","","","","",""
"","response","","html-keyboard-response","422","504759","0.0-1.0-572.0-0.0","0","0","41119","","103","","","75","63","","","2","63","training","adjacent","DC","4","3","P.jpg","R.jpg","1","0","0","",""
"","feedback","","html-keyboard-response","423","505783","0.0-1.0-573.0-0.0","0","0","41119","","null","","","null","63","","","","","","","","","","","","","","","",""
"","time_out","","html-keyboard-response","424","507795","0.0-1.0-575.0-0.0","0","0","41119","","null","","","null","63","","","","","","","","","","","","","","","",""
"","ITI","","html-keyboard-response","425","508804","0.0-1.0-576.0","0","0","41119","","null","","","null","63","","","","","","","","","","","","","","","NaN",""
"","S1","","html-keyboard-response","426","509071","0.0-1.0-578.0","0","0","41119","","null","","","null","64","","","","","","","","","","","","","","","",""
"","ISI","","html-keyboard-response","427","510088","0.0-1.0-579.0","0","0","41119","","null","","","null","64","NaN","","","","","","","","","","","","","","",""
"","S2","","html-keyboard-response","428","510344","0.0-1.0-580.0","0","0","41119","","null","","","null","64","","NaN","","","","","","","","","","","","","",""
"","response","","html-keyboard-response","429","510433","0.0-1.0-581.0-0.0","0","0","41119","","85","","","75","64","","","2","64","training","adjacent","FG","6","7","Q.jpg","L.jpg","1","1","1","",""
"","feedback","","html-keyboard-response","430","511443","0.0-1.0-582.0-0.0","0","0","41119","","null","","","null","64","","","","","","","","","","","","","","","",""
"","ITI","","html-keyboard-response","431","512448","0.0-1.0-585.0","0","0","41119","","null","","","null","64","","","","","","","","","","","","","","","NaN",""
"","S1","","html-keyboard-response","432","512708","0.0-1.0-587.0","0","0","41119","","null","","","null","65","","","","","","","","","","","","","","","",""
"","ISI","","html-keyboard-response","433","513719","0.0-1.0-588.0","0","0","41119","","null","","","null","65","NaN","","","","","","","","","","","","","","",""
"","S2","","html-keyboard-response","434","513978","0.0-1.0-589.0","0","0","41119","","null","","","null","65","","NaN","","","","","","","","","","","","","",""
"","response","","html-keyboard-response","435","514118","0.0-1.0-590.0-0.0","0","0","41119","","137","","","75","65","","","2","65","training","adjacent","DC","4","3","P.jpg","R.jpg","1","0","0","",""
"","feedback","","html-keyboard-response","436","515128","0.0-1.0-591.0-0.0","0","0","41119","","null","","","null","65","","","","","","","","","","","","","","","",""
"","time_out","","html-keyboard-response","437","517138","0.0-1.0-593.0-0.0","0","0","41119","","null","","","null","65","","","","","","","","","","","","","","","",""
"","ITI","","html-keyboard-response","438","518148","0.0-1.0-594.0","0","0","41119","","null","","","null","65","","","","","","","","","","","","","","","NaN",""
"","S1","","html-keyboard-response","439","518411","0.0-1.0-596.0","0","0","41119","","null","","","null","66","","","","","","","","","","","","","","","",""
"","ISI","","html-keyboard-response","440","519425","0.0-1.0-597.0","0","0","41119","","null","","","null","66","NaN","","","","","","","","","","","","","","",""
"","S2","","html-keyboard-response","441","519680","0.0-1.0-598.0","0","0","41119","","null","","","null","66","","NaN","","","","","","","","","","","","","",""
"","response","","html-keyboard-response","442","519825","0.0-1.0-599.0-0.0","0","0","41119","","142","","","68","66","","","2","66","training","adjacent","FE","6","5","Q.jpg","N.jpg","0","0","1","",""
"","feedback","","html-keyboard-response","443","520833","0.0-1.0-600.0-0.0","0","0","41119","","null","","","null","66","","","","","","","","","","","","","","","",""
"","ITI","","html-keyboard-response","444","521844","0.0-1.0-603.0","0","0","41119","","null","","","null","66","","","","","","","","","","","","","","","NaN",""
"","S1","","html-keyboard-response","445","522099","0.0-1.0-605.0","0","0","41119","","null","","","null","67","","","","","","","","","","","","","","","",""
"","ISI","","html-keyboard-response","446","523107","0.0-1.0-606.0","0","0","41119","","null","","","null","67","NaN","","","","","","","","","","","","","","",""
"","S2","","html-keyboard-response","447","523362","0.0-1.0-607.0","0","0","41119","","null","","","null","67","","NaN","","","","","","","","","","","","","",""
"","response","","html-keyboard-response","448","523483","0.0-1.0-608.0-0.0","0","0","41119","","117","","","68","67","","","2","67","training","adjacent","ED","5","4","N.jpg","P.jpg","0","0","1","",""
"","feedback","","html-keyboard-response","449","524496","0.0-1.0-609.0-0.0","0","0","41119","","null","","","null","67","","","","","","","","","","","","","","","",""
"","ITI","","html-keyboard-response","450","525516","0.0-1.0-612.0","0","0","41119","","null","","","null","67","","","","","","","","","","","","","","","NaN",""
"","S1","","html-keyboard-response","451","525776","0.0-1.0-614.0","0","0","41119","","null","","","null","68","","","","","","","","","","","","","","","",""
"","ISI","","html-keyboard-response","452","526793","0.0-1.0-615.0","0","0","41119","","null","","","null","68","NaN","","","","","","","","","","","","","","",""
"","S2","","html-keyboard-response","453","527057","0.0-1.0-616.0","0","0","41119","","null","","","null","68","","NaN","","","","","","","","","","","","","",""
"","response","","html-keyboard-response","454","527248","0.0-1.0-617.0-0.0","0","0","41119","","188","","","75","68","","","2","68","training","adjacent","AB","1","2","O.jpg","M.jpg","1","1","1","",""
"","feedback","","html-keyboard-response","455","528258","0.0-1.0-618.0-0.0","0","0","41119","","null","","","null","68","","","","","","","","","","","","","","","",""
"","ITI","","html-keyboard-response","456","529278","0.0-1.0-621.0","0","0","41119","","null","","","null","68","","","","","","","","","","","","","","","NaN",""
"","S1","","html-keyboard-response","457","529538","0.0-1.0-623.0","0","0","41119","","null","","","null","69","","","","","","","","","","","","","","","",""
"","ISI","","html-keyboard-response","458","530555","0.0-1.0-624.0","0","0","41119","","null","","","null","69","NaN","","","","","","","","","","","","","","",""
"","S2","","html-keyboard-response","459","530812","0.0-1.0-625.0","0","0","41119","","null","","","null","69","","NaN","","","","","","","","","","","","","",""
"","response","","html-keyboard-response","460","530983","0.0-1.0-626.0-0.0","0","0","41119","","167","","","75","69","","","2","69","training","adjacent","FE","6","5","Q.jpg","N.jpg","1","0","0","",""
"","feedback","","html-keyboard-response","461","532005","0.0-1.0-627.0-0.0","0","0","41119","","null","","","null","69","","","","","","","","","","","","","","","",""
"","time_out","","html-keyboard-response","462","534012","0.0-1.0-629.0-0.0","0","0","41119","","null","","","null","69","","","","","","","","","","","","","","","",""
"","ITI","","html-keyboard-response","463","535024","0.0-1.0-630.0","0","0","41119","","null","","","null","69","","","","","","","","","","","","","","","NaN",""
"","S1","","html-keyboard-response","464","535287","0.0-1.0-632.0","0","0","41119","","null","","","null","70","","","","","","","","","","","","","","","",""
"","ISI","","html-keyboard-response","465","536298","0.0-1.0-633.0","0","0","41119","","null","","","null","70","NaN","","","","","","","","","","","","","","",""
"","S2","","html-keyboard-response","466","536556","0.0-1.0-634.0","0","0","41119","","null","","","null","70","","NaN","","","","","","","","","","","","","",""
"","response","","html-keyboard-response","467","536708","0.0-1.0-635.0-0.0","0","0","41119","","148","","","68","70","","","2","70","training","adjacent","BC","2","3","M.jpg","R.jpg","0","1","0","",""
"","feedback","","html-keyboard-response","468","537718","0.0-1.0-636.0-0.0","0","0","41119","","null","","","null","70","","","","","","","","","","","","","","","",""
"","time_out","","html-keyboard-response","469","539728","0.0-1.0-638.0-0.0","0","0","41119","","null","","","null","70","","","","","","","","","","","","","","","",""
"","ITI","","html-keyboard-response","470","540739","0.0-1.0-639.0","0","0","41119","","null","","","null","70","","","","","","","","","","","","","","","NaN",""
"","S1","","html-keyboard-response","471","541001","0.0-1.0-641.0","0","0","41119","","null","","","null","71","","","","","","","","","","","","","","","",""
"","ISI","","html-keyboard-response","472","542018","0.0-1.0-642.0","0","0","41119","","null","","","null","71","NaN","","","","","","","","","","","","","","",""
"","S2","","html-keyboard-response","473","542274","0.0-1.0-643.0","0","0","41119","","null","","","null","71","","NaN","","","","","","","","","","","","","",""
"","response","","html-keyboard-response","474","542428","0.0-1.0-644.0-0.0","0","0","41119","","150","","","68","71","","","2","71","training","adjacent","AB","1","2","O.jpg","M.jpg","0","1","0","",""
"","feedback","","html-keyboard-response","475","543436","0.0-1.0-645.0-0.0","0","0","41119","","null","","","null","71","","","","","","","","","","","","","","","",""
"","time_out","","html-keyboard-response","476","545450","0.0-1.0-647.0-0.0","0","0","41119","","null","","","null","71","","","","","","","","","","","","","","","",""
"","ITI","","html-keyboard-response","477","546455","0.0-1.0-648.0","0","0","41119","","null","","","null","71","","","","","","","","","","","","","","","NaN",""
"","S1","","html-keyboard-response","478","546715","0.0-1.0-650.0","0","0","41119","","null","","","null","72","","","","","","","","","","","","","","","",""
"","ISI","","html-keyboard-response","479","547725","0.0-1.0-651.0","0","0","41119","","null","","","null","72","NaN","","","","","","","","","","","","","","",""
"","S2","","html-keyboard-response","480","547986","0.0-1.0-652.0","0","0","41119","","null","","","null","72","","NaN","","","","","","","","","","","","","",""
"","response","","html-keyboard-response","481","548065","0.0-1.0-653.0-0.0","0","0","41119","","76","","","75","72","","","2","72","training","adjacent","BC","2","3","M.jpg","R.jpg","1","1","1","",""
"","feedback","","html-keyboard-response","482","549073","0.0-1.0-654.0-0.0","0","0","41119","","null","","","null","72","","","","","","","","","","","","","","","",""
"","ITI","","html-keyboard-response","483","550092","0.0-1.0-657.0","0","0","41119","","null","","","null","72","","","","","","","","","","","","","","","NaN",""
"","S1","","html-keyboard-response","484","550356","0.0-1.0-659.0","0","0","41119","","null","","","null","73","","","","","","","","","","","","","","","",""
"","ISI","","html-keyboard-response","485","551377","0.0-1.0-660.0","0","0","41119","","null","","","null","73","NaN","","","","","","","","","","","","","","",""
"","S2","","html-keyboard-response","486","551635","0.0-1.0-661.0","0","0","41119","","null","","","null","73","","NaN","","","","","","","","","","","","","",""
"","response","","html-keyboard-response","487","551714","0.0-1.0-662.0-0.0","0","0","41119","","75","","","75","73","","","2","73","training","adjacent","BC","2","3","M.jpg","R.jpg","1","1","1","",""
"","feedback","","html-keyboard-response","488","552727","0.0-1.0-663.0-0.0","0","0","41119","","null","","","null","73","","","","","","","","","","","","","","","",""
"","ITI","","html-keyboard-response","489","553733","0.0-1.0-666.0","0","0","41119","","null","","","null","73","","","","","","","","","","","","","","","NaN",""
"","S1","","html-keyboard-response","490","553996","0.0-1.0-668.0","0","0","41119","","null","","","null","74","","","","","","","","","","","","","","","",""
"","ISI","","html-keyboard-response","491","555010","0.0-1.0-669.0","0","0","41119","","null","","","null","74","NaN","","","","","","","","","","","","","","",""
"","S2","","html-keyboard-response","492","555271","0.0-1.0-670.0","0","0","41119","","null","","","null","74","","NaN","","","","","","","","","","","","","",""
"","response","","html-keyboard-response","493","555419","0.0-1.0-671.0-0.0","0","0","41119","","143","","","75","74","","","2","74","training","adjacent","DE","4","5","P.jpg","N.jpg","1","1","1","",""
"","feedback","","html-keyboard-response","494","556428","0.0-1.0-672.0-0.0","0","0","41119","","null","","","null","74","","","","","","","","","","","","","","","",""
"","ITI","","html-keyboard-response","495","557437","0.0-1.0-675.0","0","0","41119","","null","","","null","74","","","","","","","","","","","","","","","NaN",""
"","S1","","html-keyboard-response","496","557700","0.0-1.0-677.0","0","0","41119","","null","","","null","75","","","","","","","","","","","","","","","",""
"","ISI","","html-keyboard-response","497","558714","0.0-1.0-678.0","0","0","41119","","null","","","null","75","NaN","","","","","","","","","","","","","","",""
"","S2","","html-keyboard-response","498","558976","0.0-1.0-679.0","0","0","41119","","null","","","null","75","","NaN","","","","","","","","","","","","","",""
"","response","","html-keyboard-response","499","559096","0.0-1.0-680.0-0.0","0","0","41119","","117","","","75","75","","","2","75","training","adjacent","FG","6","7","Q.jpg","L.jpg","1","1","1","",""
"","feedback","","html-keyboard-response","500","560102","0.0-1.0-681.0-0.0","0","0","41119","","null","","","null","75","","","","","","","","","","","","","","","",""
"","ITI","","html-keyboard-response","501","561115","0.0-1.0-684.0","0","0","41119","","null","","","null","75","","","","","","","","","","","","","","","NaN",""
"","S1","","html-keyboard-response","502","561375","0.0-1.0-686.0","0","0","41119","","null","","","null","76","","","","","","","","","","","","","","","",""
"","ISI","","html-keyboard-response","503","562388","0.0-1.0-687.0","0","0","41119","","null","","","null","76","NaN","","","","","","","","","","","","","","",""
"","S2","","html-keyboard-response","504","562652","0.0-1.0-688.0","0","0","41119","","null","","","null","76","","NaN","","","","","","","","","","","","","",""
"","response","","html-keyboard-response","505","562786","0.0-1.0-689.0-0.0","0","0","41119","","130","","","75","76","","","2","76","training","adjacent","DE","4","5","P.jpg","N.jpg","1","1","1","",""
"","feedback","","html-keyboard-response","506","563801","0.0-1.0-690.0-0.0","0","0","41119","","null","","","null","76","","","","","","","","","","","","","","","",""
"","ITI","","html-keyboard-response","507","564809","0.0-1.0-693.0","0","0","41119","","null","","","null","76","","","","","","","","","","","","","","","NaN",""
"","S1","","html-keyboard-response","508","565072","0.0-1.0-695.0","0","0","41119","","null","","","null","77","","","","","","","","","","","","","","","",""
"","ISI","","html-keyboard-response","509","566081","0.0-1.0-696.0","0","0","41119","","null","","","null","77","NaN","","","","","","","","","","","","","","",""
"","S2","","html-keyboard-response","510","566339","0.0-1.0-697.0","0","0","41119","","null","","","null","77","","NaN","","","","","","","","","","","","","",""
"","response","","html-keyboard-response","511","566515","0.0-1.0-698.0-0.0","0","0","41119","","171","","","75","77","","","2","77","training","adjacent","CB","3","2","R.jpg","M.jpg","1","0","0","",""
"","feedback","","html-keyboard-response","512","567529","0.0-1.0-699.0-0.0","0","0","41119","","null","","","null","77","","","","","","","","","","","","","","","",""
"","time_out","","html-keyboard-response","513","569543","0.0-1.0-701.0-0.0","0","0","41119","","null","","","null","77","","","","","","","","","","","","","","","",""
"","ITI","","html-keyboard-response","514","570551","0.0-1.0-702.0","0","0","41119","","null","","","null","77","","","","","","","","","","","","","","","NaN",""
"","S1","","html-keyboard-response","515","570811","0.0-1.0-704.0","0","0","41119","","null","","","null","78","","","","","","","","","","","","","","","",""
"","ISI","","html-keyboard-response","516","571816","0.0-1.0-705.0","0","0","41119","","null","","","null","78","NaN","","","","","","","","","","","","","","",""
"","S2","","html-keyboard-response","517","572081","0.0-1.0-706.0","0","0","41119","","null","","","null","78","","NaN","","","","","","","","","","","","","",""
"","response","","html-keyboard-response","518","572202","0.0-1.0-707.0-0.0","0","0","41119","","117","","","68","78","","","2","78","training","adjacent","CD","3","4","R.jpg","P.jpg","0","1","0","",""
"","feedback","","html-keyboard-response","519","573210","0.0-1.0-708.0-0.0","0","0","41119","","null","","","null","78","","","","","","","","","","","","","","","",""
"","time_out","","html-keyboard-response","520","575222","0.0-1.0-710.0-0.0","0","0","41119","","null","","","null","78","","","","","","","","","","","","","","","",""
"","ITI","","html-keyboard-response","521","576242","0.0-1.0-711.0","0","0","41119","","null","","","null","78","","","","","","","","","","","","","","","NaN",""
"","S1","","html-keyboard-response","522","576506","0.0-1.0-713.0","0","0","41119","","null","","","null","79","","","","","","","","","","","","","","","",""
"","ISI","","html-keyboard-response","523","577517","0.0-1.0-714.0","0","0","41119","","null","","","null","79","NaN","","","","","","","","","","","","","","",""
"","S2","","html-keyboard-response","524","577776","0.0-1.0-715.0","0","0","41119","","null","","","null","79","","NaN","","","","","","","","","","","","","",""
"","response","","html-keyboard-response","525","577941","0.0-1.0-716.0-0.0","0","0","41119","","161","","","75","79","","","2","79","training","adjacent","GF","7","6","L.jpg","Q.jpg","1","0","0","",""
"","feedback","","html-keyboard-response","526","578962","0.0-1.0-717.0-0.0","0","0","41119","","null","","","null","79","","","","","","","","","","","","","","","",""
"","time_out","","html-keyboard-response","527","580975","0.0-1.0-719.0-0.0","0","0","41119","","null","","","null","79","","","","","","","","","","","","","","","",""
"","ITI","","html-keyboard-response","528","581982","0.0-1.0-720.0","0","0","41119","","null","","","null","79","","","","","","","","","","","","","","","NaN",""
"","S1","","html-keyboard-response","529","582238","0.0-1.0-722.0","0","0","41119","","null","","","null","80","","","","","","","","","","","","","","","",""
"","ISI","","html-keyboard-response","530","583249","0.0-1.0-723.0","0","0","41119","","null","","","null","80","NaN","","","","","","","","","","","","","","",""
"","S2","","html-keyboard-response","531","583509","0.0-1.0-724.0","0","0","41119","","null","","","null","80","","NaN","","","","","","","","","","","","","",""
"","response","","html-keyboard-response","532","583795","0.0-1.0-725.0-0.0","0","0","41119","","282","","","75","80","","","2","80","training","adjacent","BC","2","3","M.jpg","R.jpg","1","1","1","",""
"","feedback","","html-keyboard-response","533","584808","0.0-1.0-726.0-0.0","0","0","41119","","null","","","null","80","","","","","","","","","","","","","","","",""
"","ITI","","html-keyboard-response","534","585821","0.0-1.0-729.0","0","0","41119","","null","","","null","80","","","","","","","","","","","","","","","NaN",""
"","S1","","html-keyboard-response","535","586087","0.0-1.0-731.0","0","0","41119","","null","","","null","81","","","","","","","","","","","","","","","",""
"","ISI","","html-keyboard-response","536","587094","0.0-1.0-732.0","0","0","41119","","null","","","null","81","NaN","","","","","","","","","","","","","","",""
"","S2","","html-keyboard-response","537","587357","0.0-1.0-733.0","0","0","41119","","null","","","null","81","","NaN","","","","","","","","","","","","","",""
"","response","","html-keyboard-response","538","587484","0.0-1.0-734.0-0.0","0","0","41119","","123","","","68","81","","","2","81","training","adjacent","AB","1","2","O.jpg","M.jpg","0","1","0","",""
"","feedback","","html-keyboard-response","539","588495","0.0-1.0-735.0-0.0","0","0","41119","","null","","","null","81","","","","","","","","","","","","","","","",""
"","time_out","","html-keyboard-response","540","590507","0.0-1.0-737.0-0.0","0","0","41119","","null","","","null","81","","","","","","","","","","","","","","","",""
"","ITI","","html-keyboard-response","541","591512","0.0-1.0-738.0","0","0","41119","","null","","","null","81","","","","","","","","","","","","","","","NaN",""
"","S1","","html-keyboard-response","542","591773","0.0-1.0-740.0","0","0","41119","","null","","","null","82","","","","","","","","","","","","","","","",""
"","ISI","","html-keyboard-response","543","592777","0.0-1.0-741.0","0","0","41119","","null","","","null","82","NaN","","","","","","","","","","","","","","",""
"","S2","","html-keyboard-response","544","593032","0.0-1.0-742.0","0","0","41119","","null","","","null","82","","NaN","","","","","","","","","","","","","",""
"","response","","html-keyboard-response","545","593116","0.0-1.0-743.0-0.0","0","0","41119","","80","","","75","82","","","2","82","training","adjacent","CD","3","4","R.jpg","P.jpg","1","1","1","",""
"","feedback","","html-keyboard-response","546","594127","0.0-1.0-744.0-0.0","0","0","41119","","null","","","null","82","","","","","","","","","","","","","","","",""
"","ITI","","html-keyboard-response","547","595133","0.0-1.0-747.0","0","0","41119","","null","","","null","82","","","","","","","","","","","","","","","NaN",""
"","S1","","html-keyboard-response","548","595397","0.0-1.0-749.0","0","0","41119","","null","","","null","83","","","","","","","","","","","","","","","",""
"","ISI","","html-keyboard-response","549","596406","0.0-1.0-750.0","0","0","41119","","null","","","null","83","NaN","","","","","","","","","","","","","","",""
"","S2","","html-keyboard-response","550","596667","0.0-1.0-751.0","0","0","41119","","null","","","null","83","","NaN","","","","","","","","","","","","","",""
"","response","","html-keyboard-response","551","596760","0.0-1.0-752.0-0.0","0","0","41119","","89","","","75","83","","","2","83","training","adjacent","CD","3","4","R.jpg","P.jpg","1","1","1","",""
"","feedback","","html-keyboard-response","552","597768","0.0-1.0-753.0-0.0","0","0","41119","","null","","","null","83","","","","","","","","","","","","","","","",""
"","ITI","","html-keyboard-response","553","598787","0.0-1.0-756.0","0","0","41119","","null","","","null","83","","","","","","","","","","","","","","","NaN",""
"","S1","","html-keyboard-response","554","599045","0.0-1.0-758.0","0","0","41119","","null","","","null","84","","","","","","","","","","","","","","","",""
"","ISI","","html-keyboard-response","555","600053","0.0-1.0-759.0","0","0","41119","","null","","","null","84","NaN","","","","","","","","","","","","","","",""
"","S2","","html-keyboard-response","556","600314","0.0-1.0-760.0","0","0","41119","","null","","","null","84","","NaN","","","","","","","","","","","","","",""
"","response","","html-keyboard-response","557","600455","0.0-1.0-761.0-0.0","0","0","41119","","137","","","68","84","","","2","84","training","adjacent","GF","7","6","L.jpg","Q.jpg","0","0","1","",""
"","feedback","","html-keyboard-response","558","601468","0.0-1.0-762.0-0.0","0","0","41119","","null","","","null","84","","","","","","","","","","","","","","","",""
"","ITI","","html-keyboard-response","559","602486","0.0-1.0-765.0","0","0","41119","","null","","","null","84","","","","","","","","","","","","","","","NaN",""
"","S1","","html-keyboard-response","560","602743","0.0-1.0-767.0","0","0","41119","","null","","","null","85","","","","","","","","","","","","","","","",""
"","ISI","","html-keyboard-response","561","603748","0.0-1.0-768.0","0","0","41119","","null","","","null","85","NaN","","","","","","","","","","","","","","",""
"","S2","","html-keyboard-response","562","604017","0.0-1.0-769.0","0","0","41119","","null","","","null","85","","NaN","","","","","","","","","","","","","",""
"","response","","html-keyboard-response","563","604171","0.0-1.0-770.0-0.0","0","0","41119","","150","","","68","85","","","2","85","training","adjacent","DE","4","5","P.jpg","N.jpg","0","1","0","",""
"","feedback","","html-keyboard-response","564","605187","0.0-1.0-771.0-0.0","0","0","41119","","null","","","null","85","","","","","","","","","","","","","","","",""
"","time_out","","html-keyboard-response","565","607197","0.0-1.0-773.0-0.0","0","0","41119","","null","","","null","85","","","","","","","","","","","","","","","",""
"","ITI","","html-keyboard-response","566","608208","0.0-1.0-774.0","0","0","41119","","null","","","null","85","","","","","","","","","","","","","","","NaN",""
"","S1","","html-keyboard-response","567","608472","0.0-1.0-776.0","0","0","41119","","null","","","null","86","","","","","","","","","","","","","","","",""
"","ISI","","html-keyboard-response","568","609477","0.0-1.0-777.0","0","0","41119","","null","","","null","86","NaN","","","","","","","","","","","","","","",""
"","S2","","html-keyboard-response","569","609738","0.0-1.0-778.0","0","0","41119","","null","","","null","86","","NaN","","","","","","","","","","","","","",""
"","response","","html-keyboard-response","570","609780","0.0-1.0-779.0-0.0","0","0","41119","","38","","","75","86","","","2","86","training","adjacent","EF","5","6","N.jpg","Q.jpg","1","1","1","",""
"","feedback","","html-keyboard-response","571","610789","0.0-1.0-780.0-0.0","0","0","41119","","null","","","null","86","","","","","","","","","","","","","","","",""
"","ITI","","html-keyboard-response","572","611797","0.0-1.0-783.0","0","0","41119","","null","","","null","86","","","","","","","","","","","","","","","NaN",""
"","S1","","html-keyboard-response","573","612060","0.0-1.0-785.0","0","0","41119","","null","","","null","87","","","","","","","","","","","","","","","",""
"","ISI","","html-keyboard-response","574","613082","0.0-1.0-786.0","0","0","41119","","null","","","null","87","NaN","","","","","","","","","","","","","","",""
"","S2","","html-keyboard-response","575","613351","0.0-1.0-787.0","0","0","41119","","null","","","null","87","","NaN","","","","","","","","","","","","","",""
"","response","","html-keyboard-response","576","613462","0.0-1.0-788.0-0.0","0","0","41119","","106","","","75","87","","","2","87","training","adjacent","DC","4","3","P.jpg","R.jpg","1","0","0","",""
"","feedback","","html-keyboard-response","577","614479","0.0-1.0-789.0-0.0","0","0","41119","","null","","","null","87","","","","","","","","","","","","","","","",""
"","time_out","","html-keyboard-response","578","616489","0.0-1.0-791.0-0.0","0","0","41119","","null","","","null","87","","","","","","","","","","","","","","","",""
"","ITI","","html-keyboard-response","579","617496","0.0-1.0-792.0","0","0","41119","","null","","","null","87","","","","","","","","","","","","","","","NaN",""
"","S1","","html-keyboard-response","580","617758","0.0-1.0-794.0","0","0","41119","","null","","","null","88","","","","","","","","","","","","","","","",""
"","ISI","","html-keyboard-response","581","618768","0.0-1.0-795.0","0","0","41119","","null","","","null","88","NaN","","","","","","","","","","","","","","",""
"","S2","","html-keyboard-response","582","619024","0.0-1.0-796.0","0","0","41119","","null","","","null","88","","NaN","","","","","","","","","","","","","",""
