"success","ttype","start_time","trial_type","trial_index","time_elapsed","internal_node_id","warning","missed_checkup","PID","view_history","rt","responses","repeat_instructions","key_press","index","keypress_isi","keypress_S2","block","trial_num","phase","group_type","pair_type","S1_stim","S2_stim","S1_img","S2_img","S1_chosen","S1_higher","accuracy","keypress_iti","total_bonus_tally"
"true","full_screen","d04142023hr1632","fullscreen","0","17982","0.0-0.0","0","0","98637","","","","","","","","","","","","","","","","","","","","","",""
"","instructions","","instructions","1","145001","0.0-1.0-0.0-0.0","0","0","98637","[{""page_index"":0,""viewing_time"":17429},{""page_index"":1,""viewing_time"":51616},{""page_index"":2,""viewing_time"":30853},{""page_index"":1,""viewing_time"":22287},{""page_index"":2,""viewing_time"":3066},{""page_index"":3,""viewing_time"":1750}]","127003","","","","","","","","","","","","","","","","","","","",""
"","comprehension_check","","survey-multi-choice","2","167709","0.0-1.0-0.0-1.0","0","0","98637","","22661","{""Q0"":""True"",""Q1"":""K"",""Q2"":""Only when the screen 'MAKE A CHOICE' is shown"",""Q3"":""Green mark"",""Q4"":""either D or K""}","1","","","","","","","","","","","","","","","","","",""
"","missed_instruction_checkup","","html-keyboard-response","3","170623","0.0-1.0-0.0-2.0-0.0","0","1","98637","","2891","","","32","","","","","","","","","","","","","","","","",""
"","instructions","","instructions","4","214706","0.0-1.0-0.1-0.1","0","0","98637","[{""page_index"":0,""viewing_time"":11530},{""page_index"":1,""viewing_time"":22686},{""page_index"":2,""viewing_time"":8334},{""page_index"":3,""viewing_time"":1520}]","44071","","","","","","","","","","","","","","","","","","","",""
"","comprehension_check","","survey-multi-choice","5","250540","0.0-1.0-0.1-1.1","0","0","98637","","35805","{""Q0"":""True"",""Q1"":""K"",""Q2"":""Once the second image appears and while the screen 'MAKE A CHOICE' is shown"",""Q3"":""Green mark"",""Q4"":""either D or K""}","0","","","","","","","","","","","","","","","","","",""
"","start_exp","","html-keyboard-response","6","252188","0.0-1.0-1.0","0","0","98637","","1632","","","32","","","","","","","","","","","","","","","","",""
"","S1","","html-keyboard-response","7","252461","0.0-1.0-2.0","0","0","98637","","null","","","null","0","","","","","","","","","","","","","","","",""
"","ISI","","html-keyboard-response","8","253479","0.0-1.0-3.0","0","0","98637","","null","","","null","0","NaN","","","","","","","","","","","","","","",""
"","S2","","html-keyboard-response","9","253750","0.0-1.0-4.0","0","0","98637","","null","","","null","0","","NaN","","","","","","","","","","","","","",""
"","response","","html-keyboard-response","10","255090","0.0-1.0-5.0-0.0","0","0","98637","","1324","","","68","0","","","1","0","training","adjacent","BC","2","3","O.jpg","L.jpg","0","1","0","",""
"","feedback","","html-keyboard-response","11","256111","0.0-1.0-6.0-0.0","0","0","98637","","null","","","null","0","","","","","","","","","","","","","","","",""
"","time_out","","html-keyboard-response","12","258136","0.0-1.0-8.0-0.0","0","0","98637","","null","","","null","0","","","","","","","","","","","","","","","",""
"","ITI","","html-keyboard-response","13","259160","0.0-1.0-9.0","0","0","98637","","null","","","null","0","","","","","","","","","","","","","","","NaN",""
"","S1","","html-keyboard-response","14","259436","0.0-1.0-11.0","0","0","98637","","null","","","null","1","","","","","","","","","","","","","","","",""
"","ISI","","html-keyboard-response","15","260451","0.0-1.0-12.0","0","0","98637","","null","","","null","1","NaN","","","","","","","","","","","","","","",""
"","S2","","html-keyboard-response","16","260720","0.0-1.0-13.0","0","0","98637","","null","","","null","1","","NaN","","","","","","","","","","","","","",""
"","response","","html-keyboard-response","17","261541","0.0-1.0-14.0-0.0","0","0","98637","","808","","","75","1","","","1","1","training","adjacent","CB","3","2","L.jpg","O.jpg","1","0","0","",""
"","feedback","","html-keyboard-response","18","262558","0.0-1.0-15.0-0.0","0","0","98637","","null","","","null","1","","","","","","","","","","","","","","","",""
"","time_out","","html-keyboard-response","19","264574","0.0-1.0-17.0-0.0","0","0","98637","","null","","","null","1","","","","","","","","","","","","","","","",""
"","ITI","","html-keyboard-response","20","265591","0.0-1.0-18.0","0","0","98637","","null","","","null","1","","","","","","","","","","","","","","","NaN",""
"","S1","","html-keyboard-response","21","265862","0.0-1.0-20.0","0","0","98637","","null","","","null","2","","","","","","","","","","","","","","","",""
"","ISI","","html-keyboard-response","22","266878","0.0-1.0-21.0","0","0","98637","","null","","","null","2","NaN","","","","","","","","","","","","","","",""
"","S2","","html-keyboard-response","23","267152","0.0-1.0-22.0","0","0","98637","","null","","","null","2","","NaN","","","","","","","","","","","","","",""
"","response","","html-keyboard-response","24","267453","0.0-1.0-23.0-0.0","0","0","98637","","289","","","68","2","","","1","2","training","adjacent","AB","1","2","M.jpg","O.jpg","0","1","0","",""
"","feedback","","html-keyboard-response","25","268472","0.0-1.0-24.0-0.0","0","0","98637","","null","","","null","2","","","","","","","","","","","","","","","",""
"","time_out","","html-keyboard-response","26","270494","0.0-1.0-26.0-0.0","0","0","98637","","null","","","null","2","","","","","","","","","","","","","","","",""
"","ITI","","html-keyboard-response","27","271511","0.0-1.0-27.0","0","0","98637","","null","","","null","2","","","","","","","","","","","","","","","NaN",""
"","S1","","html-keyboard-response","28","271783","0.0-1.0-29.0","0","0","98637","","null","","","null","3","","","","","","","","","","","","","","","",""
"","ISI","","html-keyboard-response","29","272798","0.0-1.0-30.0","0","0","98637","","null","","","null","3","NaN","","","","","","","","","","","","","","",""
"","S2","","html-keyboard-response","30","273071","0.0-1.0-31.0","0","0","98637","","null","","","null","3","","NaN","","","","","","","","","","","","","",""
"","response","","html-keyboard-response","31","273135","0.0-1.0-32.0-0.0","0","0","98637","","52","","","75","3","","","1","3","training","adjacent","BA","2","1","O.jpg","M.jpg","1","0","0","",""
"","feedback","","html-keyboard-response","32","274149","0.0-1.0-33.0-0.0","0","0","98637","","null","","","null","3","","","","","","","","","","","","","","","",""
"","time_out","","html-keyboard-response","33","276175","0.0-1.0-35.0-0.0","0","0","98637","","null","","","null","3","","","","","","","","","","","","","","","",""
"","ITI","","html-keyboard-response","34","277189","0.0-1.0-36.0","0","0","98637","","null","","","null","3","","","","","","","","","","","","","","","NaN",""
"","S1","","html-keyboard-response","35","277451","0.0-1.0-38.0","0","0","98637","","null","","","null","4","","","","","","","","","","","","","","","",""
"","ISI","","html-keyboard-response","36","278471","0.0-1.0-39.0","0","0","98637","","null","","","null","4","NaN","","","","","","","","","","","","","","",""
"","S2","","html-keyboard-response","37","278747","0.0-1.0-40.0","0","0","98637","","null","","","null","4","","NaN","","","","","","","","","","","","","",""
"","response","","html-keyboard-response","38","279041","0.0-1.0-41.0-0.0","0","0","98637","","283","","","75","4","","","1","4","training","adjacent","GF","7","6","Q.jpg","N.jpg","1","0","0","",""
"","feedback","","html-keyboard-response","39","280063","0.0-1.0-42.0-0.0","0","0","98637","","null","","","null","4","","","","","","","","","","","","","","","",""
"","time_out","","html-keyboard-response","40","282078","0.0-1.0-44.0-0.0","0","0","98637","","null","","","null","4","","","","","","","","","","","","","","","",""
"","ITI","","html-keyboard-response","41","283094","0.0-1.0-45.0","0","0","98637","","null","","","null","4","","","","","","","","","","","","","","","NaN",""
"","S1","","html-keyboard-response","42","283363","0.0-1.0-47.0","0","0","98637","","null","","","null","5","","","","","","","","","","","","","","","",""
"","ISI","","html-keyboard-response","43","284383","0.0-1.0-48.0","0","0","98637","","null","","","null","5","NaN","","","","","","","","","","","","","","",""
"","S2","","html-keyboard-response","44","284655","0.0-1.0-49.0","0","0","98637","","null","","","null","5","","NaN","","","","","","","","","","","","","",""
"","response","","html-keyboard-response","45","284991","0.0-1.0-50.0-0.0","0","0","98637","","325","","","68","5","","","1","5","training","adjacent","EF","5","6","R.jpg","N.jpg","0","1","0","",""
"","feedback","","html-keyboard-response","46","286015","0.0-1.0-51.0-0.0","0","0","98637","","null","","","null","5","","","","","","","","","","","","","","","",""
"","time_out","","html-keyboard-response","47","288031","0.0-1.0-53.0-0.0","0","0","98637","","null","","","null","5","","","","","","","","","","","","","","","",""
"","ITI","","html-keyboard-response","48","289045","0.0-1.0-54.0","0","0","98637","","null","","","null","5","","","","","","","","","","","","","","","NaN",""
"","S1","","html-keyboard-response","49","289308","0.0-1.0-56.0","0","0","98637","","null","","","null","6","","","","","","","","","","","","","","","",""
"","ISI","","html-keyboard-response","50","290326","0.0-1.0-57.0","0","0","98637","","72","","","75","6","k","","","","","","","","","","","","","","",""
"","S2","","html-keyboard-response","51","290598","0.0-1.0-58.0","0","0","98637","","null","","","null","6","","NaN","","","","","","","","","","","","","",""
"","response","","html-keyboard-response","52","290696","0.0-1.0-59.0-0.0","0","0","98637","","85","","","75","6","","","1","6","training","adjacent","BA","2","1","O.jpg","M.jpg","1","0","0","",""
"","feedback","","html-keyboard-response","53","291715","0.0-1.0-60.0-0.0","0","0","98637","","null","","","null","6","","","","","","","","","","","","","","","",""
"","time_out","","html-keyboard-response","54","293741","0.0-1.0-62.0-0.0","0","0","98637","","null","","","null","6","","","","","","","","","","","","","","","",""
"","ITI","","html-keyboard-response","55","294757","0.0-1.0-63.0","0","0","98637","","null","","","null","6","","","","","","","","","","","","","","","NaN",""
"","S1","","html-keyboard-response","56","295021","0.0-1.0-65.0","0","0","98637","","null","","","null","7","","","","","","","","","","","","","","","",""
"","ISI","","html-keyboard-response","57","296036","0.0-1.0-66.0","0","0","98637","","null","","","null","7","NaN","","","","","","","","","","","","","","",""
"","S2","","html-keyboard-response","58","296302","0.0-1.0-67.0","0","0","98637","","null","","","null","7","","NaN","","","","","","","","","","","","","",""
"","response","","html-keyboard-response","59","296638","0.0-1.0-68.0-0.0","0","0","98637","","320","","","68","7","","","1","7","training","adjacent","FE","6","5","N.jpg","R.jpg","0","0","1","",""
"","feedback","","html-keyboard-response","60","297654","0.0-1.0-69.0-0.0","0","0","98637","","null","","","null","7","","","","","","","","","","","","","","","",""
"","ITI","","html-keyboard-response","61","298672","0.0-1.0-72.0","0","0","98637","","null","","","null","7","","","","","","","","","","","","","","","NaN",""
"","S1","","html-keyboard-response","62","298943","0.0-1.0-74.0","0","0","98637","","null","","","null","8","","","","","","","","","","","","","","","",""
"","ISI","","html-keyboard-response","63","299959","0.0-1.0-75.0","0","0","98637","","null","","","null","8","NaN","","","","","","","","","","","","","","",""
"","S2","","html-keyboard-response","64","300227","0.0-1.0-76.0","0","0","98637","","null","","","null","8","","NaN","","","","","","","","","","","","","",""
"","response","","html-keyboard-response","65","300462","0.0-1.0-77.0-0.0","0","0","98637","","221","","","75","8","","","1","8","training","adjacent","ED","5","4","R.jpg","P.jpg","1","0","0","",""
"","feedback","","html-keyboard-response","66","301487","0.0-1.0-78.0-0.0","0","0","98637","","null","","","null","8","","","","","","","","","","","","","","","",""
"","time_out","","html-keyboard-response","67","303513","0.0-1.0-80.0-0.0","0","0","98637","","null","","","null","8","","","","","","","","","","","","","","","",""
"","ITI","","html-keyboard-response","68","304535","0.0-1.0-81.0","0","0","98637","","null","","","null","8","","","","","","","","","","","","","","","NaN",""
"","S1","","html-keyboard-response","69","304807","0.0-1.0-83.0","0","0","98637","","null","","","null","9","","","","","","","","","","","","","","","",""
"","ISI","","html-keyboard-response","70","305822","0.0-1.0-84.0","0","0","98637","","null","","","null","9","NaN","","","","","","","","","","","","","","",""
"","S2","","html-keyboard-response","71","306096","0.0-1.0-85.0","0","0","98637","","null","","","null","9","","NaN","","","","","","","","","","","","","",""
"","response","","html-keyboard-response","72","306173","0.0-1.0-86.0-0.0","0","0","98637","","62","","","68","9","","","1","9","training","adjacent","BC","2","3","O.jpg","L.jpg","0","1","0","",""
"","feedback","","html-keyboard-response","73","307188","0.0-1.0-87.0-0.0","0","0","98637","","null","","","null","9","","","","","","","","","","","","","","","",""
"","time_out","","html-keyboard-response","74","309203","0.0-1.0-89.0-0.0","0","0","98637","","null","","","null","9","","","","","","","","","","","","","","","",""
"","ITI","","html-keyboard-response","75","310221","0.0-1.0-90.0","0","0","98637","","null","","","null","9","","","","","","","","","","","","","","","NaN",""
"","S1","","html-keyboard-response","76","310494","0.0-1.0-92.0","0","0","98637","","null","","","null","10","","","","","","","","","","","","","","","",""
"","ISI","","html-keyboard-response","77","311512","0.0-1.0-93.0","0","0","98637","","null","","","null","10","NaN","","","","","","","","","","","","","","",""
"","S2","","html-keyboard-response","78","311781","0.0-1.0-94.0","0","0","98637","","null","","","null","10","","NaN","","","","","","","","","","","","","",""
"","response","","html-keyboard-response","79","312886","0.0-1.0-95.0-0.0","0","0","98637","","1088","","","68","10","","","1","10","training","adjacent","DE","4","5","P.jpg","R.jpg","0","1","0","",""
"","feedback","","html-keyboard-response","80","313911","0.0-1.0-96.0-0.0","0","0","98637","","null","","","null","10","","","","","","","","","","","","","","","",""
"","time_out","","html-keyboard-response","81","315926","0.0-1.0-98.0-0.0","0","0","98637","","null","","","null","10","","","","","","","","","","","","","","","",""
"","ITI","","html-keyboard-response","82","316942","0.0-1.0-99.0","0","0","98637","","null","","","null","10","","","","","","","","","","","","","","","NaN",""
"","S1","","html-keyboard-response","83","317212","0.0-1.0-101.0","0","0","98637","","null","","","null","11","","","","","","","","","","","","","","","",""
"","ISI","","html-keyboard-response","84","318230","0.0-1.0-102.0","0","0","98637","","null","","","null","11","NaN","","","","","","","","","","","","","","",""
"","S2","","html-keyboard-response","85","318503","0.0-1.0-103.0","0","0","98637","","null","","","null","11","","NaN","","","","","","","","","","","","","",""
"","response","","html-keyboard-response","86","319442","0.0-1.0-104.0-0.0","0","0","98637","","922","","","68","11","","","1","11","training","adjacent","CD","3","4","L.jpg","P.jpg","0","1","0","",""
"","feedback","","html-keyboard-response","87","320462","0.0-1.0-105.0-0.0","0","0","98637","","null","","","null","11","","","","","","","","","","","","","","","",""
"","time_out","","html-keyboard-response","88","322488","0.0-1.0-107.0-0.0","0","0","98637","","null","","","null","11","","","","","","","","","","","","","","","",""
"","ITI","","html-keyboard-response","89","323510","0.0-1.0-108.0","0","0","98637","","null","","","null","11","","","","","","","","","","","","","","","NaN",""
"","S1","","html-keyboard-response","90","323782","0.0-1.0-110.0","0","0","98637","","null","","","null","12","","","","","","","","","","","","","","","",""
"","ISI","","html-keyboard-response","91","324801","0.0-1.0-111.0","0","0","98637","","null","","","null","12","NaN","","","","","","","","","","","","","","",""
"","S2","","html-keyboard-response","92","325071","0.0-1.0-112.0","0","0","98637","","null","","","null","12","","NaN","","","","","","","","","","","","","",""
"","response","","html-keyboard-response","93","325900","0.0-1.0-113.0-0.0","0","0","98637","","818","","","68","12","","","1","12","training","adjacent","FG","6","7","N.jpg","Q.jpg","0","1","0","",""
"","feedback","","html-keyboard-response","94","326918","0.0-1.0-114.0-0.0","0","0","98637","","null","","","null","12","","","","","","","","","","","","","","","",""
"","time_out","","html-keyboard-response","95","328935","0.0-1.0-116.0-0.0","0","0","98637","","null","","","null","12","","","","","","","","","","","","","","","",""
"","ITI","","html-keyboard-response","96","329958","0.0-1.0-117.0","0","0","98637","","null","","","null","12","","","","","","","","","","","","","","","NaN",""
"","S1","","html-keyboard-response","97","330230","0.0-1.0-119.0","0","0","98637","","null","","","null","13","","","","","","","","","","","","","","","",""
"","ISI","","html-keyboard-response","98","331245","0.0-1.0-120.0","0","0","98637","","null","","","null","13","NaN","","","","","","","","","","","","","","",""
"","S2","","html-keyboard-response","99","331518","0.0-1.0-121.0","0","0","98637","","null","","","null","13","","NaN","","","","","","","","","","","","","",""
"","response","","html-keyboard-response","100","332199","0.0-1.0-122.0-0.0","0","0","98637","","668","","","75","13","","","1","13","training","adjacent","CB","3","2","L.jpg","O.jpg","1","0","0","",""
"","feedback","","html-keyboard-response","101","333212","0.0-1.0-123.0-0.0","0","0","98637","","null","","","null","13","","","","","","","","","","","","","","","",""
"","time_out","","html-keyboard-response","102","335230","0.0-1.0-125.0-0.0","0","0","98637","","null","","","null","13","","","","","","","","","","","","","","","",""
"","ITI","","html-keyboard-response","103","336247","0.0-1.0-126.0","0","0","98637","","null","","","null","13","","","","","","","","","","","","","","","NaN",""
"","S1","","html-keyboard-response","104","336519","0.0-1.0-128.0","0","0","98637","","null","","","null","14","","","","","","","","","","","","","","","",""
"","ISI","","html-keyboard-response","105","337535","0.0-1.0-129.0","0","0","98637","","null","","","null","14","NaN","","","","","","","","","","","","","","",""
"","S2","","html-keyboard-response","106","337805","0.0-1.0-130.0","0","0","98637","","null","","","null","14","","NaN","","","","","","","","","","","","","",""
"","response","","html-keyboard-response","107","338306","0.0-1.0-131.0-0.0","0","0","98637","","488","","","68","14","","","1","14","training","adjacent","CD","3","4","L.jpg","P.jpg","0","1","0","",""
"","feedback","","html-keyboard-response","108","339336","0.0-1.0-132.0-0.0","0","0","98637","","null","","","null","14","","","","","","","","","","","","","","","",""
"","time_out","","html-keyboard-response","109","341353","0.0-1.0-134.0-0.0","0","0","98637","","null","","","null","14","","","","","","","","","","","","","","","",""
"","ITI","","html-keyboard-response","110","342373","0.0-1.0-135.0","0","0","98637","","null","","","null","14","","","","","","","","","","","","","","","NaN",""
"","S1","","html-keyboard-response","111","342640","0.0-1.0-137.0","0","0","98637","","null","","","null","15","","","","","","","","","","","","","","","",""
"","ISI","","html-keyboard-response","112","343654","0.0-1.0-138.0","0","0","98637","","null","","","null","15","NaN","","","","","","","","","","","","","","",""
"","S2","","html-keyboard-response","113","343923","0.0-1.0-139.0","0","0","98637","","null","","","null","15","","NaN","","","","","","","","","","","","","",""
"","response","","html-keyboard-response","114","345697","0.0-1.0-140.0-0.0","0","0","98637","","null","","","null","15","","","1","15","training","adjacent","DC","4","3","P.jpg","L.jpg","NaN","0","0","",""
"","too_slow_prompt","","html-keyboard-response","115","346726","0.0-1.0-142.0-0.0","1","0","98637","","null","","","null","","","","","","","","","","","","","","","","",""
"","time_out","","html-keyboard-response","116","348747","0.0-1.0-143.0-0.0","0","0","98637","","null","","","null","15","","","","","","","","","","","","","","","",""
"","ITI","","html-keyboard-response","117","349766","0.0-1.0-144.0","0","0","98637","","null","","","null","15","","","","","","","","","","","","","","","NaN",""
"","S1","","html-keyboard-response","118","350035","0.0-1.0-146.0","0","0","98637","","null","","","null","16","","","","","","","","","","","","","","","",""
"","ISI","","html-keyboard-response","119","351056","0.0-1.0-147.0","0","0","98637","","null","","","null","16","NaN","","","","","","","","","","","","","","",""
"","S2","","html-keyboard-response","120","351325","0.0-1.0-148.0","0","0","98637","","null","","","null","16","","NaN","","","","","","","","","","","","","",""
"","response","","html-keyboard-response","121","351544","0.0-1.0-149.0-0.0","0","0","98637","","205","","","68","16","","","1","16","training","adjacent","DE","4","5","P.jpg","R.jpg","0","1","0","",""
"","feedback","","html-keyboard-response","122","352566","0.0-1.0-150.0-0.0","0","0","98637","","null","","","null","16","","","","","","","","","","","","","","","",""
"","time_out","","html-keyboard-response","123","354582","0.0-1.0-152.0-0.0","0","0","98637","","null","","","null","16","","","","","","","","","","","","","","","",""
"","ITI","","html-keyboard-response","124","355599","0.0-1.0-153.0","0","0","98637","","null","","","null","16","","","","","","","","","","","","","","","NaN",""
"","S1","","html-keyboard-response","125","355865","0.0-1.0-155.0","0","0","98637","","null","","","null","17","","","","","","","","","","","","","","","",""
"","ISI","","html-keyboard-response","126","356878","0.0-1.0-156.0","0","0","98637","","296","","","75","17","k","","","","","","","","","","","","","","",""
"","S2","","html-keyboard-response","127","357150","0.0-1.0-157.0","0","0","98637","","null","","","null","17","","NaN","","","","","","","","","","","","","",""
"","response","","html-keyboard-response","128","357242","0.0-1.0-158.0-0.0","0","0","98637","","80","","","75","17","","","1","17","training","adjacent","FG","6","7","N.jpg","Q.jpg","1","1","1","",""
"","feedback","","html-keyboard-response","129","358261","0.0-1.0-159.0-0.0","0","0","98637","","null","","","null","17","","","","","","","","","","","","","","","",""
"","ITI","","html-keyboard-response","130","359277","0.0-1.0-162.0","0","0","98637","","null","","","null","17","","","","","","","","","","","","","","","NaN",""
"","S1","","html-keyboard-response","131","359551","0.0-1.0-164.0","0","0","98637","","null","","","null","18","","","","","","","","","","","","","","","",""
"","ISI","","html-keyboard-response","132","360566","0.0-1.0-165.0","0","0","98637","","null","","","null","18","NaN","","","","","","","","","","","","","","",""
"","S2","","html-keyboard-response","133","360838","0.0-1.0-166.0","0","0","98637","","null","","","null","18","","NaN","","","","","","","","","","","","","",""
"","response","","html-keyboard-response","134","361147","0.0-1.0-167.0-0.0","0","0","98637","","293","","","75","18","","","1","18","training","adjacent","EF","5","6","R.jpg","N.jpg","1","1","1","",""
"","feedback","","html-keyboard-response","135","362169","0.0-1.0-168.0-0.0","0","0","98637","","null","","","null","18","","","","","","","","","","","","","","","",""
"","ITI","","html-keyboard-response","136","363192","0.0-1.0-171.0","0","0","98637","","null","","","null","18","","","","","","","","","","","","","","","NaN",""
"","S1","","html-keyboard-response","137","363463","0.0-1.0-173.0","0","0","98637","","null","","","null","19","","","","","","","","","","","","","","","",""
"","ISI","","html-keyboard-response","138","364479","0.0-1.0-174.0","0","0","98637","","null","","","null","19","NaN","","","","","","","","","","","","","","",""
"","S2","","html-keyboard-response","139","364750","0.0-1.0-175.0","0","0","98637","","null","","","null","19","","NaN","","","","","","","","","","","","","",""
"","response","","html-keyboard-response","140","364898","0.0-1.0-176.0-0.0","0","0","98637","","135","","","75","19","","","1","19","training","adjacent","BC","2","3","O.jpg","L.jpg","1","1","1","",""
"","feedback","","html-keyboard-response","141","365918","0.0-1.0-177.0-0.0","0","0","98637","","null","","","null","19","","","","","","","","","","","","","","","",""
"","ITI","","html-keyboard-response","142","366933","0.0-1.0-180.0","0","0","98637","","null","","","null","19","","","","","","","","","","","","","","","NaN",""
"","S1","","html-keyboard-response","143","367206","0.0-1.0-182.0","0","0","98637","","null","","","null","20","","","","","","","","","","","","","","","",""
"","ISI","","html-keyboard-response","144","368221","0.0-1.0-183.0","0","0","98637","","null","","","null","20","NaN","","","","","","","","","","","","","","",""
"","S2","","html-keyboard-response","145","368496","0.0-1.0-184.0","0","0","98637","","null","","","null","20","","NaN","","","","","","","","","","","","","",""
"","response","","html-keyboard-response","146","368592","0.0-1.0-185.0-0.0","0","0","98637","","81","","","75","20","","","1","20","training","adjacent","BA","2","1","O.jpg","M.jpg","1","0","0","",""
"","feedback","","html-keyboard-response","147","369616","0.0-1.0-186.0-0.0","0","0","98637","","null","","","null","20","","","","","","","","","","","","","","","",""
"","time_out","","html-keyboard-response","148","371639","0.0-1.0-188.0-0.0","0","0","98637","","null","","","null","20","","","","","","","","","","","","","","","",""
"","ITI","","html-keyboard-response","149","372654","0.0-1.0-189.0","0","0","98637","","null","","","null","20","","","","","","","","","","","","","","","NaN",""
"","S1","","html-keyboard-response","150","372923","0.0-1.0-191.0","0","0","98637","","null","","","null","21","","","","","","","","","","","","","","","",""
"","ISI","","html-keyboard-response","151","373941","0.0-1.0-192.0","0","0","98637","","null","","","null","21","NaN","","","","","","","","","","","","","","",""
"","S2","","html-keyboard-response","152","374214","0.0-1.0-193.0","0","0","98637","","null","","","null","21","","NaN","","","","","","","","","","","","","",""
"","response","","html-keyboard-response","153","374670","0.0-1.0-194.0-0.0","0","0","98637","","444","","","75","21","","","1","21","training","adjacent","GF","7","6","Q.jpg","N.jpg","1","0","0","",""
"","feedback","","html-keyboard-response","154","375688","0.0-1.0-195.0-0.0","0","0","98637","","null","","","null","21","","","","","","","","","","","","","","","",""
"","time_out","","html-keyboard-response","155","377710","0.0-1.0-197.0-0.0","0","0","98637","","null","","","null","21","","","","","","","","","","","","","","","",""
"","ITI","","html-keyboard-response","156","378730","0.0-1.0-198.0","0","0","98637","","null","","","null","21","","","","","","","","","","","","","","","NaN",""
"","S1","","html-keyboard-response","157","378999","0.0-1.0-200.0","0","0","98637","","null","","","null","22","","","","","","","","","","","","","","","",""
"","ISI","","html-keyboard-response","158","380015","0.0-1.0-201.0","0","0","98637","","null","","","null","22","NaN","","","","","","","","","","","","","","",""
"","S2","","html-keyboard-response","159","380287","0.0-1.0-202.0","0","0","98637","","null","","","null","22","","NaN","","","","","","","","","","","","","",""
"","response","","html-keyboard-response","160","381100","0.0-1.0-203.0-0.0","0","0","98637","","796","","","75","22","","","1","22","training","adjacent","FG","6","7","N.jpg","Q.jpg","1","1","1","",""
"","feedback","","html-keyboard-response","161","382118","0.0-1.0-204.0-0.0","0","0","98637","","null","","","null","22","","","","","","","","","","","","","","","",""
"","ITI","","html-keyboard-response","162","383135","0.0-1.0-207.0","0","0","98637","","null","","","null","22","","","","","","","","","","","","","","","NaN",""
"","S1","","html-keyboard-response","163","383406","0.0-1.0-209.0","0","0","98637","","null","","","null","23","","","","","","","","","","","","","","","",""
"","ISI","","html-keyboard-response","164","384424","0.0-1.0-210.0","0","0","98637","","null","","","null","23","NaN","","","","","","","","","","","","","","",""
"","S2","","html-keyboard-response","165","384696","0.0-1.0-211.0","0","0","98637","","null","","","null","23","","NaN","","","","","","","","","","","","","",""
"","response","","html-keyboard-response","166","385105","0.0-1.0-212.0-0.0","0","0","98637","","395","","","75","23","","","1","23","training","adjacent","DC","4","3","P.jpg","L.jpg","1","0","0","",""
"","feedback","","html-keyboard-response","167","386128","0.0-1.0-213.0-0.0","0","0","98637","","null","","","null","23","","","","","","","","","","","","","","","",""
"","time_out","","html-keyboard-response","168","388148","0.0-1.0-215.0-0.0","0","0","98637","","null","","","null","23","","","","","","","","","","","","","","","",""
"","ITI","","html-keyboard-response","169","389165","0.0-1.0-216.0","0","0","98637","","null","","","null","23","","","","","","","","","","","","","","","NaN",""
"","S1","","html-keyboard-response","170","389435","0.0-1.0-218.0","0","0","98637","","null","","","null","24","","","","","","","","","","","","","","","",""
"","ISI","","html-keyboard-response","171","390453","0.0-1.0-219.0","0","0","98637","","null","","","null","24","NaN","","","","","","","","","","","","","","",""
"","S2","","html-keyboard-response","172","390723","0.0-1.0-220.0","0","0","98637","","null","","","null","24","","NaN","","","","","","","","","","","","","",""
"","response","","html-keyboard-response","173","390883","0.0-1.0-221.0-0.0","0","0","98637","","148","","","75","24","","","1","24","training","adjacent","FG","6","7","N.jpg","Q.jpg","1","1","1","",""
"","feedback","","html-keyboard-response","174","391903","0.0-1.0-222.0-0.0","0","0","98637","","null","","","null","24","","","","","","","","","","","","","","","",""
"","ITI","","html-keyboard-response","175","392926","0.0-1.0-225.0","0","0","98637","","null","","","null","24","","","","","","","","","","","","","","","NaN",""
"","S1","","html-keyboard-response","176","393195","0.0-1.0-227.0","0","0","98637","","null","","","null","25","","","","","","","","","","","","","","","",""
"","ISI","","html-keyboard-response","177","394212","0.0-1.0-228.0","0","0","98637","","null","","","null","25","NaN","","","","","","","","","","","","","","",""
"","S2","","html-keyboard-response","178","394479","0.0-1.0-229.0","0","0","98637","","null","","","null","25","","NaN","","","","","","","","","","","","","",""
"","response","","html-keyboard-response","179","395178","0.0-1.0-230.0-0.0","0","0","98637","","683","","","68","25","","","1","25","training","adjacent","AB","1","2","M.jpg","O.jpg","0","1","0","",""
"","feedback","","html-keyboard-response","180","396195","0.0-1.0-231.0-0.0","0","0","98637","","null","","","null","25","","","","","","","","","","","","","","","",""
"","time_out","","html-keyboard-response","181","398211","0.0-1.0-233.0-0.0","0","0","98637","","null","","","null","25","","","","","","","","","","","","","","","",""
"","ITI","","html-keyboard-response","182","399228","0.0-1.0-234.0","0","0","98637","","null","","","null","25","","","","","","","","","","","","","","","NaN",""
"","S1","","html-keyboard-response","183","399491","0.0-1.0-236.0","0","0","98637","","null","","","null","26","","","","","","","","","","","","","","","",""
"","ISI","","html-keyboard-response","184","400506","0.0-1.0-237.0","0","0","98637","","null","","","null","26","NaN","","","","","","","","","","","","","","",""
"","S2","","html-keyboard-response","185","400774","0.0-1.0-238.0","0","0","98637","","null","","","null","26","","NaN","","","","","","","","","","","","","",""
"","response","","html-keyboard-response","186","400834","0.0-1.0-239.0-0.0","0","0","98637","","48","","","75","26","","","1","26","training","adjacent","GF","7","6","Q.jpg","N.jpg","1","0","0","",""
"","feedback","","html-keyboard-response","187","401853","0.0-1.0-240.0-0.0","0","0","98637","","null","","","null","26","","","","","","","","","","","","","","","",""
"","time_out","","html-keyboard-response","188","403871","0.0-1.0-242.0-0.0","0","0","98637","","null","","","null","26","","","","","","","","","","","","","","","",""
"","ITI","","html-keyboard-response","189","404881","0.0-1.0-243.0","0","0","98637","","null","","","null","26","","","","","","","","","","","","","","","NaN",""
"","S1","","html-keyboard-response","190","405148","0.0-1.0-245.0","0","0","98637","","null","","","null","27","","","","","","","","","","","","","","","",""
"","ISI","","html-keyboard-response","191","406172","0.0-1.0-246.0","0","0","98637","","null","","","null","27","NaN","","","","","","","","","","","","","","",""
"","S2","","html-keyboard-response","192","406445","0.0-1.0-247.0","0","0","98637","","null","","","null","27","","NaN","","","","","","","","","","","","","",""
"","response","","html-keyboard-response","193","407351","0.0-1.0-248.0-0.0","0","0","98637","","895","","","68","27","","","1","27","training","adjacent","CD","3","4","L.jpg","P.jpg","0","1","0","",""
"","feedback","","html-keyboard-response","194","408374","0.0-1.0-249.0-0.0","0","0","98637","","null","","","null","27","","","","","","","","","","","","","","","",""
"","time_out","","html-keyboard-response","195","410389","0.0-1.0-251.0-0.0","0","0","98637","","null","","","null","27","","","","","","","","","","","","","","","",""
"","ITI","","html-keyboard-response","196","411406","0.0-1.0-252.0","0","0","98637","","null","","","null","27","","","","","","","","","","","","","","","NaN",""
"","S1","","html-keyboard-response","197","411678","0.0-1.0-254.0","0","0","98637","","null","","","null","28","","","","","","","","","","","","","","","",""
"","ISI","","html-keyboard-response","198","412695","0.0-1.0-255.0","0","0","98637","","null","","","null","28","NaN","","","","","","","","","","","","","","",""
"","S2","","html-keyboard-response","199","412968","0.0-1.0-256.0","0","0","98637","","null","","","null","28","","NaN","","","","","","","","","","","","","",""
"","response","","html-keyboard-response","200","413351","0.0-1.0-257.0-0.0","0","0","98637","","368","","","75","28","","","1","28","training","adjacent","EF","5","6","R.jpg","N.jpg","1","1","1","",""
"","feedback","","html-keyboard-response","201","414377","0.0-1.0-258.0-0.0","0","0","98637","","null","","","null","28","","","","","","","","","","","","","","","",""
"","ITI","","html-keyboard-response","202","415397","0.0-1.0-261.0","0","0","98637","","null","","","null","28","","","","","","","","","","","","","","","NaN",""
"","S1","","html-keyboard-response","203","415678","0.0-1.0-263.0","0","0","98637","","null","","","null","29","","","","","","","","","","","","","","","",""
"","ISI","","html-keyboard-response","204","416691","0.0-1.0-264.0","0","0","98637","","null","","","null","29","NaN","","","","","","","","","","","","","","",""
"","S2","","html-keyboard-response","205","416958","0.0-1.0-265.0","0","0","98637","","null","","","null","29","","NaN","","","","","","","","","","","","","",""
"","response","","html-keyboard-response","206","417785","0.0-1.0-266.0-0.0","0","0","98637","","813","","","75","29","","","1","29","training","adjacent","FE","6","5","N.jpg","R.jpg","1","0","0","",""
"","feedback","","html-keyboard-response","207","418806","0.0-1.0-267.0-0.0","0","0","98637","","null","","","null","29","","","","","","","","","","","","","","","",""
"","time_out","","html-keyboard-response","208","420822","0.0-1.0-269.0-0.0","0","0","98637","","null","","","null","29","","","","","","","","","","","","","","","",""
"","ITI","","html-keyboard-response","209","421840","0.0-1.0-270.0","0","0","98637","","null","","","null","29","","","","","","","","","","","","","","","NaN",""
"","S1","","html-keyboard-response","210","422111","0.0-1.0-272.0","0","0","98637","","null","","","null","30","","","","","","","","","","","","","","","",""
"","ISI","","html-keyboard-response","211","423127","0.0-1.0-273.0","0","0","98637","","null","","","null","30","NaN","","","","","","","","","","","","","","",""
"","S2","","html-keyboard-response","212","423397","0.0-1.0-274.0","0","0","98637","","null","","","null","30","","NaN","","","","","","","","","","","","","",""
"","response","","html-keyboard-response","213","423449","0.0-1.0-275.0-0.0","0","0","98637","","40","","","68","30","","","1","30","training","adjacent","BC","2","3","O.jpg","L.jpg","0","1","0","",""
"","feedback","","html-keyboard-response","214","424470","0.0-1.0-276.0-0.0","0","0","98637","","null","","","null","30","","","","","","","","","","","","","","","",""
"","time_out","","html-keyboard-response","215","426486","0.0-1.0-278.0-0.0","0","0","98637","","null","","","null","30","","","","","","","","","","","","","","","",""
"","ITI","","html-keyboard-response","216","427503","0.0-1.0-279.0","0","0","98637","","null","","","null","30","","","","","","","","","","","","","","","NaN",""
"","S1","","html-keyboard-response","217","427772","0.0-1.0-281.0","0","0","98637","","null","","","null","31","","","","","","","","","","","","","","","",""
"","ISI","","html-keyboard-response","218","428791","0.0-1.0-282.0","0","0","98637","","102","","","75","31","k","","","","","","","","","","","","","","",""
"","S2","","html-keyboard-response","219","429063","0.0-1.0-283.0","0","0","98637","","null","","","null","31","","NaN","","","","","","","","","","","","","",""
"","response","","html-keyboard-response","220","429107","0.0-1.0-284.0-0.0","0","0","98637","","31","","","75","31","","","1","31","training","adjacent","ED","5","4","R.jpg","P.jpg","1","0","0","",""
"","feedback","","html-keyboard-response","221","430127","0.0-1.0-285.0-0.0","0","0","98637","","null","","","null","31","","","","","","","","","","","","","","","",""
"","time_out","","html-keyboard-response","222","432151","0.0-1.0-287.0-0.0","0","0","98637","","null","","","null","31","","","","","","","","","","","","","","","",""
"","ITI","","html-keyboard-response","223","433167","0.0-1.0-288.0","0","0","98637","","null","","","null","31","","","","","","","","","","","","","","","NaN",""
"","S1","","html-keyboard-response","224","433438","0.0-1.0-290.0","0","0","98637","","null","","","null","32","","","","","","","","","","","","","","","",""
"","ISI","","html-keyboard-response","225","434455","0.0-1.0-291.0","0","0","98637","","161","","","68","32","d","","","","","","","","","","","","","","",""
"","S2","","html-keyboard-response","226","434737","0.0-1.0-292.0","0","0","98637","","null","","","null","32","","NaN","","","","","","","","","","","","","",""
"","response","","html-keyboard-response","227","434799","0.0-1.0-293.0-0.0","0","0","98637","","49","","","68","32","","","1","32","training","adjacent","FE","6","5","N.jpg","R.jpg","0","0","1","",""
"","feedback","","html-keyboard-response","228","435821","0.0-1.0-294.0-0.0","0","0","98637","","null","","","null","32","","","","","","","","","","","","","","","",""
"","ITI","","html-keyboard-response","229","436835","0.0-1.0-297.0","0","0","98637","","null","","","null","32","","","","","","","","","","","","","","","NaN",""
"","S1","","html-keyboard-response","230","437103","0.0-1.0-299.0","0","0","98637","","null","","","null","33","","","","","","","","","","","","","","","",""
"","ISI","","html-keyboard-response","231","438118","0.0-1.0-300.0","0","0","98637","","null","","","null","33","NaN","","","","","","","","","","","","","","",""
"","S2","","html-keyboard-response","232","438392","0.0-1.0-301.0","0","0","98637","","null","","","null","33","","NaN","","","","","","","","","","","","","",""
"","response","","html-keyboard-response","233","439293","0.0-1.0-302.0-0.0","0","0","98637","","887","","","75","33","","","1","33","training","adjacent","DC","4","3","P.jpg","L.jpg","1","0","0","",""
"","feedback","","html-keyboard-response","234","440311","0.0-1.0-303.0-0.0","0","0","98637","","null","","","null","33","","","","","","","","","","","","","","","",""
"","time_out","","html-keyboard-response","235","442331","0.0-1.0-305.0-0.0","0","0","98637","","null","","","null","33","","","","","","","","","","","","","","","",""
"","ITI","","html-keyboard-response","236","443351","0.0-1.0-306.0","0","0","98637","","null","","","null","33","","","","","","","","","","","","","","","NaN",""
"","S1","","html-keyboard-response","237","443623","0.0-1.0-308.0","0","0","98637","","null","","","null","34","","","","","","","","","","","","","","","",""
"","ISI","","html-keyboard-response","238","444641","0.0-1.0-309.0","0","0","98637","","null","","","null","34","NaN","","","","","","","","","","","","","","",""
"","S2","","html-keyboard-response","239","444914","0.0-1.0-310.0","0","0","98637","","null","","","null","34","","NaN","","","","","","","","","","","","","",""
"","response","","html-keyboard-response","240","445627","0.0-1.0-311.0-0.0","0","0","98637","","701","","","68","34","","","1","34","training","adjacent","DC","4","3","P.jpg","L.jpg","0","0","1","",""
"","feedback","","html-keyboard-response","241","446647","0.0-1.0-312.0-0.0","0","0","98637","","null","","","null","34","","","","","","","","","","","","","","","",""
"","ITI","","html-keyboard-response","242","447671","0.0-1.0-315.0","0","0","98637","","null","","","null","34","","","","","","","","","","","","","","","NaN",""
"","S1","","html-keyboard-response","243","447943","0.0-1.0-317.0","0","0","98637","","null","","","null","35","","","","","","","","","","","","","","","",""
"","ISI","","html-keyboard-response","244","448959","0.0-1.0-318.0","0","0","98637","","null","","","null","35","NaN","","","","","","","","","","","","","","",""
"","S2","","html-keyboard-response","245","449228","0.0-1.0-319.0","0","0","98637","","null","","","null","35","","NaN","","","","","","","","","","","","","",""
"","response","","html-keyboard-response","246","450390","0.0-1.0-320.0-0.0","0","0","98637","","1151","","","68","35","","","1","35","training","adjacent","EF","5","6","R.jpg","N.jpg","0","1","0","",""
"","feedback","","html-keyboard-response","247","451407","0.0-1.0-321.0-0.0","0","0","98637","","null","","","null","35","","","","","","","","","","","","","","","",""
"","time_out","","html-keyboard-response","248","453428","0.0-1.0-323.0-0.0","0","0","98637","","null","","","null","35","","","","","","","","","","","","","","","",""
"","ITI","","html-keyboard-response","249","454444","0.0-1.0-324.0","0","0","98637","","null","","","null","35","","","","","","","","","","","","","","","NaN",""
"","S1","","html-keyboard-response","250","454711","0.0-1.0-326.0","0","0","98637","","null","","","null","36","","","","","","","","","","","","","","","",""
"","ISI","","html-keyboard-response","251","455726","0.0-1.0-327.0","0","0","98637","","null","","","null","36","NaN","","","","","","","","","","","","","","",""
"","S2","","html-keyboard-response","252","456000","0.0-1.0-328.0","0","0","98637","","null","","","null","36","","NaN","","","","","","","","","","","","","",""
"","response","","html-keyboard-response","253","456699","0.0-1.0-329.0-0.0","0","0","98637","","687","","","68","36","","","1","36","training","adjacent","GF","7","6","Q.jpg","N.jpg","0","0","1","",""
"","feedback","","html-keyboard-response","254","457719","0.0-1.0-330.0-0.0","0","0","98637","","null","","","null","36","","","","","","","","","","","","","","","",""
"","ITI","","html-keyboard-response","255","458739","0.0-1.0-333.0","0","0","98637","","null","","","null","36","","","","","","","","","","","","","","","NaN",""
"","S1","","html-keyboard-response","256","459007","0.0-1.0-335.0","0","0","98637","","null","","","null","37","","","","","","","","","","","","","","","",""
"","ISI","","html-keyboard-response","257","460026","0.0-1.0-336.0","0","0","98637","","null","","","null","37","NaN","","","","","","","","","","","","","","",""
"","S2","","html-keyboard-response","258","460294","0.0-1.0-337.0","0","0","98637","","null","","","null","37","","NaN","","","","","","","","","","","","","",""
"","response","","html-keyboard-response","259","462059","0.0-1.0-338.0-0.0","0","0","98637","","null","","","null","37","","","1","37","training","adjacent","ED","5","4","R.jpg","P.jpg","NaN","0","0","",""
"","too_slow_prompt","","html-keyboard-response","260","463079","0.0-1.0-340.0-0.0","1","0","98637","","null","","","null","","","","","","","","","","","","","","","","",""
"","time_out","","html-keyboard-response","261","465095","0.0-1.0-341.0-0.0","0","0","98637","","null","","","null","37","","","","","","","","","","","","","","","",""
"","ITI","","html-keyboard-response","262","466109","0.0-1.0-342.0","0","0","98637","","null","","","null","37","","","","","","","","","","","","","","","NaN",""
"","S1","","html-keyboard-response","263","466382","0.0-1.0-344.0","0","0","98637","","null","","","null","38","","","","","","","","","","","","","","","",""
"","ISI","","html-keyboard-response","264","467398","0.0-1.0-345.0","0","0","98637","","221","","","75","38","k","","","","","","","","","","","","","","",""
"","S2","","html-keyboard-response","265","467671","0.0-1.0-346.0","0","0","98637","","254","","","75","38","","k","1","38","training","adjacent","DE","4","5","P.jpg","R.jpg","1","1","1","",""
"","feedback","","html-keyboard-response","266","468695","0.0-1.0-348.0-0.0","0","0","98637","","null","","","null","38","","","","","","","","","","","","","","","",""
"","ITI","","html-keyboard-response","267","469718","0.0-1.0-351.0","0","0","98637","","null","","","null","38","","","","","","","","","","","","","","","NaN",""
"","S1","","html-keyboard-response","268","469990","0.0-1.0-353.0","0","0","98637","","null","","","null","39","","","","","","","","","","","","","","","",""
"","ISI","","html-keyboard-response","269","471006","0.0-1.0-354.0","0","0","98637","","null","","","null","39","NaN","","","","","","","","","","","","","","",""
"","S2","","html-keyboard-response","270","471274","0.0-1.0-355.0","0","0","98637","","null","","","null","39","","NaN","","","","","","","","","","","","","",""
"","response","","html-keyboard-response","271","471322","0.0-1.0-356.0-0.0","0","0","98637","","38","","","75","39","","","1","39","training","adjacent","AB","1","2","M.jpg","O.jpg","1","1","1","",""
"","feedback","","html-keyboard-response","272","472344","0.0-1.0-357.0-0.0","0","0","98637","","null","","","null","39","","","","","","","","","","","","","","","",""
"","ITI","","html-keyboard-response","273","473367","0.0-1.0-360.0","0","0","98637","","null","","","null","39","","","","","","","","","","","","","","","NaN",""
"","S1","","html-keyboard-response","274","473639","0.0-1.0-362.0","0","0","98637","","null","","","null","40","","","","","","","","","","","","","","","",""
"","ISI","","html-keyboard-response","275","474656","0.0-1.0-363.0","0","0","98637","","null","","","null","40","NaN","","","","","","","","","","","","","","",""
"","S2","","html-keyboard-response","276","474927","0.0-1.0-364.0","0","0","98637","","null","","","null","40","","NaN","","","","","","","","","","","","","",""
"","response","","html-keyboard-response","277","475732","0.0-1.0-365.0-0.0","0","0","98637","","791","","","68","40","","","1","40","training","adjacent","CB","3","2","L.jpg","O.jpg","0","0","1","",""
"","feedback","","html-keyboard-response","278","476747","0.0-1.0-366.0-0.0","0","0","98637","","null","","","null","40","","","","","","","","","","","","","","","",""
"","ITI","","html-keyboard-response","279","477766","0.0-1.0-369.0","0","0","98637","","null","","","null","40","","","","","","","","","","","","","","","NaN",""
"","S1","","html-keyboard-response","280","478040","0.0-1.0-371.0","0","0","98637","","null","","","null","41","","","","","","","","","","","","","","","",""
"","ISI","","html-keyboard-response","281","479062","0.0-1.0-372.0","0","0","98637","","null","","","null","41","NaN","","","","","","","","","","","","","","",""
"","S2","","html-keyboard-response","282","479333","0.0-1.0-373.0","0","0","98637","","null","","","null","41","","NaN","","","","","","","","","","","","","",""
"","response","","html-keyboard-response","283","479921","0.0-1.0-374.0-0.0","0","0","98637","","573","","","68","41","","","1","41","training","adjacent","FE","6","5","N.jpg","R.jpg","0","0","1","",""
"","feedback","","html-keyboard-response","284","480942","0.0-1.0-375.0-0.0","0","0","98637","","null","","","null","41","","","","","","","","","","","","","","","",""
"","ITI","","html-keyboard-response","285","481958","0.0-1.0-378.0","0","0","98637","","null","","","null","41","","","","","","","","","","","","","","","NaN",""
"","S1","","html-keyboard-response","286","482231","0.0-1.0-380.0","0","0","98637","","null","","","null","42","","","","","","","","","","","","","","","",""
"","ISI","","html-keyboard-response","287","483244","0.0-1.0-381.0","0","0","98637","","null","","","null","42","NaN","","","","","","","","","","","","","","",""
"","S2","","html-keyboard-response","288","483509","0.0-1.0-382.0","0","0","98637","","null","","","null","42","","NaN","","","","","","","","","","","","","",""
"","response","","html-keyboard-response","289","483629","0.0-1.0-383.0-0.0","0","0","98637","","106","","","75","42","","","1","42","training","adjacent","CB","3","2","L.jpg","O.jpg","1","0","0","",""
"","feedback","","html-keyboard-response","290","484647","0.0-1.0-384.0-0.0","0","0","98637","","null","","","null","42","","","","","","","","","","","","","","","",""
"","time_out","","html-keyboard-response","291","486670","0.0-1.0-386.0-0.0","0","0","98637","","null","","","null","42","","","","","","","","","","","","","","","",""
"","ITI","","html-keyboard-response","292","487687","0.0-1.0-387.0","0","0","98637","","null","","","null","42","","","","","","","","","","","","","","","NaN",""
"","S1","","html-keyboard-response","293","487959","0.0-1.0-389.0","0","0","98637","","null","","","null","43","","","","","","","","","","","","","","","",""
"","ISI","","html-keyboard-response","294","488975","0.0-1.0-390.0","0","0","98637","","null","","","null","43","NaN","","","","","","","","","","","","","","",""
"","S2","","html-keyboard-response","295","489148","0.0-1.0-391.0","0","0","98637","","159","","","68","43","","d","1","43","training","adjacent","AB","1","2","M.jpg","O.jpg","0","1","0","",""
"","feedback","","html-keyboard-response","296","490184","0.0-1.0-393.0-0.0","0","0","98637","","null","","","null","43","","","","","","","","","","","","","","","",""
"","time_out","","html-keyboard-response","297","492205","0.0-1.0-395.0-0.0","0","0","98637","","null","","","null","43","","","","","","","","","","","","","","","",""
"","ITI","","html-keyboard-response","298","493220","0.0-1.0-396.0","0","0","98637","","null","","","null","43","","","","","","","","","","","","","","","NaN",""
"","S1","","html-keyboard-response","299","493493","0.0-1.0-398.0","0","0","98637","","null","","","null","44","","","","","","","","","","","","","","","",""
"","ISI","","html-keyboard-response","300","494510","0.0-1.0-399.0","0","0","98637","","null","","","null","44","NaN","","","","","","","","","","","","","","",""
"","S2","","html-keyboard-response","301","494781","0.0-1.0-400.0","0","0","98637","","null","","","null","44","","NaN","","","","","","","","","","","","","",""
"","response","","html-keyboard-response","302","494928","0.0-1.0-401.0-0.0","0","0","98637","","135","","","75","44","","","1","44","training","adjacent","DE","4","5","P.jpg","R.jpg","1","1","1","",""
"","feedback","","html-keyboard-response","303","495950","0.0-1.0-402.0-0.0","0","0","98637","","null","","","null","44","","","","","","","","","","","","","","","",""
"","ITI","","html-keyboard-response","304","496975","0.0-1.0-405.0","0","0","98637","","null","","","null","44","","","","","","","","","","","","","","","NaN",""
"","S1","","html-keyboard-response","305","497247","0.0-1.0-407.0","0","0","98637","","null","","","null","45","","","","","","","","","","","","","","","",""
"","ISI","","html-keyboard-response","306","498262","0.0-1.0-408.0","0","0","98637","","null","","","null","45","NaN","","","","","","","","","","","","","","",""
"","S2","","html-keyboard-response","307","498534","0.0-1.0-409.0","0","0","98637","","null","","","null","45","","NaN","","","","","","","","","","","","","",""
"","response","","html-keyboard-response","308","499374","0.0-1.0-410.0-0.0","0","0","98637","","823","","","75","45","","","1","45","training","adjacent","BA","2","1","O.jpg","M.jpg","1","0","0","",""
"","feedback","","html-keyboard-response","309","500404","0.0-1.0-411.0-0.0","0","0","98637","","null","","","null","45","","","","","","","","","","","","","","","",""
"","time_out","","html-keyboard-response","310","502434","0.0-1.0-413.0-0.0","0","0","98637","","null","","","null","45","","","","","","","","","","","","","","","",""
"","ITI","","html-keyboard-response","311","503454","0.0-1.0-414.0","0","0","98637","","null","","","null","45","","","","","","","","","","","","","","","NaN",""
"","S1","","html-keyboard-response","312","503725","0.0-1.0-416.0","0","0","98637","","null","","","null","46","","","","","","","","","","","","","","","",""
"","ISI","","html-keyboard-response","313","504740","0.0-1.0-417.0","0","0","98637","","null","","","null","46","NaN","","","","","","","","","","","","","","",""
"","S2","","html-keyboard-response","314","505015","0.0-1.0-418.0","0","0","98637","","null","","","null","46","","NaN","","","","","","","","","","","","","",""
"","response","","html-keyboard-response","315","505185","0.0-1.0-419.0-0.0","0","0","98637","","157","","","68","46","","","1","46","training","adjacent","CD","3","4","L.jpg","P.jpg","0","1","0","",""
"","feedback","","html-keyboard-response","316","506206","0.0-1.0-420.0-0.0","0","0","98637","","null","","","null","46","","","","","","","","","","","","","","","",""
"","time_out","","html-keyboard-response","317","508221","0.0-1.0-422.0-0.0","0","0","98637","","null","","","null","46","","","","","","","","","","","","","","","",""
"","ITI","","html-keyboard-response","318","509236","0.0-1.0-423.0","0","0","98637","","null","","","null","46","","","","","","","","","","","","","","","NaN",""
"","S1","","html-keyboard-response","319","509503","0.0-1.0-425.0","0","0","98637","","null","","","null","47","","","","","","","","","","","","","","","",""
"","ISI","","html-keyboard-response","320","510518","0.0-1.0-426.0","0","0","98637","","114","","","75","47","k","","","","","","","","","","","","","","",""
"","S2","","html-keyboard-response","321","510790","0.0-1.0-427.0","0","0","98637","","null","","","null","47","","NaN","","","","","","","","","","","","","",""
"","response","","html-keyboard-response","322","511194","0.0-1.0-428.0-0.0","0","0","98637","","392","","","75","47","","","1","47","training","adjacent","ED","5","4","R.jpg","P.jpg","1","0","0","",""
"","feedback","","html-keyboard-response","323","512213","0.0-1.0-429.0-0.0","0","0","98637","","null","","","null","47","","","","","","","","","","","","","","","",""
"","time_out","","html-keyboard-response","324","514230","0.0-1.0-431.0-0.0","0","0","98637","","null","","","null","47","","","","","","","","","","","","","","","",""
"","ITI","","html-keyboard-response","325","515242","0.0-1.0-432.0","0","0","98637","","null","","","null","47","","","","","","","","","","","","","","","NaN",""
"","block_over","","html-keyboard-response","326","553538","0.0-1.0-433.0-0.0","0","0","98637","","38278","","","32","47","","","","","","","","","","","","","","","",""
"","S1","","html-keyboard-response","327","553806","0.0-1.0-434.0","0","0","98637","","null","","","null","48","","","","","","","","","","","","","","","",""
"","ISI","","html-keyboard-response","328","554821","0.0-1.0-435.0","0","0","98637","","null","","","null","48","NaN","","","","","","","","","","","","","","",""
"","S2","","html-keyboard-response","329","555095","0.0-1.0-436.0","0","0","98637","","null","","","null","48","","NaN","","","","","","","","","","","","","",""
"","response","","html-keyboard-response","330","555775","0.0-1.0-437.0-0.0","0","0","98637","","668","","","68","48","","","2","48","training","adjacent","DC","4","3","P.jpg","L.jpg","0","0","1","",""
"","feedback","","html-keyboard-response","331","556798","0.0-1.0-438.0-0.0","0","0","98637","","null","","","null","48","","","","","","","","","","","","","","","",""
"","ITI","","html-keyboard-response","332","557822","0.0-1.0-441.0","0","0","98637","","null","","","null","48","","","","","","","","","","","","","","","NaN",""
"","S1","","html-keyboard-response","333","558094","0.0-1.0-443.0","0","0","98637","","null","","","null","49","","","","","","","","","","","","","","","",""
"","ISI","","html-keyboard-response","334","559110","0.0-1.0-444.0","0","0","98637","","null","","","null","49","NaN","","","","","","","","","","","","","","",""
"","S2","","html-keyboard-response","335","559381","0.0-1.0-445.0","0","0","98637","","null","","","null","49","","NaN","","","","","","","","","","","","","",""
"","response","","html-keyboard-response","336","560449","0.0-1.0-446.0-0.0","0","0","98637","","1048","","","75","49","","","2","49","training","adjacent","CD","3","4","L.jpg","P.jpg","1","1","1","",""
"","feedback","","html-keyboard-response","337","561479","0.0-1.0-447.0-0.0","0","0","98637","","null","","","null","49","","","","","","","","","","","","","","","",""
"","ITI","","html-keyboard-response","338","562503","0.0-1.0-450.0","0","0","98637","","null","","","null","49","","","","","","","","","","","","","","","NaN",""
"","S1","","html-keyboard-response","339","562773","0.0-1.0-452.0","0","0","98637","","null","","","null","50","","","","","","","","","","","","","","","",""
"","ISI","","html-keyboard-response","340","563790","0.0-1.0-453.0","0","0","98637","","null","","","null","50","NaN","","","","","","","","","","","","","","",""
"","S2","","html-keyboard-response","341","564059","0.0-1.0-454.0","0","0","98637","","null","","","null","50","","NaN","","","","","","","","","","","","","",""
"","response","","html-keyboard-response","342","565830","0.0-1.0-455.0-0.0","0","0","98637","","null","","","null","50","","","2","50","training","adjacent","BC","2","3","O.jpg","L.jpg","NaN","1","0","",""
"","too_slow_prompt","","html-keyboard-response","343","566846","0.0-1.0-457.0-0.0","1","0","98637","","null","","","null","","","","","","","","","","","","","","","","",""
"","time_out","","html-keyboard-response","344","568862","0.0-1.0-458.0-0.0","0","0","98637","","null","","","null","50","","","","","","","","","","","","","","","",""
"","ITI","","html-keyboard-response","345","569879","0.0-1.0-459.0","0","0","98637","","null","","","null","50","","","","","","","","","","","","","","","NaN",""
"","S1","","html-keyboard-response","346","570151","0.0-1.0-461.0","0","0","98637","","null","","","null","51","","","","","","","","","","","","","","","",""
"","ISI","","html-keyboard-response","347","571165","0.0-1.0-462.0","0","0","98637","","null","","","null","51","NaN","","","","","","","","","","","","","","",""
"","S2","","html-keyboard-response","348","571454","0.0-1.0-463.0","0","0","98637","","null","","","null","51","","NaN","","","","","","","","","","","","","",""
"","response","","html-keyboard-response","349","571907","0.0-1.0-464.0-0.0","0","0","98637","","439","","","68","51","","","2","51","training","adjacent","DE","4","5","P.jpg","R.jpg","0","1","0","",""
"","feedback","","html-keyboard-response","350","572926","0.0-1.0-465.0-0.0","0","0","98637","","null","","","null","51","","","","","","","","","","","","","","","",""
"","time_out","","html-keyboard-response","351","574951","0.0-1.0-467.0-0.0","0","0","98637","","null","","","null","51","","","","","","","","","","","","","","","",""
"","ITI","","html-keyboard-response","352","575967","0.0-1.0-468.0","0","0","98637","","null","","","null","51","","","","","","","","","","","","","","","NaN",""
"","S1","","html-keyboard-response","353","576237","0.0-1.0-470.0","0","0","98637","","null","","","null","52","","","","","","","","","","","","","","","",""
"","ISI","","html-keyboard-response","354","577253","0.0-1.0-471.0","0","0","98637","","null","","","null","52","NaN","","","","","","","","","","","","","","",""
"","S2","","html-keyboard-response","355","577525","0.0-1.0-472.0","0","0","98637","","null","","","null","52","","NaN","","","","","","","","","","","","","",""
"","response","","html-keyboard-response","356","577708","0.0-1.0-473.0-0.0","0","0","98637","","169","","","75","52","","","2","52","training","adjacent","FG","6","7","N.jpg","Q.jpg","1","1","1","",""
"","feedback","","html-keyboard-response","357","578730","0.0-1.0-474.0-0.0","0","0","98637","","null","","","null","52","","","","","","","","","","","","","","","",""
"","ITI","","html-keyboard-response","358","579749","0.0-1.0-477.0","0","0","98637","","null","","","null","52","","","","","","","","","","","","","","","NaN",""
"","S1","","html-keyboard-response","359","580021","0.0-1.0-479.0","0","0","98637","","null","","","null","53","","","","","","","","","","","","","","","",""
"","ISI","","html-keyboard-response","360","581038","0.0-1.0-480.0","0","0","98637","","null","","","null","53","NaN","","","","","","","","","","","","","","",""
"","S2","","html-keyboard-response","361","581308","0.0-1.0-481.0","0","0","98637","","null","","","null","53","","NaN","","","","","","","","","","","","","",""
"","response","","html-keyboard-response","362","581381","0.0-1.0-482.0-0.0","0","0","98637","","61","","","68","53","","","2","53","training","adjacent","BA","2","1","O.jpg","M.jpg","0","0","1","",""
"","feedback","","html-keyboard-response","363","582400","0.0-1.0-483.0-0.0","0","0","98637","","null","","","null","53","","","","","","","","","","","","","","","",""
"","ITI","","html-keyboard-response","364","583423","0.0-1.0-486.0","0","0","98637","","null","","","null","53","","","","","","","","","","","","","","","NaN",""
"","S1","","html-keyboard-response","365","583695","0.0-1.0-488.0","0","0","98637","","null","","","null","54","","","","","","","","","","","","","","","",""
"","ISI","","html-keyboard-response","366","584711","0.0-1.0-489.0","0","0","98637","","null","","","null","54","NaN","","","","","","","","","","","","","","",""
"","S2","","html-keyboard-response","367","584981","0.0-1.0-490.0","0","0","98637","","null","","","null","54","","NaN","","","","","","","","","","","","","",""
"","response","","html-keyboard-response","368","585112","0.0-1.0-491.0-0.0","0","0","98637","","118","","","75","54","","","2","54","training","adjacent","DC","4","3","P.jpg","L.jpg","1","0","0","",""
"","feedback","","html-keyboard-response","369","586135","0.0-1.0-492.0-0.0","0","0","98637","","null","","","null","54","","","","","","","","","","","","","","","",""
"","time_out","","html-keyboard-response","370","588161","0.0-1.0-494.0-0.0","0","0","98637","","null","","","null","54","","","","","","","","","","","","","","","",""
"","ITI","","html-keyboard-response","371","589182","0.0-1.0-495.0","0","0","98637","","null","","","null","54","","","","","","","","","","","","","","","NaN",""
"","S1","","html-keyboard-response","372","589454","0.0-1.0-497.0","0","0","98637","","null","","","null","55","","","","","","","","","","","","","","","",""
"","ISI","","html-keyboard-response","373","590471","0.0-1.0-498.0","0","0","98637","","null","","","null","55","NaN","","","","","","","","","","","","","","",""
"","S2","","html-keyboard-response","374","590741","0.0-1.0-499.0","0","0","98637","","null","","","null","55","","NaN","","","","","","","","","","","","","",""
"","response","","html-keyboard-response","375","590829","0.0-1.0-500.0-0.0","0","0","98637","","77","","","68","55","","","2","55","training","adjacent","FG","6","7","N.jpg","Q.jpg","0","1","0","",""
"","feedback","","html-keyboard-response","376","591845","0.0-1.0-501.0-0.0","0","0","98637","","null","","","null","55","","","","","","","","","","","","","","","",""
"","time_out","","html-keyboard-response","377","593861","0.0-1.0-503.0-0.0","0","0","98637","","null","","","null","55","","","","","","","","","","","","","","","",""
"","ITI","","html-keyboard-response","378","594879","0.0-1.0-504.0","0","0","98637","","null","","","null","55","","","","","","","","","","","","","","","NaN",""
"","S1","","html-keyboard-response","379","595150","0.0-1.0-506.0","0","0","98637","","null","","","null","56","","","","","","","","","","","","","","","",""
"","ISI","","html-keyboard-response","380","596176","0.0-1.0-507.0","0","0","98637","","null","","","null","56","NaN","","","","","","","","","","","","","","",""
"","S2","","html-keyboard-response","381","596445","0.0-1.0-508.0","0","0","98637","","null","","","null","56","","NaN","","","","","","","","","","","","","",""
"","response","","html-keyboard-response","382","596470","0.0-1.0-509.0-0.0","0","0","98637","","13","","","68","56","","","2","56","training","adjacent","BC","2","3","O.jpg","L.jpg","0","1","0","",""
"","feedback","","html-keyboard-response","383","597487","0.0-1.0-510.0-0.0","0","0","98637","","null","","","null","56","","","","","","","","","","","","","","","",""
"","time_out","","html-keyboard-response","384","599509","0.0-1.0-512.0-0.0","0","0","98637","","null","","","null","56","","","","","","","","","","","","","","","",""
"","ITI","","html-keyboard-response","385","600526","0.0-1.0-513.0","0","0","98637","","null","","","null","56","","","","","","","","","","","","","","","NaN",""
"","S1","","html-keyboard-response","386","600800","0.0-1.0-515.0","0","0","98637","","null","","","null","57","","","","","","","","","","","","","","","",""
"","ISI","","html-keyboard-response","387","601823","0.0-1.0-516.0","0","0","98637","","null","","","null","57","NaN","","","","","","","","","","","","","","",""
"","S2","","html-keyboard-response","388","602095","0.0-1.0-517.0","0","0","98637","","null","","","null","57","","NaN","","","","","","","","","","","","","",""
"","response","","html-keyboard-response","389","602231","0.0-1.0-518.0-0.0","0","0","98637","","124","","","75","57","","","2","57","training","adjacent","AB","1","2","M.jpg","O.jpg","1","1","1","",""
"","feedback","","html-keyboard-response","390","603254","0.0-1.0-519.0-0.0","0","0","98637","","null","","","null","57","","","","","","","","","","","","","","","",""
"","ITI","","html-keyboard-response","391","604282","0.0-1.0-522.0","0","0","98637","","null","","","null","57","","","","","","","","","","","","","","","NaN",""
"","S1","","html-keyboard-response","392","604551","0.0-1.0-524.0","0","0","98637","","null","","","null","58","","","","","","","","","","","","","","","",""
"","ISI","","html-keyboard-response","393","605566","0.0-1.0-525.0","0","0","98637","","null","","","null","58","NaN","","","","","","","","","","","","","","",""
"","S2","","html-keyboard-response","394","605839","0.0-1.0-526.0","0","0","98637","","null","","","null","58","","NaN","","","","","","","","","","","","","",""
"","response","","html-keyboard-response","395","606733","0.0-1.0-527.0-0.0","0","0","98637","","882","","","75","58","","","2","58","training","adjacent","EF","5","6","R.jpg","N.jpg","1","1","1","",""
"","feedback","","html-keyboard-response","396","607757","0.0-1.0-528.0-0.0","0","0","98637","","null","","","null","58","","","","","","","","","","","","","","","",""
"","ITI","","html-keyboard-response","397","608775","0.0-1.0-531.0","0","0","98637","","null","","","null","58","","","","","","","","","","","","","","","NaN",""
"","S1","","html-keyboard-response","398","609047","0.0-1.0-533.0","0","0","98637","","null","","","null","59","","","","","","","","","","","","","","","",""
"","ISI","","html-keyboard-response","399","610063","0.0-1.0-534.0","0","0","98637","","null","","","null","59","NaN","","","","","","","","","","","","","","",""
"","S2","","html-keyboard-response","400","610335","0.0-1.0-535.0","0","0","98637","","null","","","null","59","","NaN","","","","","","","","","","","","","",""
"","response","","html-keyboard-response","401","610673","0.0-1.0-536.0-0.0","0","0","98637","","327","","","75","59","","","2","59","training","adjacent","FE","6","5","N.jpg","R.jpg","1","0","0","",""
"","feedback","","html-keyboard-response","402","611694","0.0-1.0-537.0-0.0","0","0","98637","","null","","","null","59","","","","","","","","","","","","","","","",""
"","time_out","","html-keyboard-response","403","613717","0.0-1.0-539.0-0.0","0","0","98637","","null","","","null","59","","","","","","","","","","","","","","","",""
"","ITI","","html-keyboard-response","404","614738","0.0-1.0-540.0","0","0","98637","","null","","","null","59","","","","","","","","","","","","","","","NaN",""
"","S1","","html-keyboard-response","405","615007","0.0-1.0-542.0","0","0","98637","","null","","","null","60","","","","","","","","","","","","","","","",""
"","ISI","","html-keyboard-response","406","616022","0.0-1.0-543.0","0","0","98637","","114","","","68","60","d","","","","","","","","","","","","","","",""
"","S2","","html-keyboard-response","407","616295","0.0-1.0-544.0","0","0","98637","","null","","","null","60","","NaN","","","","","","","","","","","","","",""
"","response","","html-keyboard-response","408","618071","0.0-1.0-545.0-0.0","0","0","98637","","null","","","null","60","","","2","60","training","adjacent","BC","2","3","O.jpg","L.jpg","NaN","1","0","",""
"","too_slow_prompt","","html-keyboard-response","409","619092","0.0-1.0-547.0-0.0","1","0","98637","","null","","","null","","","","","","","","","","","","","","","","",""
"","time_out","","html-keyboard-response","410","621111","0.0-1.0-548.0-0.0","0","0","98637","","null","","","null","60","","","","","","","","","","","","","","","",""
"","ITI","","html-keyboard-response","411","622126","0.0-1.0-549.0","0","0","98637","","null","","","null","60","","","","","","","","","","","","","","","NaN",""
"","S1","","html-keyboard-response","412","622398","0.0-1.0-551.0","0","0","98637","","null","","","null","61","","","","","","","","","","","","","","","",""
"","ISI","","html-keyboard-response","413","623415","0.0-1.0-552.0","0","0","98637","","201","","","68","61","d","","","","","","","","","","","","","","",""
"","S2","","html-keyboard-response","414","623685","0.0-1.0-553.0","0","0","98637","","null","","","null","61","","NaN","","","","","","","","","","","","","",""
"","response","","html-keyboard-response","415","623807","0.0-1.0-554.0-0.0","0","0","98637","","108","","","68","61","","","2","61","training","adjacent","AB","1","2","M.jpg","O.jpg","0","1","0","",""
"","feedback","","html-keyboard-response","416","624830","0.0-1.0-555.0-0.0","0","0","98637","","null","","","null","61","","","","","","","","","","","","","","","",""
"","time_out","","html-keyboard-response","417","626854","0.0-1.0-557.0-0.0","0","0","98637","","null","","","null","61","","","","","","","","","","","","","","","",""
"","ITI","","html-keyboard-response","418","627870","0.0-1.0-558.0","0","0","98637","","null","","","null","61","","","","","","","","","","","","","","","NaN",""
"","S1","","html-keyboard-response","419","628143","0.0-1.0-560.0","0","0","98637","","null","","","null","62","","","","","","","","","","","","","","","",""
"","ISI","","html-keyboard-response","420","629158","0.0-1.0-561.0","0","0","98637","","null","","","null","62","NaN","","","","","","","","","","","","","","",""
"","S2","","html-keyboard-response","421","629429","0.0-1.0-562.0","0","0","98637","","null","","","null","62","","NaN","","","","","","","","","","","","","",""
"","response","","html-keyboard-response","422","629506","0.0-1.0-563.0-0.0","0","0","98637","","64","","","75","62","","","2","62","training","adjacent","CB","3","2","L.jpg","O.jpg","1","0","0","",""
"","feedback","","html-keyboard-response","423","630527","0.0-1.0-564.0-0.0","0","0","98637","","null","","","null","62","","","","","","","","","","","","","","","",""
"","time_out","","html-keyboard-response","424","632550","0.0-1.0-566.0-0.0","0","0","98637","","null","","","null","62","","","","","","","","","","","","","","","",""
"","ITI","","html-keyboard-response","425","633567","0.0-1.0-567.0","0","0","98637","","null","","","null","62","","","","","","","","","","","","","","","NaN",""
"","S1","","html-keyboard-response","426","633840","0.0-1.0-569.0","0","0","98637","","null","","","null","63","","","","","","","","","","","","","","","",""
"","ISI","","html-keyboard-response","427","634863","0.0-1.0-570.0","0","0","98637","","null","","","null","63","NaN","","","","","","","","","","","","","","",""
"","S2","","html-keyboard-response","428","635134","0.0-1.0-571.0","0","0","98637","","null","","","null","63","","NaN","","","","","","","","","","","","","",""
"","response","","html-keyboard-response","429","635266","0.0-1.0-572.0-0.0","0","0","98637","","119","","","68","63","","","2","63","training","adjacent","FE","6","5","N.jpg","R.jpg","0","0","1","",""
"","feedback","","html-keyboard-response","430","636286","0.0-1.0-573.0-0.0","0","0","98637","","null","","","null","63","","","","","","","","","","","","","","","",""
"","ITI","","html-keyboard-response","431","637310","0.0-1.0-576.0","0","0","98637","","null","","","null","63","","","","","","","","","","","","","","","NaN",""
"","S1","","html-keyboard-response","432","637579","0.0-1.0-578.0","0","0","98637","","null","","","null","64","","","","","","","","","","","","","","","",""
"","ISI","","html-keyboard-response","433","638595","0.0-1.0-579.0","0","0","98637","","null","","","null","64","NaN","","","","","","","","","","","","","","",""
"","S2","","html-keyboard-response","434","638859","0.0-1.0-580.0","0","0","98637","","null","","","null","64","","NaN","","","","","","","","","","","","","",""
"","response","","html-keyboard-response","435","640344","0.0-1.0-581.0-0.0","0","0","98637","","1474","","","68","64","","","2","64","training","adjacent","CD","3","4","L.jpg","P.jpg","0","1","0","",""
"","feedback","","html-keyboard-response","436","641358","0.0-1.0-582.0-0.0","0","0","98637","","null","","","null","64","","","","","","","","","","","","","","","",""
"","time_out","","html-keyboard-response","437","643382","0.0-1.0-584.0-0.0","0","0","98637","","null","","","null","64","","","","","","","","","","","","","","","",""
"","ITI","","html-keyboard-response","438","644401","0.0-1.0-585.0","0","0","98637","","null","","","null","64","","","","","","","","","","","","","","","NaN",""
"","S1","","html-keyboard-response","439","644670","0.0-1.0-587.0","0","0","98637","","null","","","null","65","","","","","","","","","","","","","","","",""
"","ISI","","html-keyboard-response","440","645689","0.0-1.0-588.0","0","0","98637","","null","","","null","65","NaN","","","","","","","","","","","","","","",""
"","S2","","html-keyboard-response","441","645957","0.0-1.0-589.0","0","0","98637","","null","","","null","65","","NaN","","","","","","","","","","","","","",""
"","response","","html-keyboard-response","442","647724","0.0-1.0-590.0-0.0","0","0","98637","","null","","","null","65","","","2","65","training","adjacent","AB","1","2","M.jpg","O.jpg","NaN","1","0","",""
"","too_slow_prompt","","html-keyboard-response","443","648741","0.0-1.0-592.0-0.0","1","0","98637","","null","","","null","","","","","","","","","","","","","","","","",""
"","time_out","","html-keyboard-response","444","650756","0.0-1.0-593.0-0.0","0","0","98637","","null","","","null","65","","","","","","","","","","","","","","","",""
"","ITI","","html-keyboard-response","445","651774","0.0-1.0-594.0","0","0","98637","","null","","","null","65","","","","","","","","","","","","","","","NaN",""
"","S1","","html-keyboard-response","446","652047","0.0-1.0-596.0","0","0","98637","","null","","","null","66","","","","","","","","","","","","","","","",""
"","ISI","","html-keyboard-response","447","653063","0.0-1.0-597.0","0","0","98637","","null","","","null","66","NaN","","","","","","","","","","","","","","",""
"","S2","","html-keyboard-response","448","653333","0.0-1.0-598.0","0","0","98637","","null","","","null","66","","NaN","","","","","","","","","","","","","",""
"","response","","html-keyboard-response","449","653726","0.0-1.0-599.0-0.0","0","0","98637","","380","","","75","66","","","2","66","training","adjacent","GF","7","6","Q.jpg","N.jpg","1","0","0","",""
"","feedback","","html-keyboard-response","450","654752","0.0-1.0-600.0-0.0","0","0","98637","","null","","","null","66","","","","","","","","","","","","","","","",""
"","time_out","","html-keyboard-response","451","656771","0.0-1.0-602.0-0.0","0","0","98637","","null","","","null","66","","","","","","","","","","","","","","","",""
"","ITI","","html-keyboard-response","452","657790","0.0-1.0-603.0","0","0","98637","","null","","","null","66","","","","","","","","","","","","","","","NaN",""
"","S1","","html-keyboard-response","453","658063","0.0-1.0-605.0","0","0","98637","","null","","","null","67","","","","","","","","","","","","","","","",""
"","ISI","","html-keyboard-response","454","659078","0.0-1.0-606.0","0","0","98637","","201","","","68","67","d","","","","","","","","","","","","","","",""
"","S2","","html-keyboard-response","455","659349","0.0-1.0-607.0","0","0","98637","","null","","","null","67","","NaN","","","","","","","","","","","","","",""
"","response","","html-keyboard-response","456","659473","0.0-1.0-608.0-0.0","0","0","98637","","109","","","68","67","","","2","67","training","adjacent","DC","4","3","P.jpg","L.jpg","0","0","1","",""
"","feedback","","html-keyboard-response","457","660495","0.0-1.0-609.0-0.0","0","0","98637","","null","","","null","67","","","","","","","","","","","","","","","",""
"","ITI","","html-keyboard-response","458","661520","0.0-1.0-612.0","0","0","98637","","null","","","null","67","","","","","","","","","","","","","","","NaN",""
"","S1","","html-keyboard-response","459","661788","0.0-1.0-614.0","0","0","98637","","null","","","null","68","","","","","","","","","","","","","","","",""
"","ISI","","html-keyboard-response","460","662809","0.0-1.0-615.0","0","0","98637","","null","","","null","68","NaN","","","","","","","","","","","","","","",""
"","S2","","html-keyboard-response","461","663078","0.0-1.0-616.0","0","0","98637","","null","","","null","68","","NaN","","","","","","","","","","","","","",""
"","response","","html-keyboard-response","462","664847","0.0-1.0-617.0-0.0","0","0","98637","","null","","","null","68","","","2","68","training","adjacent","CD","3","4","L.jpg","P.jpg","NaN","1","0","",""
"","too_slow_prompt","","html-keyboard-response","463","665868","0.0-1.0-619.0-0.0","1","0","98637","","null","","","null","","","","","","","","","","","","","","","","",""
"","time_out","","html-keyboard-response","464","667884","0.0-1.0-620.0-0.0","0","0","98637","","null","","","null","68","","","","","","","","","","","","","","","",""
"","ITI","","html-keyboard-response","465","668902","0.0-1.0-621.0","0","0","98637","","null","","","null","68","","","","","","","","","","","","","","","NaN",""
"","S1","","html-keyboard-response","466","669175","0.0-1.0-623.0","0","0","98637","","null","","","null","69","","","","","","","","","","","","","","","",""
"","ISI","","html-keyboard-response","467","670191","0.0-1.0-624.0","0","0","98637","","null","","","null","69","NaN","","","","","","","","","","","","","","",""
"","S2","","html-keyboard-response","468","670458","0.0-1.0-625.0","0","0","98637","","null","","","null","69","","NaN","","","","","","","","","","","","","",""
"","response","","html-keyboard-response","469","672221","0.0-1.0-626.0-0.0","0","0","98637","","null","","","null","69","","","2","69","training","adjacent","CD","3","4","L.jpg","P.jpg","NaN","1","0","",""
"","too_slow_prompt","","html-keyboard-response","470","673238","0.0-1.0-628.0-0.0","1","0","98637","","null","","","null","","","","","","","","","","","","","","","","",""
"","time_out","","html-keyboard-response","471","675250","0.0-1.0-629.0-0.0","0","0","98637","","null","","","null","69","","","","","","","","","","","","","","","",""
"","ITI","","html-keyboard-response","472","676272","0.0-1.0-630.0","0","0","98637","","null","","","null","69","","","","","","","","","","","","","","","NaN",""
"","S1","","html-keyboard-response","473","676545","0.0-1.0-632.0","0","0","98637","","null","","","null","70","","","","","","","","","","","","","","","",""
"","ISI","","html-keyboard-response","474","677566","0.0-1.0-633.0","0","0","98637","","null","","","null","70","NaN","","","","","","","","","","","","","","",""
"","S2","","html-keyboard-response","475","677838","0.0-1.0-634.0","0","0","98637","","null","","","null","70","","NaN","","","","","","","","","","","","","",""
"","response","","html-keyboard-response","476","679607","0.0-1.0-635.0-0.0","0","0","98637","","null","","","null","70","","","2","70","training","adjacent","ED","5","4","R.jpg","P.jpg","NaN","0","0","",""
"","too_slow_prompt","","html-keyboard-response","477","680630","0.0-1.0-637.0-0.0","1","0","98637","","null","","","null","","","","","","","","","","","","","","","","",""
"","time_out","","html-keyboard-response","478","682645","0.0-1.0-638.0-0.0","0","0","98637","","null","","","null","70","","","","","","","","","","","","","","","",""
"","ITI","","html-keyboard-response","479","683663","0.0-1.0-639.0","0","0","98637","","null","","","null","70","","","","","","","","","","","","","","","NaN",""
"","S1","","html-keyboard-response","480","683935","0.0-1.0-641.0","0","0","98637","","null","","","null","71","","","","","","","","","","","","","","","",""
"","ISI","","html-keyboard-response","481","684950","0.0-1.0-642.0","0","0","98637","","null","","","null","71","NaN","","","","","","","","","","","","","","",""
"","S2","","html-keyboard-response","482","685220","0.0-1.0-643.0","0","0","98637","","null","","","null","71","","NaN","","","","","","","","","","","","","",""
"","response","","html-keyboard-response","483","685796","0.0-1.0-644.0-0.0","0","0","98637","","565","","","68","71","","","2","71","training","adjacent","ED","5","4","R.jpg","P.jpg","0","0","1","",""
"","feedback","","html-keyboard-response","484","686822","0.0-1.0-645.0-0.0","0","0","98637","","null","","","null","71","","","","","","","","","","","","","","","",""
"","ITI","","html-keyboard-response","485","687843","0.0-1.0-648.0","0","0","98637","","null","","","null","71","","","","","","","","","","","","","","","NaN",""
"","S1","","html-keyboard-response","486","688111","0.0-1.0-650.0","0","0","98637","","null","","","null","72","","","","","","","","","","","","","","","",""
"","ISI","","html-keyboard-response","487","689126","0.0-1.0-651.0","0","0","98637","","373","","","75","72","k","","","","","","","","","","","","","","",""
"","S2","","html-keyboard-response","488","689398","0.0-1.0-652.0","0","0","98637","","null","","","null","72","","NaN","","","","","","","","","","","","","",""
"","response","","html-keyboard-response","489","691092","0.0-1.0-653.0-0.0","0","0","98637","","1681","","","75","72","","","2","72","training","adjacent","DE","4","5","P.jpg","R.jpg","1","1","1","",""
"","feedback","","html-keyboard-response","490","692112","0.0-1.0-654.0-0.0","0","0","98637","","null","","","null","72","","","","","","","","","","","","","","","",""
"","ITI","","html-keyboard-response","491","693136","0.0-1.0-657.0","0","0","98637","","null","","","null","72","","","","","","","","","","","","","","","NaN",""
"","S1","","html-keyboard-response","492","693406","0.0-1.0-659.0","0","0","98637","","null","","","null","73","","","","","","","","","","","","","","","",""
"","ISI","","html-keyboard-response","493","694423","0.0-1.0-660.0","0","0","98637","","null","","","null","73","NaN","","","","","","","","","","","","","","",""
"","S2","","html-keyboard-response","494","694693","0.0-1.0-661.0","0","0","98637","","null","","","null","73","","NaN","","","","","","","","","","","","","",""
"","response","","html-keyboard-response","495","695186","0.0-1.0-662.0-0.0","0","0","98637","","477","","","68","73","","","2","73","training","adjacent","BA","2","1","O.jpg","M.jpg","0","0","1","",""
"","feedback","","html-keyboard-response","496","696206","0.0-1.0-663.0-0.0","0","0","98637","","null","","","null","73","","","","","","","","","","","","","","","",""
"","ITI","","html-keyboard-response","497","697230","0.0-1.0-666.0","0","0","98637","","null","","","null","73","","","","","","","","","","","","","","","NaN",""
"","S1","","html-keyboard-response","498","697501","0.0-1.0-668.0","0","0","98637","","null","","","null","74","","","","","","","","","","","","","","","",""
"","ISI","","html-keyboard-response","499","698519","0.0-1.0-669.0","0","0","98637","","null","","","null","74","NaN","","","","","","","","","","","","","","",""
"","S2","","html-keyboard-response","500","698575","0.0-1.0-670.0","0","0","98637","","42","","","75","74","","k","2","74","training","adjacent","DE","4","5","P.jpg","R.jpg","1","1","1","",""
"","feedback","","html-keyboard-response","501","699597","0.0-1.0-672.0-0.0","0","0","98637","","null","","","null","74","","","","","","","","","","","","","","","",""
"","ITI","","html-keyboard-response","502","700615","0.0-1.0-675.0","0","0","98637","","null","","","null","74","","","","","","","","","","","","","","","NaN",""
"","S1","","html-keyboard-response","503","700895","0.0-1.0-677.0","0","0","98637","","null","","","null","75","","","","","","","","","","","","","","","",""
"","ISI","","html-keyboard-response","504","701926","0.0-1.0-678.0","0","0","98637","","null","","","null","75","NaN","","","","","","","","","","","","","","",""
"","S2","","html-keyboard-response","505","702193","0.0-1.0-679.0","0","0","98637","","null","","","null","75","","NaN","","","","","","","","","","","","","",""
"","response","","html-keyboard-response","506","702674","0.0-1.0-680.0-0.0","0","0","98637","","466","","","68","75","","","2","75","training","adjacent","EF","5","6","R.jpg","N.jpg","0","1","0","",""
"","feedback","","html-keyboard-response","507","703694","0.0-1.0-681.0-0.0","0","0","98637","","null","","","null","75","","","","","","","","","","","","","","","",""
"","time_out","","html-keyboard-response","508","705723","0.0-1.0-683.0-0.0","0","0","98637","","null","","","null","75","","","","","","","","","","","","","","","",""
"","ITI","","html-keyboard-response","509","706739","0.0-1.0-684.0","0","0","98637","","null","","","null","75","","","","","","","","","","","","","","","NaN",""
"","S1","","html-keyboard-response","510","707007","0.0-1.0-686.0","0","0","98637","","null","","","null","76","","","","","","","","","","","","","","","",""
"","ISI","","html-keyboard-response","511","708023","0.0-1.0-687.0","0","0","98637","","119","","","75","76","k","","","","","","","","","","","","","","",""
"","S2","","html-keyboard-response","512","708295","0.0-1.0-688.0","0","0","98637","","null","","","null","76","","NaN","","","","","","","","","","","","","",""
"","response","","html-keyboard-response","513","708712","0.0-1.0-689.0-0.0","0","0","98637","","403","","","75","76","","","2","76","training","adjacent","GF","7","6","Q.jpg","N.jpg","1","0","0","",""
"","feedback","","html-keyboard-response","514","709733","0.0-1.0-690.0-0.0","0","0","98637","","null","","","null","76","","","","","","","","","","","","","","","",""
"","time_out","","html-keyboard-response","515","711749","0.0-1.0-692.0-0.0","0","0","98637","","null","","","null","76","","","","","","","","","","","","","","","",""
"","ITI","","html-keyboard-response","516","712763","0.0-1.0-693.0","0","0","98637","","null","","","null","76","","","","","","","","","","","","","","","NaN",""
"","S1","","html-keyboard-response","517","713030","0.0-1.0-695.0","0","0","98637","","null","","","null","77","","","","","","","","","","","","","","","",""
"","ISI","","html-keyboard-response","518","714046","0.0-1.0-696.0","0","0","98637","","163","","","68","77","d","","","","","","","","","","","","","","",""
"","S2","","html-keyboard-response","519","714318","0.0-1.0-697.0","0","0","98637","","null","","","null","77","","NaN","","","","","","","","","","","","","",""
"","response","","html-keyboard-response","520","714593","0.0-1.0-698.0-0.0","0","0","98637","","260","","","68","77","","","2","77","training","adjacent","ED","5","4","R.jpg","P.jpg","0","0","1","",""
"","feedback","","html-keyboard-response","521","715614","0.0-1.0-699.0-0.0","0","0","98637","","null","","","null","77","","","","","","","","","","","","","","","",""
"","ITI","","html-keyboard-response","522","716635","0.0-1.0-702.0","0","0","98637","","null","","","null","77","","","","","","","","","","","","","","","NaN",""
"","S1","","html-keyboard-response","523","716902","0.0-1.0-704.0","0","0","98637","","null","","","null","78","","","","","","","","","","","","","","","",""
"","ISI","","html-keyboard-response","524","717918","0.0-1.0-705.0","0","0","98637","","null","","","null","78","NaN","","","","","","","","","","","","","","",""
"","S2","","html-keyboard-response","525","718187","0.0-1.0-706.0","0","0","98637","","null","","","null","78","","NaN","","","","","","","","","","","","","",""
"","response","","html-keyboard-response","526","719650","0.0-1.0-707.0-0.0","0","0","98637","","1444","","","75","78","","","2","78","training","adjacent","CB","3","2","L.jpg","O.jpg","1","0","0","",""
"","feedback","","html-keyboard-response","527","720679","0.0-1.0-708.0-0.0","0","0","98637","","null","","","null","78","","","","","","","","","","","","","","","",""
"","time_out","","html-keyboard-response","528","722703","0.0-1.0-710.0-0.0","0","0","98637","","null","","","null","78","","","","","","","","","","","","","","","",""
"","ITI","","html-keyboard-response","529","723717","0.0-1.0-711.0","0","0","98637","","null","","","null","78","","","","","","","","","","","","","","","NaN",""
"","S1","","html-keyboard-response","530","723990","0.0-1.0-713.0","0","0","98637","","null","","","null","79","","","","","","","","","","","","","","","",""
"","ISI","","html-keyboard-response","531","725007","0.0-1.0-714.0","0","0","98637","","null","","","null","79","NaN","","","","","","","","","","","","","","",""
"","S2","","html-keyboard-response","532","725275","0.0-1.0-715.0","0","0","98637","","null","","","null","79","","NaN","","","","","","","","","","","","","",""
"","response","","html-keyboard-response","533","725597","0.0-1.0-716.0-0.0","0","0","98637","","308","","","68","79","","","2","79","training","adjacent","ED","5","4","R.jpg","P.jpg","0","0","1","",""
"","feedback","","html-keyboard-response","534","726622","0.0-1.0-717.0-0.0","0","0","98637","","null","","","null","79","","","","","","","","","","","","","","","",""
"","ITI","","html-keyboard-response","535","727648","0.0-1.0-720.0","0","0","98637","","null","","","null","79","","","","","","","","","","","","","","","NaN",""
"","S1","","html-keyboard-response","536","727918","0.0-1.0-722.0","0","0","98637","","null","","","null","80","","","","","","","","","","","","","","","",""
"","ISI","","html-keyboard-response","537","728935","0.0-1.0-723.0","0","0","98637","","730","","","75","80","k","","","","","","","","","","","","","","",""
"","S2","","html-keyboard-response","538","729204","0.0-1.0-724.0","0","0","98637","","null","","","null","80","","NaN","","","","","","","","","","","","","",""
"","response","","html-keyboard-response","539","729332","0.0-1.0-725.0-0.0","0","0","98637","","112","","","75","80","","","2","80","training","adjacent","DC","4","3","P.jpg","L.jpg","1","0","0","",""
"","feedback","","html-keyboard-response","540","730361","0.0-1.0-726.0-0.0","0","0","98637","","null","","","null","80","","","","","","","","","","","","","","","",""
"","time_out","","html-keyboard-response","541","732382","0.0-1.0-728.0-0.0","0","0","98637","","null","","","null","80","","","","","","","","","","","","","","","",""
"","ITI","","html-keyboard-response","542","733407","0.0-1.0-729.0","0","0","98637","","null","","","null","80","","","","","","","","","","","","","","","NaN",""
"","S1","","html-keyboard-response","543","733679","0.0-1.0-731.0","0","0","98637","","null","","","null","81","","","","","","","","","","","","","","","",""
"","ISI","","html-keyboard-response","544","734694","0.0-1.0-732.0","0","0","98637","","188","","","68","81","d","","","","","","","","","","","","","","",""
"","S2","","html-keyboard-response","545","734966","0.0-1.0-733.0","0","0","98637","","null","","","null","81","","NaN","","","","","","","","","","","","","",""
"","response","","html-keyboard-response","546","735053","0.0-1.0-734.0-0.0","0","0","98637","","74","","","68","81","","","2","81","training","adjacent","FE","6","5","N.jpg","R.jpg","0","0","1","",""
"","feedback","","html-keyboard-response","547","736080","0.0-1.0-735.0-0.0","0","0","98637","","null","","","null","81","","","","","","","","","","","","","","","",""
"","ITI","","html-keyboard-response","548","737103","0.0-1.0-738.0","0","0","98637","","null","","","null","81","","","","","","","","","","","","","","","NaN",""
"","S1","","html-keyboard-response","549","737380","0.0-1.0-740.0","0","0","98637","","null","","","null","82","","","","","","","","","","","","","","","",""
"","ISI","","html-keyboard-response","550","738400","0.0-1.0-741.0","0","0","98637","","283","","","68","82","d","","","","","","","","","","","","","","",""
"","S2","","html-keyboard-response","551","738671","0.0-1.0-742.0","0","0","98637","","null","","","null","82","","NaN","","","","","","","","","","","","","",""
"","response","","html-keyboard-response","552","738797","0.0-1.0-743.0-0.0","0","0","98637","","112","","","68","82","","","2","82","training","adjacent","BA","2","1","O.jpg","M.jpg","0","0","1","",""
"","feedback","","html-keyboard-response","553","739819","0.0-1.0-744.0-0.0","0","0","98637","","null","","","null","82","","","","","","","","","","","","","","","",""
"","ITI","","html-keyboard-response","554","740837","0.0-1.0-747.0","0","0","98637","","null","","","null","82","","","","","","","","","","","","","","","NaN",""
"","S1","","html-keyboard-response","555","741109","0.0-1.0-749.0","0","0","98637","","null","","","null","83","","","","","","","","","","","","","","","",""
"","ISI","","html-keyboard-response","556","742126","0.0-1.0-750.0","0","0","98637","","446","","","75","83","k","","","","","","","","","","","","","","",""
"","S2","","html-keyboard-response","557","742399","0.0-1.0-751.0","0","0","98637","","null","","","null","83","","NaN","","","","","","","","","","","","","",""
"","response","","html-keyboard-response","558","742485","0.0-1.0-752.0-0.0","0","0","98637","","77","","","75","83","","","2","83","training","adjacent","GF","7","6","Q.jpg","N.jpg","1","0","0","",""
"","feedback","","html-keyboard-response","559","743501","0.0-1.0-753.0-0.0","0","0","98637","","null","","","null","83","","","","","","","","","","","","","","","",""
"","time_out","","html-keyboard-response","560","745524","0.0-1.0-755.0-0.0","0","0","98637","","null","","","null","83","","","","","","","","","","","","","","","",""
"","ITI","","html-keyboard-response","561","746543","0.0-1.0-756.0","0","0","98637","","null","","","null","83","","","","","","","","","","","","","","","NaN",""
"","S1","","html-keyboard-response","562","746814","0.0-1.0-758.0","0","0","98637","","null","","","null","84","","","","","","","","","","","","","","","",""
"","ISI","","html-keyboard-response","563","747833","0.0-1.0-759.0","0","0","98637","","144","","","68","84","d","","","","","","","","","","","","","","",""
"","S2","","html-keyboard-response","564","748102","0.0-1.0-760.0","0","0","98637","","null","","","null","84","","NaN","","","","","","","","","","","","","",""
"","response","","html-keyboard-response","565","748501","0.0-1.0-761.0-0.0","0","0","98637","","386","","","68","84","","","2","84","training","adjacent","BC","2","3","O.jpg","L.jpg","0","1","0","",""
"","feedback","","html-keyboard-response","566","749518","0.0-1.0-762.0-0.0","0","0","98637","","null","","","null","84","","","","","","","","","","","","","","","",""
"","time_out","","html-keyboard-response","567","751541","0.0-1.0-764.0-0.0","0","0","98637","","null","","","null","84","","","","","","","","","","","","","","","",""
"","ITI","","html-keyboard-response","568","752555","0.0-1.0-765.0","0","0","98637","","null","","","null","84","","","","","","","","","","","","","","","NaN",""
"","S1","","html-keyboard-response","569","752822","0.0-1.0-767.0","0","0","98637","","null","","","null","85","","","","","","","","","","","","","","","",""
"","ISI","","html-keyboard-response","570","753844","0.0-1.0-768.0","0","0","98637","","293","","","75","85","k","","","","","","","","","","","","","","",""
"","S2","","html-keyboard-response","571","754108","0.0-1.0-769.0","0","0","98637","","null","","","null","85","","NaN","","","","","","","","","","","","","",""
"","response","","html-keyboard-response","572","754241","0.0-1.0-770.0-0.0","0","0","98637","","119","","","75","85","","","2","85","training","adjacent","FE","6","5","N.jpg","R.jpg","1","0","0","",""
"","feedback","","html-keyboard-response","573","755260","0.0-1.0-771.0-0.0","0","0","98637","","null","","","null","85","","","","","","","","","","","","","","","",""
"","time_out","","html-keyboard-response","574","757287","0.0-1.0-773.0-0.0","0","0","98637","","null","","","null","85","","","","","","","","","","","","","","","",""
"","ITI","","html-keyboard-response","575","758311","0.0-1.0-774.0","0","0","98637","","null","","","null","85","","","","","","","","","","","","","","","NaN",""
"","S1","","html-keyboard-response","576","758583","0.0-1.0-776.0","0","0","98637","","null","","","null","86","","","","","","","","","","","","","","","",""
"","ISI","","html-keyboard-response","577","759607","0.0-1.0-777.0","0","0","98637","","267","","","68","86","d","","","","","","","","","","","","","","",""
"","S2","","html-keyboard-response","578","759878","0.0-1.0-778.0","0","0","98637","","null","","","null","86","","NaN","","","","","","","","","","","","","",""
"","response","","html-keyboard-response","579","760087","0.0-1.0-779.0-0.0","0","0","98637","","193","","","68","86","","","2","86","training","adjacent","AB","1","2","M.jpg","O.jpg","0","1","0","",""
"","feedback","","html-keyboard-response","580","761110","0.0-1.0-780.0-0.0","0","0","98637","","null","","","null","86","","","","","","","","","","","","","","","",""
