"success","ttype","start_time","trial_type","trial_index","time_elapsed","internal_node_id","warning","missed_checkup","PID","view_history","rt","responses","repeat_instructions","key_press","index","keypress_isi","keypress_S2","block","trial_num","phase","group_type","pair_type","S1_stim","S2_stim","S1_img","S2_img","S1_chosen","S1_higher","accuracy","keypress_iti","total_bonus_tally"
"true","full_screen","d03082023hr1453","fullscreen","0","30264","0.0-0.0","0","0","12433","","","","","","","","","","","","","","","","","","","","","",""
"","instructions","","instructions","1","97483","0.0-1.0-0.0-0.0","0","0","12433","[{""page_index"":0,""viewing_time"":7217},{""page_index"":1,""viewing_time"":35114},{""page_index"":2,""viewing_time"":20078},{""page_index"":3,""viewing_time"":4806}]","67215","","","","","","","","","","","","","","","","","","","",""
"","comprehension_check","","survey-multi-choice","2","174495","0.0-1.0-0.0-1.0","0","0","12433","","77007","{""Q0"":""True"",""Q1"":""K"",""Q2"":""Once the second image appears and while the screen 'MAKE A CHOICE' is shown"",""Q3"":""Green mark"",""Q4"":""either D or K""}","0","","","","","","","","","","","","","","","","","",""
"","start_exp","","html-keyboard-response","3","182543","0.0-1.0-1.0","0","0","12433","","8045","","","32","","","","","","","","","","","","","","","","",""
"","S1","","html-keyboard-response","4","182797","0.0-1.0-2.0","0","0","12433","","null","","","null","0","","","","","","","","","","","","","","","",""
"","ISI","","html-keyboard-response","5","182949","0.0-1.0-3.0","0","0","12433","","null","","","null","0","NaN","","","","","","","","","","","","","","",""
"","S2","","html-keyboard-response","6","183209","0.0-1.0-4.0","0","0","12433","","null","","","null","0","","NaN","","","","","","","","","","","","","",""
"","response","","html-keyboard-response","7","183573","0.0-1.0-5.0-0.0","0","0","12433","","361","","","75","0","","","1","0","training","adjacent","CB","3","2","M.jpg","R.jpg","1","0","0","",""
"","feedback","","html-keyboard-response","8","184577","0.0-1.0-6.0-0.0","0","0","12433","","null","","","null","0","","","","","","","","","","","","","","","",""
"","time_out","","html-keyboard-response","9","186580","0.0-1.0-8.0-0.0","0","0","12433","","null","","","null","0","","","","","","","","","","","","","","","",""
"","ITI","","html-keyboard-response","10","187583","0.0-1.0-9.0","0","0","12433","","null","","","null","0","","","","","","","","","","","","","","","NaN",""
"","S1","","html-keyboard-response","11","187835","0.0-1.0-11.0","0","0","12433","","null","","","null","1","","","","","","","","","","","","","","","",""
"","ISI","","html-keyboard-response","12","187988","0.0-1.0-12.0","0","0","12433","","null","","","null","1","NaN","","","","","","","","","","","","","","",""
"","S2","","html-keyboard-response","13","188241","0.0-1.0-13.0","0","0","12433","","null","","","null","1","","NaN","","","","","","","","","","","","","",""
"","response","","html-keyboard-response","14","188645","0.0-1.0-14.0-0.0","0","0","12433","","402","","","68","1","","","1","1","training","adjacent","FG","6","7","P.jpg","L.jpg","0","1","0","",""
"","feedback","","html-keyboard-response","15","189648","0.0-1.0-15.0-0.0","0","0","12433","","null","","","null","1","","","","","","","","","","","","","","","",""
"","time_out","","html-keyboard-response","16","191651","0.0-1.0-17.0-0.0","0","0","12433","","null","","","null","1","","","","","","","","","","","","","","","",""
"","ITI","","html-keyboard-response","17","192655","0.0-1.0-18.0","0","0","12433","","null","","","null","1","","","","","","","","","","","","","","","NaN",""
"","S1","","html-keyboard-response","18","192908","0.0-1.0-20.0","0","0","12433","","null","","","null","2","","","","","","","","","","","","","","","",""
"","ISI","","html-keyboard-response","19","193060","0.0-1.0-21.0","0","0","12433","","null","","","null","2","NaN","","","","","","","","","","","","","","",""
"","S2","","html-keyboard-response","20","193314","0.0-1.0-22.0","0","0","12433","","null","","","null","2","","NaN","","","","","","","","","","","","","",""
"","response","","html-keyboard-response","21","193789","0.0-1.0-23.0-0.0","0","0","12433","","474","","","68","2","","","1","2","training","adjacent","FE","6","5","P.jpg","O.jpg","0","0","1","",""
"","feedback","","html-keyboard-response","22","194791","0.0-1.0-24.0-0.0","0","0","12433","","null","","","null","2","","","","","","","","","","","","","","","",""
"","ITI","","html-keyboard-response","23","195794","0.0-1.0-27.0","0","0","12433","","null","","","null","2","","","","","","","","","","","","","","","NaN",""
"","S1","","html-keyboard-response","24","196046","0.0-1.0-29.0","0","0","12433","","null","","","null","3","","","","","","","","","","","","","","","",""
"","ISI","","html-keyboard-response","25","196199","0.0-1.0-30.0","0","0","12433","","null","","","null","3","NaN","","","","","","","","","","","","","","",""
"","S2","","html-keyboard-response","26","196452","0.0-1.0-31.0","0","0","12433","","null","","","null","3","","NaN","","","","","","","","","","","","","",""
"","response","","html-keyboard-response","27","196799","0.0-1.0-32.0-0.0","0","0","12433","","345","","","68","3","","","1","3","training","adjacent","BA","2","1","R.jpg","Q.jpg","0","0","1","",""
"","feedback","","html-keyboard-response","28","197803","0.0-1.0-33.0-0.0","0","0","12433","","null","","","null","3","","","","","","","","","","","","","","","",""
"","ITI","","html-keyboard-response","29","198818","0.0-1.0-36.0","0","0","12433","","null","","","null","3","","","","","","","","","","","","","","","NaN",""
"","S1","","html-keyboard-response","30","199073","0.0-1.0-38.0","0","0","12433","","null","","","null","4","","","","","","","","","","","","","","","",""
"","ISI","","html-keyboard-response","31","199226","0.0-1.0-39.0","0","0","12433","","null","","","null","4","NaN","","","","","","","","","","","","","","",""
"","S2","","html-keyboard-response","32","199478","0.0-1.0-40.0","0","0","12433","","null","","","null","4","","NaN","","","","","","","","","","","","","",""
"","response","","html-keyboard-response","33","199710","0.0-1.0-41.0-0.0","0","0","12433","","230","","","75","4","","","1","4","training","adjacent","CD","3","4","M.jpg","N.jpg","1","1","1","",""
"","feedback","","html-keyboard-response","34","200713","0.0-1.0-42.0-0.0","0","0","12433","","null","","","null","4","","","","","","","","","","","","","","","",""
"","ITI","","html-keyboard-response","35","201716","0.0-1.0-45.0","0","0","12433","","null","","","null","4","","","","","","","","","","","","","","","NaN",""
"","S1","","html-keyboard-response","36","201972","0.0-1.0-47.0","0","0","12433","","null","","","null","5","","","","","","","","","","","","","","","",""
"","ISI","","html-keyboard-response","37","202124","0.0-1.0-48.0","0","0","12433","","null","","","null","5","NaN","","","","","","","","","","","","","","",""
"","S2","","html-keyboard-response","38","202377","0.0-1.0-49.0","0","0","12433","","null","","","null","5","","NaN","","","","","","","","","","","","","",""
"","response","","html-keyboard-response","39","202641","0.0-1.0-50.0-0.0","0","0","12433","","263","","","68","5","","","1","5","training","adjacent","AB","1","2","Q.jpg","R.jpg","0","1","0","",""
"","feedback","","html-keyboard-response","40","203644","0.0-1.0-51.0-0.0","0","0","12433","","null","","","null","5","","","","","","","","","","","","","","","",""
"","time_out","","html-keyboard-response","41","205647","0.0-1.0-53.0-0.0","0","0","12433","","null","","","null","5","","","","","","","","","","","","","","","",""
"","ITI","","html-keyboard-response","42","206650","0.0-1.0-54.0","0","0","12433","","null","","","null","5","","","","","","","","","","","","","","","NaN",""
"","S1","","html-keyboard-response","43","206904","0.0-1.0-56.0","0","0","12433","","null","","","null","6","","","","","","","","","","","","","","","",""
"","ISI","","html-keyboard-response","44","207057","0.0-1.0-57.0","0","0","12433","","null","","","null","6","NaN","","","","","","","","","","","","","","",""
"","S2","","html-keyboard-response","45","207309","0.0-1.0-58.0","0","0","12433","","null","","","null","6","","NaN","","","","","","","","","","","","","",""
"","response","","html-keyboard-response","46","207554","0.0-1.0-59.0-0.0","0","0","12433","","242","","","75","6","","","1","6","training","adjacent","CB","3","2","M.jpg","R.jpg","1","0","0","",""
"","feedback","","html-keyboard-response","47","208556","0.0-1.0-60.0-0.0","0","0","12433","","null","","","null","6","","","","","","","","","","","","","","","",""
"","time_out","","html-keyboard-response","48","210557","0.0-1.0-62.0-0.0","0","0","12433","","null","","","null","6","","","","","","","","","","","","","","","",""
"","ITI","","html-keyboard-response","49","211559","0.0-1.0-63.0","0","0","12433","","null","","","null","6","","","","","","","","","","","","","","","NaN",""
"","S1","","html-keyboard-response","50","211824","0.0-1.0-65.0","0","0","12433","","null","","","null","7","","","","","","","","","","","","","","","",""
"","ISI","","html-keyboard-response","51","211976","0.0-1.0-66.0","0","0","12433","","null","","","null","7","NaN","","","","","","","","","","","","","","",""
"","S2","","html-keyboard-response","52","212229","0.0-1.0-67.0","0","0","12433","","null","","","null","7","","NaN","","","","","","","","","","","","","",""
"","response","","html-keyboard-response","53","212563","0.0-1.0-68.0-0.0","0","0","12433","","332","","","68","7","","","1","7","training","adjacent","FG","6","7","P.jpg","L.jpg","0","1","0","",""
"","feedback","","html-keyboard-response","54","213567","0.0-1.0-69.0-0.0","0","0","12433","","null","","","null","7","","","","","","","","","","","","","","","",""
"","time_out","","html-keyboard-response","55","215570","0.0-1.0-71.0-0.0","0","0","12433","","null","","","null","7","","","","","","","","","","","","","","","",""
"","ITI","","html-keyboard-response","56","216573","0.0-1.0-72.0","0","0","12433","","null","","","null","7","","","","","","","","","","","","","","","NaN",""
"","S1","","html-keyboard-response","57","216826","0.0-1.0-74.0","0","0","12433","","null","","","null","8","","","","","","","","","","","","","","","",""
"","ISI","","html-keyboard-response","58","216978","0.0-1.0-75.0","0","0","12433","","null","","","null","8","NaN","","","","","","","","","","","","","","",""
"","S2","","html-keyboard-response","59","217235","0.0-1.0-76.0","0","0","12433","","null","","","null","8","","NaN","","","","","","","","","","","","","",""
"","response","","html-keyboard-response","60","217706","0.0-1.0-77.0-0.0","0","0","12433","","469","","","75","8","","","1","8","training","adjacent","FE","6","5","P.jpg","O.jpg","1","0","0","",""
"","feedback","","html-keyboard-response","61","218709","0.0-1.0-78.0-0.0","0","0","12433","","null","","","null","8","","","","","","","","","","","","","","","",""
"","time_out","","html-keyboard-response","62","220711","0.0-1.0-80.0-0.0","0","0","12433","","null","","","null","8","","","","","","","","","","","","","","","",""
"","ITI","","html-keyboard-response","63","221714","0.0-1.0-81.0","0","0","12433","","null","","","null","8","","","","","","","","","","","","","","","NaN",""
"","S1","","html-keyboard-response","64","221968","0.0-1.0-83.0","0","0","12433","","null","","","null","9","","","","","","","","","","","","","","","",""
"","ISI","","html-keyboard-response","65","222121","0.0-1.0-84.0","0","0","12433","","null","","","null","9","NaN","","","","","","","","","","","","","","",""
"","S2","","html-keyboard-response","66","222374","0.0-1.0-85.0","0","0","12433","","null","","","null","9","","NaN","","","","","","","","","","","","","",""
"","response","","html-keyboard-response","67","222995","0.0-1.0-86.0-0.0","0","0","12433","","620","","","68","9","","","1","9","training","adjacent","DE","4","5","N.jpg","O.jpg","0","1","0","",""
"","feedback","","html-keyboard-response","68","224000","0.0-1.0-87.0-0.0","0","0","12433","","null","","","null","9","","","","","","","","","","","","","","","",""
"","time_out","","html-keyboard-response","69","226003","0.0-1.0-89.0-0.0","0","0","12433","","null","","","null","9","","","","","","","","","","","","","","","",""
"","ITI","","html-keyboard-response","70","227006","0.0-1.0-90.0","0","0","12433","","null","","","null","9","","","","","","","","","","","","","","","NaN",""
"","S1","","html-keyboard-response","71","227258","0.0-1.0-92.0","0","0","12433","","null","","","null","10","","","","","","","","","","","","","","","",""
"","ISI","","html-keyboard-response","72","227411","0.0-1.0-93.0","0","0","12433","","null","","","null","10","NaN","","","","","","","","","","","","","","",""
"","S2","","html-keyboard-response","73","227678","0.0-1.0-94.0","0","0","12433","","null","","","null","10","","NaN","","","","","","","","","","","","","",""
"","response","","html-keyboard-response","74","228448","0.0-1.0-95.0-0.0","0","0","12433","","767","","","75","10","","","1","10","training","adjacent","GF","7","6","L.jpg","P.jpg","1","0","0","",""
"","feedback","","html-keyboard-response","75","229451","0.0-1.0-96.0-0.0","0","0","12433","","null","","","null","10","","","","","","","","","","","","","","","",""
"","time_out","","html-keyboard-response","76","231454","0.0-1.0-98.0-0.0","0","0","12433","","null","","","null","10","","","","","","","","","","","","","","","",""
"","ITI","","html-keyboard-response","77","232456","0.0-1.0-99.0","0","0","12433","","null","","","null","10","","","","","","","","","","","","","","","NaN",""
"","S1","","html-keyboard-response","78","232709","0.0-1.0-101.0","0","0","12433","","null","","","null","11","","","","","","","","","","","","","","","",""
"","ISI","","html-keyboard-response","79","232862","0.0-1.0-102.0","0","0","12433","","null","","","null","11","NaN","","","","","","","","","","","","","","",""
"","S2","","html-keyboard-response","80","233115","0.0-1.0-103.0","0","0","12433","","null","","","null","11","","NaN","","","","","","","","","","","","","",""
"","response","","html-keyboard-response","81","233588","0.0-1.0-104.0-0.0","0","0","12433","","472","","","68","11","","","1","11","training","adjacent","DC","4","3","N.jpg","M.jpg","0","0","1","",""
"","feedback","","html-keyboard-response","82","234591","0.0-1.0-105.0-0.0","0","0","12433","","null","","","null","11","","","","","","","","","","","","","","","",""
"","ITI","","html-keyboard-response","83","235597","0.0-1.0-108.0","0","0","12433","","null","","","null","11","","","","","","","","","","","","","","","NaN",""
"","S1","","html-keyboard-response","84","235849","0.0-1.0-110.0","0","0","12433","","null","","","null","12","","","","","","","","","","","","","","","",""
"","ISI","","html-keyboard-response","85","236001","0.0-1.0-111.0","0","0","12433","","null","","","null","12","NaN","","","","","","","","","","","","","","",""
"","S2","","html-keyboard-response","86","236255","0.0-1.0-112.0","0","0","12433","","null","","","null","12","","NaN","","","","","","","","","","","","","",""
"","response","","html-keyboard-response","87","237030","0.0-1.0-113.0-0.0","0","0","12433","","773","","","75","12","","","1","12","training","adjacent","GF","7","6","L.jpg","P.jpg","1","0","0","",""
"","feedback","","html-keyboard-response","88","238034","0.0-1.0-114.0-0.0","0","0","12433","","null","","","null","12","","","","","","","","","","","","","","","",""
"","time_out","","html-keyboard-response","89","240037","0.0-1.0-116.0-0.0","0","0","12433","","null","","","null","12","","","","","","","","","","","","","","","",""
"","ITI","","html-keyboard-response","90","241040","0.0-1.0-117.0","0","0","12433","","null","","","null","12","","","","","","","","","","","","","","","NaN",""
"","S1","","html-keyboard-response","91","241293","0.0-1.0-119.0","0","0","12433","","null","","","null","13","","","","","","","","","","","","","","","",""
"","ISI","","html-keyboard-response","92","241446","0.0-1.0-120.0","0","0","12433","","null","","","null","13","NaN","","","","","","","","","","","","","","",""
"","S2","","html-keyboard-response","93","241698","0.0-1.0-121.0","0","0","12433","","null","","","null","13","","NaN","","","","","","","","","","","","","",""
"","response","","html-keyboard-response","94","242167","0.0-1.0-122.0-0.0","0","0","12433","","467","","","68","13","","","1","13","training","adjacent","BC","2","3","R.jpg","M.jpg","0","1","0","",""
"","feedback","","html-keyboard-response","95","243170","0.0-1.0-123.0-0.0","0","0","12433","","null","","","null","13","","","","","","","","","","","","","","","",""
"","time_out","","html-keyboard-response","96","245172","0.0-1.0-125.0-0.0","0","0","12433","","null","","","null","13","","","","","","","","","","","","","","","",""
"","ITI","","html-keyboard-response","97","246175","0.0-1.0-126.0","0","0","12433","","null","","","null","13","","","","","","","","","","","","","","","NaN",""
"","S1","","html-keyboard-response","98","246429","0.0-1.0-128.0","0","0","12433","","null","","","null","14","","","","","","","","","","","","","","","",""
"","ISI","","html-keyboard-response","99","246581","0.0-1.0-129.0","0","0","12433","","null","","","null","14","NaN","","","","","","","","","","","","","","",""
"","S2","","html-keyboard-response","100","246834","0.0-1.0-130.0","0","0","12433","","null","","","null","14","","NaN","","","","","","","","","","","","","",""
"","response","","html-keyboard-response","101","247191","0.0-1.0-131.0-0.0","0","0","12433","","354","","","68","14","","","1","14","training","adjacent","BC","2","3","R.jpg","M.jpg","0","1","0","",""
"","feedback","","html-keyboard-response","102","248195","0.0-1.0-132.0-0.0","0","0","12433","","null","","","null","14","","","","","","","","","","","","","","","",""
"","time_out","","html-keyboard-response","103","250198","0.0-1.0-134.0-0.0","0","0","12433","","null","","","null","14","","","","","","","","","","","","","","","",""
"","ITI","","html-keyboard-response","104","251201","0.0-1.0-135.0","0","0","12433","","null","","","null","14","","","","","","","","","","","","","","","NaN",""
"","S1","","html-keyboard-response","105","251453","0.0-1.0-137.0","0","0","12433","","null","","","null","15","","","","","","","","","","","","","","","",""
"","ISI","","html-keyboard-response","106","251607","0.0-1.0-138.0","0","0","12433","","null","","","null","15","NaN","","","","","","","","","","","","","","",""
"","S2","","html-keyboard-response","107","251860","0.0-1.0-139.0","0","0","12433","","null","","","null","15","","NaN","","","","","","","","","","","","","",""
"","response","","html-keyboard-response","108","252375","0.0-1.0-140.0-0.0","0","0","12433","","513","","","68","15","","","1","15","training","adjacent","GF","7","6","L.jpg","P.jpg","0","0","1","",""
"","feedback","","html-keyboard-response","109","253378","0.0-1.0-141.0-0.0","0","0","12433","","null","","","null","15","","","","","","","","","","","","","","","",""
"","ITI","","html-keyboard-response","110","254380","0.0-1.0-144.0","0","0","12433","","null","","","null","15","","","","","","","","","","","","","","","NaN",""
"","S1","","html-keyboard-response","111","254632","0.0-1.0-146.0","0","0","12433","","null","","","null","16","","","","","","","","","","","","","","","",""
"","ISI","","html-keyboard-response","112","254785","0.0-1.0-147.0","0","0","12433","","null","","","null","16","NaN","","","","","","","","","","","","","","",""
"","S2","","html-keyboard-response","113","255039","0.0-1.0-148.0","0","0","12433","","null","","","null","16","","NaN","","","","","","","","","","","","","",""
"","response","","html-keyboard-response","114","255458","0.0-1.0-149.0-0.0","0","0","12433","","416","","","68","16","","","1","16","training","adjacent","DE","4","5","N.jpg","O.jpg","0","1","0","",""
"","feedback","","html-keyboard-response","115","256460","0.0-1.0-150.0-0.0","0","0","12433","","null","","","null","16","","","","","","","","","","","","","","","",""
"","time_out","","html-keyboard-response","116","258462","0.0-1.0-152.0-0.0","0","0","12433","","null","","","null","16","","","","","","","","","","","","","","","",""
"","ITI","","html-keyboard-response","117","259464","0.0-1.0-153.0","0","0","12433","","null","","","null","16","","","","","","","","","","","","","","","NaN",""
"","S1","","html-keyboard-response","118","259717","0.0-1.0-155.0","0","0","12433","","null","","","null","17","","","","","","","","","","","","","","","",""
"","ISI","","html-keyboard-response","119","259870","0.0-1.0-156.0","0","0","12433","","null","","","null","17","NaN","","","","","","","","","","","","","","",""
"","S2","","html-keyboard-response","120","260125","0.0-1.0-157.0","0","0","12433","","null","","","null","17","","NaN","","","","","","","","","","","","","",""
"","response","","html-keyboard-response","121","260776","0.0-1.0-158.0-0.0","0","0","12433","","650","","","75","17","","","1","17","training","adjacent","CD","3","4","M.jpg","N.jpg","1","1","1","",""
"","feedback","","html-keyboard-response","122","261778","0.0-1.0-159.0-0.0","0","0","12433","","null","","","null","17","","","","","","","","","","","","","","","",""
"","ITI","","html-keyboard-response","123","262781","0.0-1.0-162.0","0","0","12433","","null","","","null","17","","","","","","","","","","","","","","","NaN",""
"","S1","","html-keyboard-response","124","263034","0.0-1.0-164.0","0","0","12433","","null","","","null","18","","","","","","","","","","","","","","","",""
"","ISI","","html-keyboard-response","125","263187","0.0-1.0-165.0","0","0","12433","","null","","","null","18","NaN","","","","","","","","","","","","","","",""
"","S2","","html-keyboard-response","126","263441","0.0-1.0-166.0","0","0","12433","","null","","","null","18","","NaN","","","","","","","","","","","","","",""
"","response","","html-keyboard-response","127","263859","0.0-1.0-167.0-0.0","0","0","12433","","417","","","75","18","","","1","18","training","adjacent","GF","7","6","L.jpg","P.jpg","1","0","0","",""
"","feedback","","html-keyboard-response","128","264862","0.0-1.0-168.0-0.0","0","0","12433","","null","","","null","18","","","","","","","","","","","","","","","",""
"","time_out","","html-keyboard-response","129","266864","0.0-1.0-170.0-0.0","0","0","12433","","null","","","null","18","","","","","","","","","","","","","","","",""
"","ITI","","html-keyboard-response","130","267867","0.0-1.0-171.0","0","0","12433","","null","","","null","18","","","","","","","","","","","","","","","NaN",""
"","S1","","html-keyboard-response","131","268124","0.0-1.0-173.0","0","0","12433","","null","","","null","19","","","","","","","","","","","","","","","",""
"","ISI","","html-keyboard-response","132","268277","0.0-1.0-174.0","0","0","12433","","null","","","null","19","NaN","","","","","","","","","","","","","","",""
"","S2","","html-keyboard-response","133","268530","0.0-1.0-175.0","0","0","12433","","null","","","null","19","","NaN","","","","","","","","","","","","","",""
"","response","","html-keyboard-response","134","268743","0.0-1.0-176.0-0.0","0","0","12433","","210","","","68","19","","","1","19","training","adjacent","EF","5","6","O.jpg","P.jpg","0","1","0","",""
"","feedback","","html-keyboard-response","135","269745","0.0-1.0-177.0-0.0","0","0","12433","","null","","","null","19","","","","","","","","","","","","","","","",""
"","time_out","","html-keyboard-response","136","271747","0.0-1.0-179.0-0.0","0","0","12433","","null","","","null","19","","","","","","","","","","","","","","","",""
"","ITI","","html-keyboard-response","137","272751","0.0-1.0-180.0","0","0","12433","","null","","","null","19","","","","","","","","","","","","","","","NaN",""
"","S1","","html-keyboard-response","138","273004","0.0-1.0-182.0","0","0","12433","","null","","","null","20","","","","","","","","","","","","","","","",""
"","ISI","","html-keyboard-response","139","273158","0.0-1.0-183.0","0","0","12433","","null","","","null","20","NaN","","","","","","","","","","","","","","",""
"","S2","","html-keyboard-response","140","273410","0.0-1.0-184.0","0","0","12433","","null","","","null","20","","NaN","","","","","","","","","","","","","",""
"","response","","html-keyboard-response","141","273752","0.0-1.0-185.0-0.0","0","0","12433","","340","","","68","20","","","1","20","training","adjacent","AB","1","2","Q.jpg","R.jpg","0","1","0","",""
"","feedback","","html-keyboard-response","142","274755","0.0-1.0-186.0-0.0","0","0","12433","","null","","","null","20","","","","","","","","","","","","","","","",""
"","time_out","","html-keyboard-response","143","276758","0.0-1.0-188.0-0.0","0","0","12433","","null","","","null","20","","","","","","","","","","","","","","","",""
"","ITI","","html-keyboard-response","144","277760","0.0-1.0-189.0","0","0","12433","","null","","","null","20","","","","","","","","","","","","","","","NaN",""
"","S1","","html-keyboard-response","145","278014","0.0-1.0-191.0","0","0","12433","","null","","","null","21","","","","","","","","","","","","","","","",""
"","ISI","","html-keyboard-response","146","278167","0.0-1.0-192.0","0","0","12433","","null","","","null","21","NaN","","","","","","","","","","","","","","",""
"","S2","","html-keyboard-response","147","278420","0.0-1.0-193.0","0","0","12433","","null","","","null","21","","NaN","","","","","","","","","","","","","",""
"","response","","html-keyboard-response","148","278770","0.0-1.0-194.0-0.0","0","0","12433","","348","","","68","21","","","1","21","training","adjacent","FE","6","5","P.jpg","O.jpg","0","0","1","",""
"","feedback","","html-keyboard-response","149","279773","0.0-1.0-195.0-0.0","0","0","12433","","null","","","null","21","","","","","","","","","","","","","","","",""
"","ITI","","html-keyboard-response","150","280776","0.0-1.0-198.0","0","0","12433","","null","","","null","21","","","","","","","","","","","","","","","NaN",""
"","S1","","html-keyboard-response","151","281029","0.0-1.0-200.0","0","0","12433","","null","","","null","22","","","","","","","","","","","","","","","",""
"","ISI","","html-keyboard-response","152","281183","0.0-1.0-201.0","0","0","12433","","null","","","null","22","NaN","","","","","","","","","","","","","","",""
"","S2","","html-keyboard-response","153","281437","0.0-1.0-202.0","0","0","12433","","null","","","null","22","","NaN","","","","","","","","","","","","","",""
"","response","","html-keyboard-response","154","281714","0.0-1.0-203.0-0.0","0","0","12433","","275","","","75","22","","","1","22","training","adjacent","ED","5","4","O.jpg","N.jpg","1","0","0","",""
"","feedback","","html-keyboard-response","155","282717","0.0-1.0-204.0-0.0","0","0","12433","","null","","","null","22","","","","","","","","","","","","","","","",""
"","time_out","","html-keyboard-response","156","284720","0.0-1.0-206.0-0.0","0","0","12433","","null","","","null","22","","","","","","","","","","","","","","","",""
"","ITI","","html-keyboard-response","157","285722","0.0-1.0-207.0","0","0","12433","","null","","","null","22","","","","","","","","","","","","","","","NaN",""
"","S1","","html-keyboard-response","158","285975","0.0-1.0-209.0","0","0","12433","","null","","","null","23","","","","","","","","","","","","","","","",""
"","ISI","","html-keyboard-response","159","286126","0.0-1.0-210.0","0","0","12433","","null","","","null","23","NaN","","","","","","","","","","","","","","",""
"","S2","","html-keyboard-response","160","286381","0.0-1.0-211.0","0","0","12433","","null","","","null","23","","NaN","","","","","","","","","","","","","",""
"","response","","html-keyboard-response","161","286984","0.0-1.0-212.0-0.0","0","0","12433","","599","","","68","23","","","1","23","training","adjacent","AB","1","2","Q.jpg","R.jpg","0","1","0","",""
"","feedback","","html-keyboard-response","162","287987","0.0-1.0-213.0-0.0","0","0","12433","","null","","","null","23","","","","","","","","","","","","","","","",""
"","time_out","","html-keyboard-response","163","289990","0.0-1.0-215.0-0.0","0","0","12433","","null","","","null","23","","","","","","","","","","","","","","","",""
"","ITI","","html-keyboard-response","164","290993","0.0-1.0-216.0","0","0","12433","","null","","","null","23","","","","","","","","","","","","","","","NaN",""
"","S1","","html-keyboard-response","165","291246","0.0-1.0-218.0","0","0","12433","","null","","","null","24","","","","","","","","","","","","","","","",""
"","ISI","","html-keyboard-response","166","291399","0.0-1.0-219.0","0","0","12433","","null","","","null","24","NaN","","","","","","","","","","","","","","",""
"","S2","","html-keyboard-response","167","291651","0.0-1.0-220.0","0","0","12433","","null","","","null","24","","NaN","","","","","","","","","","","","","",""
"","response","","html-keyboard-response","168","291952","0.0-1.0-221.0-0.0","0","0","12433","","300","","","75","24","","","1","24","training","adjacent","DE","4","5","N.jpg","O.jpg","1","1","1","",""
"","feedback","","html-keyboard-response","169","292955","0.0-1.0-222.0-0.0","0","0","12433","","null","","","null","24","","","","","","","","","","","","","","","",""
"","ITI","","html-keyboard-response","170","293957","0.0-1.0-225.0","0","0","12433","","null","","","null","24","","","","","","","","","","","","","","","NaN",""
"","S1","","html-keyboard-response","171","294209","0.0-1.0-227.0","0","0","12433","","null","","","null","25","","","","","","","","","","","","","","","",""
"","ISI","","html-keyboard-response","172","294363","0.0-1.0-228.0","0","0","12433","","null","","","null","25","NaN","","","","","","","","","","","","","","",""
"","S2","","html-keyboard-response","173","294616","0.0-1.0-229.0","0","0","12433","","null","","","null","25","","NaN","","","","","","","","","","","","","",""
"","response","","html-keyboard-response","174","294900","0.0-1.0-230.0-0.0","0","0","12433","","283","","","68","25","","","1","25","training","adjacent","EF","5","6","O.jpg","P.jpg","0","1","0","",""
"","feedback","","html-keyboard-response","175","295903","0.0-1.0-231.0-0.0","0","0","12433","","null","","","null","25","","","","","","","","","","","","","","","",""
"","time_out","","html-keyboard-response","176","297905","0.0-1.0-233.0-0.0","0","0","12433","","null","","","null","25","","","","","","","","","","","","","","","",""
"","ITI","","html-keyboard-response","177","298907","0.0-1.0-234.0","0","0","12433","","null","","","null","25","","","","","","","","","","","","","","","NaN",""
"","S1","","html-keyboard-response","178","299162","0.0-1.0-236.0","0","0","12433","","null","","","null","26","","","","","","","","","","","","","","","",""
"","ISI","","html-keyboard-response","179","299315","0.0-1.0-237.0","0","0","12433","","null","","","null","26","NaN","","","","","","","","","","","","","","",""
"","S2","","html-keyboard-response","180","299567","0.0-1.0-238.0","0","0","12433","","null","","","null","26","","NaN","","","","","","","","","","","","","",""
"","response","","html-keyboard-response","181","299962","0.0-1.0-239.0-0.0","0","0","12433","","392","","","68","26","","","1","26","training","adjacent","CD","3","4","M.jpg","N.jpg","0","1","0","",""
"","feedback","","html-keyboard-response","182","300966","0.0-1.0-240.0-0.0","0","0","12433","","null","","","null","26","","","","","","","","","","","","","","","",""
"","time_out","","html-keyboard-response","183","302968","0.0-1.0-242.0-0.0","0","0","12433","","null","","","null","26","","","","","","","","","","","","","","","",""
"","ITI","","html-keyboard-response","184","303970","0.0-1.0-243.0","0","0","12433","","null","","","null","26","","","","","","","","","","","","","","","NaN",""
"","S1","","html-keyboard-response","185","304223","0.0-1.0-245.0","0","0","12433","","null","","","null","27","","","","","","","","","","","","","","","",""
"","ISI","","html-keyboard-response","186","304376","0.0-1.0-246.0","0","0","12433","","null","","","null","27","NaN","","","","","","","","","","","","","","",""
"","S2","","html-keyboard-response","187","304630","0.0-1.0-247.0","0","0","12433","","null","","","null","27","","NaN","","","","","","","","","","","","","",""
"","response","","html-keyboard-response","188","304924","0.0-1.0-248.0-0.0","0","0","12433","","293","","","75","27","","","1","27","training","adjacent","ED","5","4","O.jpg","N.jpg","1","0","0","",""
"","feedback","","html-keyboard-response","189","305928","0.0-1.0-249.0-0.0","0","0","12433","","null","","","null","27","","","","","","","","","","","","","","","",""
"","time_out","","html-keyboard-response","190","307930","0.0-1.0-251.0-0.0","0","0","12433","","null","","","null","27","","","","","","","","","","","","","","","",""
"","ITI","","html-keyboard-response","191","308933","0.0-1.0-252.0","0","0","12433","","null","","","null","27","","","","","","","","","","","","","","","NaN",""
"","S1","","html-keyboard-response","192","309185","0.0-1.0-254.0","0","0","12433","","null","","","null","28","","","","","","","","","","","","","","","",""
"","ISI","","html-keyboard-response","193","309338","0.0-1.0-255.0","0","0","12433","","null","","","null","28","NaN","","","","","","","","","","","","","","",""
"","S2","","html-keyboard-response","194","309591","0.0-1.0-256.0","0","0","12433","","null","","","null","28","","NaN","","","","","","","","","","","","","",""
"","response","","html-keyboard-response","195","309888","0.0-1.0-257.0-0.0","0","0","12433","","295","","","75","28","","","1","28","training","adjacent","ED","5","4","O.jpg","N.jpg","1","0","0","",""
"","feedback","","html-keyboard-response","196","310893","0.0-1.0-258.0-0.0","0","0","12433","","null","","","null","28","","","","","","","","","","","","","","","",""
"","time_out","","html-keyboard-response","197","312895","0.0-1.0-260.0-0.0","0","0","12433","","null","","","null","28","","","","","","","","","","","","","","","",""
"","ITI","","html-keyboard-response","198","313897","0.0-1.0-261.0","0","0","12433","","null","","","null","28","","","","","","","","","","","","","","","NaN",""
"","S1","","html-keyboard-response","199","314150","0.0-1.0-263.0","0","0","12433","","null","","","null","29","","","","","","","","","","","","","","","",""
"","ISI","","html-keyboard-response","200","314302","0.0-1.0-264.0","0","0","12433","","null","","","null","29","NaN","","","","","","","","","","","","","","",""
"","S2","","html-keyboard-response","201","314555","0.0-1.0-265.0","0","0","12433","","null","","","null","29","","NaN","","","","","","","","","","","","","",""
"","response","","html-keyboard-response","202","314985","0.0-1.0-266.0-0.0","0","0","12433","","429","","","68","29","","","1","29","training","adjacent","DC","4","3","N.jpg","M.jpg","0","0","1","",""
"","feedback","","html-keyboard-response","203","315990","0.0-1.0-267.0-0.0","0","0","12433","","null","","","null","29","","","","","","","","","","","","","","","",""
"","ITI","","html-keyboard-response","204","316994","0.0-1.0-270.0","0","0","12433","","null","","","null","29","","","","","","","","","","","","","","","NaN",""
"","S1","","html-keyboard-response","205","317246","0.0-1.0-272.0","0","0","12433","","null","","","null","30","","","","","","","","","","","","","","","",""
"","ISI","","html-keyboard-response","206","317399","0.0-1.0-273.0","0","0","12433","","null","","","null","30","NaN","","","","","","","","","","","","","","",""
"","S2","","html-keyboard-response","207","317651","0.0-1.0-274.0","0","0","12433","","null","","","null","30","","NaN","","","","","","","","","","","","","",""
"","response","","html-keyboard-response","208","318027","0.0-1.0-275.0-0.0","0","0","12433","","373","","","75","30","","","1","30","training","adjacent","BC","2","3","R.jpg","M.jpg","1","1","1","",""
"","feedback","","html-keyboard-response","209","319029","0.0-1.0-276.0-0.0","0","0","12433","","null","","","null","30","","","","","","","","","","","","","","","",""
"","ITI","","html-keyboard-response","210","320044","0.0-1.0-279.0","0","0","12433","","null","","","null","30","","","","","","","","","","","","","","","NaN",""
"","S1","","html-keyboard-response","211","320296","0.0-1.0-281.0","0","0","12433","","null","","","null","31","","","","","","","","","","","","","","","",""
"","ISI","","html-keyboard-response","212","320449","0.0-1.0-282.0","0","0","12433","","null","","","null","31","NaN","","","","","","","","","","","","","","",""
"","S2","","html-keyboard-response","213","320702","0.0-1.0-283.0","0","0","12433","","null","","","null","31","","NaN","","","","","","","","","","","","","",""
"","response","","html-keyboard-response","214","320952","0.0-1.0-284.0-0.0","0","0","12433","","247","","","75","31","","","1","31","training","adjacent","BA","2","1","R.jpg","Q.jpg","1","0","0","",""
"","feedback","","html-keyboard-response","215","321956","0.0-1.0-285.0-0.0","0","0","12433","","null","","","null","31","","","","","","","","","","","","","","","",""
"","time_out","","html-keyboard-response","216","323959","0.0-1.0-287.0-0.0","0","0","12433","","null","","","null","31","","","","","","","","","","","","","","","",""
"","ITI","","html-keyboard-response","217","324961","0.0-1.0-288.0","0","0","12433","","null","","","null","31","","","","","","","","","","","","","","","NaN",""
"","S1","","html-keyboard-response","218","325228","0.0-1.0-290.0","0","0","12433","","null","","","null","32","","","","","","","","","","","","","","","",""
"","ISI","","html-keyboard-response","219","325381","0.0-1.0-291.0","0","0","12433","","null","","","null","32","NaN","","","","","","","","","","","","","","",""
"","S2","","html-keyboard-response","220","325633","0.0-1.0-292.0","0","0","12433","","null","","","null","32","","NaN","","","","","","","","","","","","","",""
"","response","","html-keyboard-response","221","326072","0.0-1.0-293.0-0.0","0","0","12433","","436","","","75","32","","","1","32","training","adjacent","BA","2","1","R.jpg","Q.jpg","1","0","0","",""
"","feedback","","html-keyboard-response","222","327074","0.0-1.0-294.0-0.0","0","0","12433","","null","","","null","32","","","","","","","","","","","","","","","",""
"","time_out","","html-keyboard-response","223","329076","0.0-1.0-296.0-0.0","0","0","12433","","null","","","null","32","","","","","","","","","","","","","","","",""
"","ITI","","html-keyboard-response","224","330078","0.0-1.0-297.0","0","0","12433","","null","","","null","32","","","","","","","","","","","","","","","NaN",""
"","S1","","html-keyboard-response","225","330330","0.0-1.0-299.0","0","0","12433","","null","","","null","33","","","","","","","","","","","","","","","",""
"","ISI","","html-keyboard-response","226","330483","0.0-1.0-300.0","0","0","12433","","null","","","null","33","NaN","","","","","","","","","","","","","","",""
"","S2","","html-keyboard-response","227","330735","0.0-1.0-301.0","0","0","12433","","null","","","null","33","","NaN","","","","","","","","","","","","","",""
"","response","","html-keyboard-response","228","331073","0.0-1.0-302.0-0.0","0","0","12433","","335","","","68","33","","","1","33","training","adjacent","DE","4","5","N.jpg","O.jpg","0","1","0","",""
"","feedback","","html-keyboard-response","229","332075","0.0-1.0-303.0-0.0","0","0","12433","","null","","","null","33","","","","","","","","","","","","","","","",""
"","time_out","","html-keyboard-response","230","334076","0.0-1.0-305.0-0.0","0","0","12433","","null","","","null","33","","","","","","","","","","","","","","","",""
"","ITI","","html-keyboard-response","231","335078","0.0-1.0-306.0","0","0","12433","","null","","","null","33","","","","","","","","","","","","","","","NaN",""
"","S1","","html-keyboard-response","232","335331","0.0-1.0-308.0","0","0","12433","","null","","","null","34","","","","","","","","","","","","","","","",""
"","ISI","","html-keyboard-response","233","335496","0.0-1.0-309.0","0","0","12433","","null","","","null","34","NaN","","","","","","","","","","","","","","",""
"","S2","","html-keyboard-response","234","335749","0.0-1.0-310.0","0","0","12433","","null","","","null","34","","NaN","","","","","","","","","","","","","",""
"","response","","html-keyboard-response","235","336121","0.0-1.0-311.0-0.0","0","0","12433","","371","","","68","34","","","1","34","training","adjacent","BC","2","3","R.jpg","M.jpg","0","1","0","",""
"","feedback","","html-keyboard-response","236","337125","0.0-1.0-312.0-0.0","0","0","12433","","null","","","null","34","","","","","","","","","","","","","","","",""
"","time_out","","html-keyboard-response","237","339127","0.0-1.0-314.0-0.0","0","0","12433","","null","","","null","34","","","","","","","","","","","","","","","",""
"","ITI","","html-keyboard-response","238","340129","0.0-1.0-315.0","0","0","12433","","null","","","null","34","","","","","","","","","","","","","","","NaN",""
"","S1","","html-keyboard-response","239","340382","0.0-1.0-317.0","0","0","12433","","null","","","null","35","","","","","","","","","","","","","","","",""
"","ISI","","html-keyboard-response","240","340536","0.0-1.0-318.0","0","0","12433","","null","","","null","35","NaN","","","","","","","","","","","","","","",""
"","S2","","html-keyboard-response","241","340788","0.0-1.0-319.0","0","0","12433","","null","","","null","35","","NaN","","","","","","","","","","","","","",""
"","response","","html-keyboard-response","242","341246","0.0-1.0-320.0-0.0","0","0","12433","","455","","","68","35","","","1","35","training","adjacent","FG","6","7","P.jpg","L.jpg","0","1","0","",""
"","feedback","","html-keyboard-response","243","342249","0.0-1.0-321.0-0.0","0","0","12433","","null","","","null","35","","","","","","","","","","","","","","","",""
"","time_out","","html-keyboard-response","244","344254","0.0-1.0-323.0-0.0","0","0","12433","","null","","","null","35","","","","","","","","","","","","","","","",""
"","ITI","","html-keyboard-response","245","345256","0.0-1.0-324.0","0","0","12433","","null","","","null","35","","","","","","","","","","","","","","","NaN",""
"","S1","","html-keyboard-response","246","345509","0.0-1.0-326.0","0","0","12433","","null","","","null","36","","","","","","","","","","","","","","","",""
"","ISI","","html-keyboard-response","247","345662","0.0-1.0-327.0","0","0","12433","","null","","","null","36","NaN","","","","","","","","","","","","","","",""
"","S2","","html-keyboard-response","248","345916","0.0-1.0-328.0","0","0","12433","","null","","","null","36","","NaN","","","","","","","","","","","","","",""
"","response","","html-keyboard-response","249","346312","0.0-1.0-329.0-0.0","0","0","12433","","393","","","68","36","","","1","36","training","adjacent","CD","3","4","M.jpg","N.jpg","0","1","0","",""
"","feedback","","html-keyboard-response","250","347315","0.0-1.0-330.0-0.0","0","0","12433","","null","","","null","36","","","","","","","","","","","","","","","",""
"","time_out","","html-keyboard-response","251","349318","0.0-1.0-332.0-0.0","0","0","12433","","null","","","null","36","","","","","","","","","","","","","","","",""
"","ITI","","html-keyboard-response","252","350321","0.0-1.0-333.0","0","0","12433","","null","","","null","36","","","","","","","","","","","","","","","NaN",""
"","S1","","html-keyboard-response","253","350587","0.0-1.0-335.0","0","0","12433","","null","","","null","37","","","","","","","","","","","","","","","",""
"","ISI","","html-keyboard-response","254","350739","0.0-1.0-336.0","0","0","12433","","null","","","null","37","NaN","","","","","","","","","","","","","","",""
"","S2","","html-keyboard-response","255","350759","0.0-1.0-337.0","0","0","12433","","19","","","75","37","","k","1","37","training","adjacent","FG","6","7","P.jpg","L.jpg","1","1","1","",""
"","feedback","","html-keyboard-response","256","351762","0.0-1.0-339.0-0.0","0","0","12433","","null","","","null","37","","","","","","","","","","","","","","","",""
"","ITI","","html-keyboard-response","257","352767","0.0-1.0-342.0","0","0","12433","","null","","","null","37","","","","","","","","","","","","","","","NaN",""
"","S1","","html-keyboard-response","258","353019","0.0-1.0-344.0","0","0","12433","","null","","","null","38","","","","","","","","","","","","","","","",""
"","ISI","","html-keyboard-response","259","353172","0.0-1.0-345.0","0","0","12433","","null","","","null","38","NaN","","","","","","","","","","","","","","",""
"","S2","","html-keyboard-response","260","353425","0.0-1.0-346.0","0","0","12433","","null","","","null","38","","NaN","","","","","","","","","","","","","",""
"","response","","html-keyboard-response","261","353612","0.0-1.0-347.0-0.0","0","0","12433","","185","","","75","38","","","1","38","training","adjacent","EF","5","6","O.jpg","P.jpg","1","1","1","",""
"","feedback","","html-keyboard-response","262","354616","0.0-1.0-348.0-0.0","0","0","12433","","null","","","null","38","","","","","","","","","","","","","","","",""
"","ITI","","html-keyboard-response","263","355618","0.0-1.0-351.0","0","0","12433","","null","","","null","38","","","","","","","","","","","","","","","NaN",""
"","S1","","html-keyboard-response","264","355871","0.0-1.0-353.0","0","0","12433","","null","","","null","39","","","","","","","","","","","","","","","",""
"","ISI","","html-keyboard-response","265","356024","0.0-1.0-354.0","0","0","12433","","null","","","null","39","NaN","","","","","","","","","","","","","","",""
"","S2","","html-keyboard-response","266","356277","0.0-1.0-355.0","0","0","12433","","null","","","null","39","","NaN","","","","","","","","","","","","","",""
"","response","","html-keyboard-response","267","356374","0.0-1.0-356.0-0.0","0","0","12433","","96","","","68","39","","","1","39","training","adjacent","CB","3","2","M.jpg","R.jpg","0","0","1","",""
"","feedback","","html-keyboard-response","268","357377","0.0-1.0-357.0-0.0","0","0","12433","","null","","","null","39","","","","","","","","","","","","","","","",""
"","ITI","","html-keyboard-response","269","358380","0.0-1.0-360.0","0","0","12433","","null","","","null","39","","","","","","","","","","","","","","","NaN",""
"","S1","","html-keyboard-response","270","358633","0.0-1.0-362.0","0","0","12433","","null","","","null","40","","","","","","","","","","","","","","","",""
"","ISI","","html-keyboard-response","271","358785","0.0-1.0-363.0","0","0","12433","","null","","","null","40","NaN","","","","","","","","","","","","","","",""
"","S2","","html-keyboard-response","272","359039","0.0-1.0-364.0","0","0","12433","","null","","","null","40","","NaN","","","","","","","","","","","","","",""
"","response","","html-keyboard-response","273","359169","0.0-1.0-365.0-0.0","0","0","12433","","129","","","68","40","","","1","40","training","adjacent","AB","1","2","Q.jpg","R.jpg","0","1","0","",""
"","feedback","","html-keyboard-response","274","360172","0.0-1.0-366.0-0.0","0","0","12433","","null","","","null","40","","","","","","","","","","","","","","","",""
"","time_out","","html-keyboard-response","275","362174","0.0-1.0-368.0-0.0","0","0","12433","","null","","","null","40","","","","","","","","","","","","","","","",""
"","ITI","","html-keyboard-response","276","363176","0.0-1.0-369.0","0","0","12433","","null","","","null","40","","","","","","","","","","","","","","","NaN",""
"","S1","","html-keyboard-response","277","363430","0.0-1.0-371.0","0","0","12433","","null","","","null","41","","","","","","","","","","","","","","","",""
"","ISI","","html-keyboard-response","278","363583","0.0-1.0-372.0","0","0","12433","","null","","","null","41","NaN","","","","","","","","","","","","","","",""
"","S2","","html-keyboard-response","279","363807","0.0-1.0-373.0","0","0","12433","","222","","","75","41","","k","1","41","training","adjacent","ED","5","4","O.jpg","N.jpg","1","0","0","",""
"","feedback","","html-keyboard-response","280","364811","0.0-1.0-375.0-0.0","0","0","12433","","null","","","null","41","","","","","","","","","","","","","","","",""
"","time_out","","html-keyboard-response","281","366815","0.0-1.0-377.0-0.0","0","0","12433","","null","","","null","41","","","","","","","","","","","","","","","",""
"","ITI","","html-keyboard-response","282","367818","0.0-1.0-378.0","0","0","12433","","null","","","null","41","","","","","","","","","","","","","","","NaN",""
"","S1","","html-keyboard-response","283","368070","0.0-1.0-380.0","0","0","12433","","null","","","null","42","","","","","","","","","","","","","","","",""
"","ISI","","html-keyboard-response","284","368223","0.0-1.0-381.0","0","0","12433","","null","","","null","42","NaN","","","","","","","","","","","","","","",""
"","S2","","html-keyboard-response","285","368475","0.0-1.0-382.0","0","0","12433","","null","","","null","42","","NaN","","","","","","","","","","","","","",""
"","response","","html-keyboard-response","286","368728","0.0-1.0-383.0-0.0","0","0","12433","","250","","","68","42","","","1","42","training","adjacent","BA","2","1","R.jpg","Q.jpg","0","0","1","",""
"","feedback","","html-keyboard-response","287","369731","0.0-1.0-384.0-0.0","0","0","12433","","null","","","null","42","","","","","","","","","","","","","","","",""
"","ITI","","html-keyboard-response","288","370733","0.0-1.0-387.0","0","0","12433","","null","","","null","42","","","","","","","","","","","","","","","NaN",""
"","S1","","html-keyboard-response","289","370986","0.0-1.0-389.0","0","0","12433","","null","","","null","43","","","","","","","","","","","","","","","",""
"","ISI","","html-keyboard-response","290","371138","0.0-1.0-390.0","0","0","12433","","null","","","null","43","NaN","","","","","","","","","","","","","","",""
"","S2","","html-keyboard-response","291","371392","0.0-1.0-391.0","0","0","12433","","null","","","null","43","","NaN","","","","","","","","","","","","","",""
"","response","","html-keyboard-response","292","371716","0.0-1.0-392.0-0.0","0","0","12433","","323","","","68","43","","","1","43","training","adjacent","CB","3","2","M.jpg","R.jpg","0","0","1","",""
"","feedback","","html-keyboard-response","293","372719","0.0-1.0-393.0-0.0","0","0","12433","","null","","","null","43","","","","","","","","","","","","","","","",""
"","ITI","","html-keyboard-response","294","373721","0.0-1.0-396.0","0","0","12433","","null","","","null","43","","","","","","","","","","","","","","","NaN",""
"","S1","","html-keyboard-response","295","373974","0.0-1.0-398.0","0","0","12433","","null","","","null","44","","","","","","","","","","","","","","","",""
"","ISI","","html-keyboard-response","296","374131","0.0-1.0-399.0","0","0","12433","","null","","","null","44","NaN","","","","","","","","","","","","","","",""
"","S2","","html-keyboard-response","297","374383","0.0-1.0-400.0","0","0","12433","","null","","","null","44","","NaN","","","","","","","","","","","","","",""
"","response","","html-keyboard-response","298","374497","0.0-1.0-401.0-0.0","0","0","12433","","111","","","68","44","","","1","44","training","adjacent","FE","6","5","P.jpg","O.jpg","0","0","1","",""
"","feedback","","html-keyboard-response","299","375499","0.0-1.0-402.0-0.0","0","0","12433","","null","","","null","44","","","","","","","","","","","","","","","",""
"","ITI","","html-keyboard-response","300","376503","0.0-1.0-405.0","0","0","12433","","null","","","null","44","","","","","","","","","","","","","","","NaN",""
"","S1","","html-keyboard-response","301","376756","0.0-1.0-407.0","0","0","12433","","null","","","null","45","","","","","","","","","","","","","","","",""
"","ISI","","html-keyboard-response","302","376910","0.0-1.0-408.0","0","0","12433","","null","","","null","45","NaN","","","","","","","","","","","","","","",""
"","S2","","html-keyboard-response","303","377163","0.0-1.0-409.0","0","0","12433","","null","","","null","45","","NaN","","","","","","","","","","","","","",""
"","response","","html-keyboard-response","304","377255","0.0-1.0-410.0-0.0","0","0","12433","","91","","","68","45","","","1","45","training","adjacent","DC","4","3","N.jpg","M.jpg","0","0","1","",""
"","feedback","","html-keyboard-response","305","378260","0.0-1.0-411.0-0.0","0","0","12433","","null","","","null","45","","","","","","","","","","","","","","","",""
"","ITI","","html-keyboard-response","306","379262","0.0-1.0-414.0","0","0","12433","","null","","","null","45","","","","","","","","","","","","","","","NaN",""
"","S1","","html-keyboard-response","307","379514","0.0-1.0-416.0","0","0","12433","","null","","","null","46","","","","","","","","","","","","","","","",""
"","ISI","","html-keyboard-response","308","379666","0.0-1.0-417.0","0","0","12433","","null","","","null","46","NaN","","","","","","","","","","","","","","",""
"","S2","","html-keyboard-response","309","379920","0.0-1.0-418.0","0","0","12433","","null","","","null","46","","NaN","","","","","","","","","","","","","",""
"","response","","html-keyboard-response","310","380014","0.0-1.0-419.0-0.0","0","0","12433","","92","","","68","46","","","1","46","training","adjacent","EF","5","6","O.jpg","P.jpg","0","1","0","",""
"","feedback","","html-keyboard-response","311","381016","0.0-1.0-420.0-0.0","0","0","12433","","null","","","null","46","","","","","","","","","","","","","","","",""
"","time_out","","html-keyboard-response","312","383030","0.0-1.0-422.0-0.0","0","0","12433","","null","","","null","46","","","","","","","","","","","","","","","",""
"","ITI","","html-keyboard-response","313","384033","0.0-1.0-423.0","0","0","12433","","null","","","null","46","","","","","","","","","","","","","","","NaN",""
"","S1","","html-keyboard-response","314","384285","0.0-1.0-425.0","0","0","12433","","null","","","null","47","","","","","","","","","","","","","","","",""
"","ISI","","html-keyboard-response","315","384438","0.0-1.0-426.0","0","0","12433","","null","","","null","47","NaN","","","","","","","","","","","","","","",""
"","S2","","html-keyboard-response","316","384694","0.0-1.0-427.0","0","0","12433","","null","","","null","47","","NaN","","","","","","","","","","","","","",""
"","response","","html-keyboard-response","317","384736","0.0-1.0-428.0-0.0","0","0","12433","","41","","","75","47","","","1","47","training","adjacent","DC","4","3","N.jpg","M.jpg","1","0","0","",""
"","feedback","","html-keyboard-response","318","385740","0.0-1.0-429.0-0.0","0","0","12433","","null","","","null","47","","","","","","","","","","","","","","","",""
"","time_out","","html-keyboard-response","319","387744","0.0-1.0-431.0-0.0","0","0","12433","","null","","","null","47","","","","","","","","","","","","","","","",""
"","ITI","","html-keyboard-response","320","388748","0.0-1.0-432.0","0","0","12433","","null","","","null","47","","","","","","","","","","","","","","","NaN",""
"","block_over","","html-keyboard-response","321","397365","0.0-1.0-433.0-0.0","0","0","12433","","8615","","","32","47","","","","","","","","","","","","","","","",""
"","S1","","html-keyboard-response","322","397617","0.0-1.0-434.0","0","0","12433","","null","","","null","48","","","","","","","","","","","","","","","",""
"","ISI","","html-keyboard-response","323","397771","0.0-1.0-435.0","0","0","12433","","null","","","null","48","NaN","","","","","","","","","","","","","","",""
"","S2","","html-keyboard-response","324","398025","0.0-1.0-436.0","0","0","12433","","null","","","null","48","","NaN","","","","","","","","","","","","","",""
"","response","","html-keyboard-response","325","398289","0.0-1.0-437.0-0.0","0","0","12433","","262","","","68","48","","","2","48","training","adjacent","FG","6","7","P.jpg","L.jpg","0","1","0","",""
"","feedback","","html-keyboard-response","326","399291","0.0-1.0-438.0-0.0","0","0","12433","","null","","","null","48","","","","","","","","","","","","","","","",""
"","time_out","","html-keyboard-response","327","401293","0.0-1.0-440.0-0.0","0","0","12433","","null","","","null","48","","","","","","","","","","","","","","","",""
"","ITI","","html-keyboard-response","328","402296","0.0-1.0-441.0","0","0","12433","","null","","","null","48","","","","","","","","","","","","","","","NaN",""
"","S1","","html-keyboard-response","329","402549","0.0-1.0-443.0","0","0","12433","","null","","","null","49","","","","","","","","","","","","","","","",""
"","ISI","","html-keyboard-response","330","402703","0.0-1.0-444.0","0","0","12433","","null","","","null","49","NaN","","","","","","","","","","","","","","",""
"","S2","","html-keyboard-response","331","402955","0.0-1.0-445.0","0","0","12433","","null","","","null","49","","NaN","","","","","","","","","","","","","",""
"","response","","html-keyboard-response","332","403252","0.0-1.0-446.0-0.0","0","0","12433","","293","","","68","49","","","2","49","training","adjacent","BA","2","1","R.jpg","Q.jpg","0","0","1","",""
"","feedback","","html-keyboard-response","333","404255","0.0-1.0-447.0-0.0","0","0","12433","","null","","","null","49","","","","","","","","","","","","","","","",""
"","ITI","","html-keyboard-response","334","405259","0.0-1.0-450.0","0","0","12433","","null","","","null","49","","","","","","","","","","","","","","","NaN",""
"","S1","","html-keyboard-response","335","405511","0.0-1.0-452.0","0","0","12433","","null","","","null","50","","","","","","","","","","","","","","","",""
"","ISI","","html-keyboard-response","336","405674","0.0-1.0-453.0","0","0","12433","","null","","","null","50","NaN","","","","","","","","","","","","","","",""
"","S2","","html-keyboard-response","337","405926","0.0-1.0-454.0","0","0","12433","","null","","","null","50","","NaN","","","","","","","","","","","","","",""
"","response","","html-keyboard-response","338","406191","0.0-1.0-455.0-0.0","0","0","12433","","264","","","68","50","","","2","50","training","adjacent","BC","2","3","R.jpg","M.jpg","0","1","0","",""
"","feedback","","html-keyboard-response","339","407193","0.0-1.0-456.0-0.0","0","0","12433","","null","","","null","50","","","","","","","","","","","","","","","",""
"","time_out","","html-keyboard-response","340","409195","0.0-1.0-458.0-0.0","0","0","12433","","null","","","null","50","","","","","","","","","","","","","","","",""
"","ITI","","html-keyboard-response","341","410199","0.0-1.0-459.0","0","0","12433","","null","","","null","50","","","","","","","","","","","","","","","NaN",""
"","S1","","html-keyboard-response","342","410455","0.0-1.0-461.0","0","0","12433","","null","","","null","51","","","","","","","","","","","","","","","",""
"","ISI","","html-keyboard-response","343","410608","0.0-1.0-462.0","0","0","12433","","null","","","null","51","NaN","","","","","","","","","","","","","","",""
"","S2","","html-keyboard-response","344","410862","0.0-1.0-463.0","0","0","12433","","null","","","null","51","","NaN","","","","","","","","","","","","","",""
"","response","","html-keyboard-response","345","411190","0.0-1.0-464.0-0.0","0","0","12433","","326","","","68","51","","","2","51","training","adjacent","BC","2","3","R.jpg","M.jpg","0","1","0","",""
"","feedback","","html-keyboard-response","346","412193","0.0-1.0-465.0-0.0","0","0","12433","","null","","","null","51","","","","","","","","","","","","","","","",""
"","time_out","","html-keyboard-response","347","414196","0.0-1.0-467.0-0.0","0","0","12433","","null","","","null","51","","","","","","","","","","","","","","","",""
"","ITI","","html-keyboard-response","348","415201","0.0-1.0-468.0","0","0","12433","","null","","","null","51","","","","","","","","","","","","","","","NaN",""
"","S1","","html-keyboard-response","349","415454","0.0-1.0-470.0","0","0","12433","","null","","","null","52","","","","","","","","","","","","","","","",""
"","ISI","","html-keyboard-response","350","415606","0.0-1.0-471.0","0","0","12433","","null","","","null","52","NaN","","","","","","","","","","","","","","",""
"","S2","","html-keyboard-response","351","415858","0.0-1.0-472.0","0","0","12433","","null","","","null","52","","NaN","","","","","","","","","","","","","",""
"","response","","html-keyboard-response","352","416228","0.0-1.0-473.0-0.0","0","0","12433","","367","","","68","52","","","2","52","training","adjacent","FE","6","5","P.jpg","O.jpg","0","0","1","",""
"","feedback","","html-keyboard-response","353","417230","0.0-1.0-474.0-0.0","0","0","12433","","null","","","null","52","","","","","","","","","","","","","","","",""
"","ITI","","html-keyboard-response","354","418234","0.0-1.0-477.0","0","0","12433","","null","","","null","52","","","","","","","","","","","","","","","NaN",""
"","S1","","html-keyboard-response","355","418486","0.0-1.0-479.0","0","0","12433","","null","","","null","53","","","","","","","","","","","","","","","",""
"","ISI","","html-keyboard-response","356","418640","0.0-1.0-480.0","0","0","12433","","null","","","null","53","NaN","","","","","","","","","","","","","","",""
"","S2","","html-keyboard-response","357","418893","0.0-1.0-481.0","0","0","12433","","null","","","null","53","","NaN","","","","","","","","","","","","","",""
"","response","","html-keyboard-response","358","419086","0.0-1.0-482.0-0.0","0","0","12433","","191","","","68","53","","","2","53","training","adjacent","BA","2","1","R.jpg","Q.jpg","0","0","1","",""
"","feedback","","html-keyboard-response","359","420088","0.0-1.0-483.0-0.0","0","0","12433","","null","","","null","53","","","","","","","","","","","","","","","",""
"","ITI","","html-keyboard-response","360","421091","0.0-1.0-486.0","0","0","12433","","null","","","null","53","","","","","","","","","","","","","","","NaN",""
"","S1","","html-keyboard-response","361","421344","0.0-1.0-488.0","0","0","12433","","null","","","null","54","","","","","","","","","","","","","","","",""
"","ISI","","html-keyboard-response","362","421496","0.0-1.0-489.0","0","0","12433","","null","","","null","54","NaN","","","","","","","","","","","","","","",""
"","S2","","html-keyboard-response","363","421750","0.0-1.0-490.0","0","0","12433","","null","","","null","54","","NaN","","","","","","","","","","","","","",""
"","response","","html-keyboard-response","364","421948","0.0-1.0-491.0-0.0","0","0","12433","","197","","","68","54","","","2","54","training","adjacent","DC","4","3","N.jpg","M.jpg","0","0","1","",""
"","feedback","","html-keyboard-response","365","422951","0.0-1.0-492.0-0.0","0","0","12433","","null","","","null","54","","","","","","","","","","","","","","","",""
"","ITI","","html-keyboard-response","366","423954","0.0-1.0-495.0","0","0","12433","","null","","","null","54","","","","","","","","","","","","","","","NaN",""
"","S1","","html-keyboard-response","367","424207","0.0-1.0-497.0","0","0","12433","","null","","","null","55","","","","","","","","","","","","","","","",""
"","ISI","","html-keyboard-response","368","424360","0.0-1.0-498.0","0","0","12433","","null","","","null","55","NaN","","","","","","","","","","","","","","",""
"","S2","","html-keyboard-response","369","424613","0.0-1.0-499.0","0","0","12433","","null","","","null","55","","NaN","","","","","","","","","","","","","",""
"","response","","html-keyboard-response","370","424898","0.0-1.0-500.0-0.0","0","0","12433","","282","","","75","55","","","2","55","training","adjacent","AB","1","2","Q.jpg","R.jpg","1","1","1","",""
"","feedback","","html-keyboard-response","371","425900","0.0-1.0-501.0-0.0","0","0","12433","","null","","","null","55","","","","","","","","","","","","","","","",""
"","ITI","","html-keyboard-response","372","426903","0.0-1.0-504.0","0","0","12433","","null","","","null","55","","","","","","","","","","","","","","","NaN",""
"","S1","","html-keyboard-response","373","427155","0.0-1.0-506.0","0","0","12433","","null","","","null","56","","","","","","","","","","","","","","","",""
"","ISI","","html-keyboard-response","374","427308","0.0-1.0-507.0","0","0","12433","","null","","","null","56","NaN","","","","","","","","","","","","","","",""
"","S2","","html-keyboard-response","375","427562","0.0-1.0-508.0","0","0","12433","","null","","","null","56","","NaN","","","","","","","","","","","","","",""
"","response","","html-keyboard-response","376","427863","0.0-1.0-509.0-0.0","0","0","12433","","297","","","68","56","","","2","56","training","adjacent","EF","5","6","O.jpg","P.jpg","0","1","0","",""
"","feedback","","html-keyboard-response","377","428866","0.0-1.0-510.0-0.0","0","0","12433","","null","","","null","56","","","","","","","","","","","","","","","",""
"","time_out","","html-keyboard-response","378","430868","0.0-1.0-512.0-0.0","0","0","12433","","null","","","null","56","","","","","","","","","","","","","","","",""
"","ITI","","html-keyboard-response","379","431871","0.0-1.0-513.0","0","0","12433","","null","","","null","56","","","","","","","","","","","","","","","NaN",""
"","S1","","html-keyboard-response","380","432123","0.0-1.0-515.0","0","0","12433","","null","","","null","57","","","","","","","","","","","","","","","",""
"","ISI","","html-keyboard-response","381","432275","0.0-1.0-516.0","0","0","12433","","null","","","null","57","NaN","","","","","","","","","","","","","","",""
"","S2","","html-keyboard-response","382","432530","0.0-1.0-517.0","0","0","12433","","null","","","null","57","","NaN","","","","","","","","","","","","","",""
"","response","","html-keyboard-response","383","432822","0.0-1.0-518.0-0.0","0","0","12433","","290","","","68","57","","","2","57","training","adjacent","BC","2","3","R.jpg","M.jpg","0","1","0","",""
"","feedback","","html-keyboard-response","384","433825","0.0-1.0-519.0-0.0","0","0","12433","","null","","","null","57","","","","","","","","","","","","","","","",""
"","time_out","","html-keyboard-response","385","435831","0.0-1.0-521.0-0.0","0","0","12433","","null","","","null","57","","","","","","","","","","","","","","","",""
"","ITI","","html-keyboard-response","386","436833","0.0-1.0-522.0","0","0","12433","","null","","","null","57","","","","","","","","","","","","","","","NaN",""
"","S1","","html-keyboard-response","387","437085","0.0-1.0-524.0","0","0","12433","","null","","","null","58","","","","","","","","","","","","","","","",""
"","ISI","","html-keyboard-response","388","437238","0.0-1.0-525.0","0","0","12433","","null","","","null","58","NaN","","","","","","","","","","","","","","",""
"","S2","","html-keyboard-response","389","437491","0.0-1.0-526.0","0","0","12433","","null","","","null","58","","NaN","","","","","","","","","","","","","",""
"","response","","html-keyboard-response","390","437879","0.0-1.0-527.0-0.0","0","0","12433","","387","","","75","58","","","2","58","training","adjacent","ED","5","4","O.jpg","N.jpg","1","0","0","",""
"","feedback","","html-keyboard-response","391","438883","0.0-1.0-528.0-0.0","0","0","12433","","null","","","null","58","","","","","","","","","","","","","","","",""
"","time_out","","html-keyboard-response","392","440885","0.0-1.0-530.0-0.0","0","0","12433","","null","","","null","58","","","","","","","","","","","","","","","",""
"","ITI","","html-keyboard-response","393","441888","0.0-1.0-531.0","0","0","12433","","null","","","null","58","","","","","","","","","","","","","","","NaN",""
"","S1","","html-keyboard-response","394","442142","0.0-1.0-533.0","0","0","12433","","null","","","null","59","","","","","","","","","","","","","","","",""
"","ISI","","html-keyboard-response","395","442294","0.0-1.0-534.0","0","0","12433","","null","","","null","59","NaN","","","","","","","","","","","","","","",""
"","S2","","html-keyboard-response","396","442547","0.0-1.0-535.0","0","0","12433","","null","","","null","59","","NaN","","","","","","","","","","","","","",""
"","response","","html-keyboard-response","397","442739","0.0-1.0-536.0-0.0","0","0","12433","","189","","","68","59","","","2","59","training","adjacent","DE","4","5","N.jpg","O.jpg","0","1","0","",""
"","feedback","","html-keyboard-response","398","443742","0.0-1.0-537.0-0.0","0","0","12433","","null","","","null","59","","","","","","","","","","","","","","","",""
"","time_out","","html-keyboard-response","399","445745","0.0-1.0-539.0-0.0","0","0","12433","","null","","","null","59","","","","","","","","","","","","","","","",""
"","ITI","","html-keyboard-response","400","446747","0.0-1.0-540.0","0","0","12433","","null","","","null","59","","","","","","","","","","","","","","","NaN",""
"","S1","","html-keyboard-response","401","447000","0.0-1.0-542.0","0","0","12433","","null","","","null","60","","","","","","","","","","","","","","","",""
"","ISI","","html-keyboard-response","402","447153","0.0-1.0-543.0","0","0","12433","","null","","","null","60","NaN","","","","","","","","","","","","","","",""
"","S2","","html-keyboard-response","403","447406","0.0-1.0-544.0","0","0","12433","","null","","","null","60","","NaN","","","","","","","","","","","","","",""
"","response","","html-keyboard-response","404","447784","0.0-1.0-545.0-0.0","0","0","12433","","377","","","75","60","","","2","60","training","adjacent","CD","3","4","M.jpg","N.jpg","1","1","1","",""
"","feedback","","html-keyboard-response","405","448787","0.0-1.0-546.0-0.0","0","0","12433","","null","","","null","60","","","","","","","","","","","","","","","",""
"","ITI","","html-keyboard-response","406","449794","0.0-1.0-549.0","0","0","12433","","null","","","null","60","","","","","","","","","","","","","","","NaN",""
"","S1","","html-keyboard-response","407","450046","0.0-1.0-551.0","0","0","12433","","null","","","null","61","","","","","","","","","","","","","","","",""
"","ISI","","html-keyboard-response","408","450200","0.0-1.0-552.0","0","0","12433","","null","","","null","61","NaN","","","","","","","","","","","","","","",""
"","S2","","html-keyboard-response","409","450452","0.0-1.0-553.0","0","0","12433","","null","","","null","61","","NaN","","","","","","","","","","","","","",""
"","response","","html-keyboard-response","410","450797","0.0-1.0-554.0-0.0","0","0","12433","","343","","","75","61","","","2","61","training","adjacent","AB","1","2","Q.jpg","R.jpg","1","1","1","",""
"","feedback","","html-keyboard-response","411","451800","0.0-1.0-555.0-0.0","0","0","12433","","null","","","null","61","","","","","","","","","","","","","","","",""
"","ITI","","html-keyboard-response","412","452802","0.0-1.0-558.0","0","0","12433","","null","","","null","61","","","","","","","","","","","","","","","NaN",""
"","S1","","html-keyboard-response","413","453055","0.0-1.0-560.0","0","0","12433","","null","","","null","62","","","","","","","","","","","","","","","",""
"","ISI","","html-keyboard-response","414","453209","0.0-1.0-561.0","0","0","12433","","null","","","null","62","NaN","","","","","","","","","","","","","","",""
"","S2","","html-keyboard-response","415","453461","0.0-1.0-562.0","0","0","12433","","null","","","null","62","","NaN","","","","","","","","","","","","","",""
"","response","","html-keyboard-response","416","453705","0.0-1.0-563.0-0.0","0","0","12433","","241","","","75","62","","","2","62","training","adjacent","FE","6","5","P.jpg","O.jpg","1","0","0","",""
"","feedback","","html-keyboard-response","417","454708","0.0-1.0-564.0-0.0","0","0","12433","","null","","","null","62","","","","","","","","","","","","","","","",""
"","time_out","","html-keyboard-response","418","456710","0.0-1.0-566.0-0.0","0","0","12433","","null","","","null","62","","","","","","","","","","","","","","","",""
"","ITI","","html-keyboard-response","419","457725","0.0-1.0-567.0","0","0","12433","","null","","","null","62","","","","","","","","","","","","","","","NaN",""
"","S1","","html-keyboard-response","420","457977","0.0-1.0-569.0","0","0","12433","","null","","","null","63","","","","","","","","","","","","","","","",""
"","ISI","","html-keyboard-response","421","458130","0.0-1.0-570.0","0","0","12433","","null","","","null","63","NaN","","","","","","","","","","","","","","",""
"","S2","","html-keyboard-response","422","458383","0.0-1.0-571.0","0","0","12433","","null","","","null","63","","NaN","","","","","","","","","","","","","",""
"","response","","html-keyboard-response","423","458663","0.0-1.0-572.0-0.0","0","0","12433","","278","","","75","63","","","2","63","training","adjacent","ED","5","4","O.jpg","N.jpg","1","0","0","",""
"","feedback","","html-keyboard-response","424","459665","0.0-1.0-573.0-0.0","0","0","12433","","null","","","null","63","","","","","","","","","","","","","","","",""
"","time_out","","html-keyboard-response","425","461668","0.0-1.0-575.0-0.0","0","0","12433","","null","","","null","63","","","","","","","","","","","","","","","",""
"","ITI","","html-keyboard-response","426","462672","0.0-1.0-576.0","0","0","12433","","null","","","null","63","","","","","","","","","","","","","","","NaN",""
"","S1","","html-keyboard-response","427","462924","0.0-1.0-578.0","0","0","12433","","null","","","null","64","","","","","","","","","","","","","","","",""
"","ISI","","html-keyboard-response","428","463077","0.0-1.0-579.0","0","0","12433","","null","","","null","64","NaN","","","","","","","","","","","","","","",""
"","S2","","html-keyboard-response","429","463329","0.0-1.0-580.0","0","0","12433","","null","","","null","64","","NaN","","","","","","","","","","","","","",""
"","response","","html-keyboard-response","430","463776","0.0-1.0-581.0-0.0","0","0","12433","","444","","","68","64","","","2","64","training","adjacent","EF","5","6","O.jpg","P.jpg","0","1","0","",""
"","feedback","","html-keyboard-response","431","464778","0.0-1.0-582.0-0.0","0","0","12433","","null","","","null","64","","","","","","","","","","","","","","","",""
"","time_out","","html-keyboard-response","432","466781","0.0-1.0-584.0-0.0","0","0","12433","","null","","","null","64","","","","","","","","","","","","","","","",""
"","ITI","","html-keyboard-response","433","467784","0.0-1.0-585.0","0","0","12433","","null","","","null","64","","","","","","","","","","","","","","","NaN",""
"","S1","","html-keyboard-response","434","468037","0.0-1.0-587.0","0","0","12433","","null","","","null","65","","","","","","","","","","","","","","","",""
"","ISI","","html-keyboard-response","435","468190","0.0-1.0-588.0","0","0","12433","","null","","","null","65","NaN","","","","","","","","","","","","","","",""
"","S2","","html-keyboard-response","436","468444","0.0-1.0-589.0","0","0","12433","","null","","","null","65","","NaN","","","","","","","","","","","","","",""
"","response","","html-keyboard-response","437","468956","0.0-1.0-590.0-0.0","0","0","12433","","507","","","68","65","","","2","65","training","adjacent","CD","3","4","M.jpg","N.jpg","0","1","0","",""
"","feedback","","html-keyboard-response","438","469959","0.0-1.0-591.0-0.0","0","0","12433","","null","","","null","65","","","","","","","","","","","","","","","",""
"","time_out","","html-keyboard-response","439","471961","0.0-1.0-593.0-0.0","0","0","12433","","null","","","null","65","","","","","","","","","","","","","","","",""
"","ITI","","html-keyboard-response","440","472963","0.0-1.0-594.0","0","0","12433","","null","","","null","65","","","","","","","","","","","","","","","NaN",""
"","S1","","html-keyboard-response","441","473216","0.0-1.0-596.0","0","0","12433","","null","","","null","66","","","","","","","","","","","","","","","",""
"","ISI","","html-keyboard-response","442","473369","0.0-1.0-597.0","0","0","12433","","null","","","null","66","NaN","","","","","","","","","","","","","","",""
"","S2","","html-keyboard-response","443","473622","0.0-1.0-598.0","0","0","12433","","null","","","null","66","","NaN","","","","","","","","","","","","","",""
"","response","","html-keyboard-response","444","473802","0.0-1.0-599.0-0.0","0","0","12433","","178","","","68","66","","","2","66","training","adjacent","FG","6","7","P.jpg","L.jpg","0","1","0","",""
"","feedback","","html-keyboard-response","445","474806","0.0-1.0-600.0-0.0","0","0","12433","","null","","","null","66","","","","","","","","","","","","","","","",""
"","time_out","","html-keyboard-response","446","476809","0.0-1.0-602.0-0.0","0","0","12433","","null","","","null","66","","","","","","","","","","","","","","","",""
"","ITI","","html-keyboard-response","447","477812","0.0-1.0-603.0","0","0","12433","","null","","","null","66","","","","","","","","","","","","","","","NaN",""
"","S1","","html-keyboard-response","448","478064","0.0-1.0-605.0","0","0","12433","","null","","","null","67","","","","","","","","","","","","","","","",""
"","ISI","","html-keyboard-response","449","478218","0.0-1.0-606.0","0","0","12433","","null","","","null","67","NaN","","","","","","","","","","","","","","",""
"","S2","","html-keyboard-response","450","478471","0.0-1.0-607.0","0","0","12433","","null","","","null","67","","NaN","","","","","","","","","","","","","",""
"","response","","html-keyboard-response","451","478988","0.0-1.0-608.0-0.0","0","0","12433","","516","","","68","67","","","2","67","training","adjacent","CD","3","4","M.jpg","N.jpg","0","1","0","",""
"","feedback","","html-keyboard-response","452","479991","0.0-1.0-609.0-0.0","0","0","12433","","null","","","null","67","","","","","","","","","","","","","","","",""
"","time_out","","html-keyboard-response","453","481994","0.0-1.0-611.0-0.0","0","0","12433","","null","","","null","67","","","","","","","","","","","","","","","",""
"","ITI","","html-keyboard-response","454","482996","0.0-1.0-612.0","0","0","12433","","null","","","null","67","","","","","","","","","","","","","","","NaN",""
"","S1","","html-keyboard-response","455","483249","0.0-1.0-614.0","0","0","12433","","null","","","null","68","","","","","","","","","","","","","","","",""
"","ISI","","html-keyboard-response","456","483406","0.0-1.0-615.0","0","0","12433","","null","","","null","68","NaN","","","","","","","","","","","","","","",""
"","S2","","html-keyboard-response","457","483658","0.0-1.0-616.0","0","0","12433","","null","","","null","68","","NaN","","","","","","","","","","","","","",""
"","response","","html-keyboard-response","458","485401","0.0-1.0-617.0-0.0","0","0","12433","","1740","","","68","68","","","2","68","training","adjacent","DE","4","5","N.jpg","O.jpg","0","1","0","",""
"","feedback","","html-keyboard-response","459","486404","0.0-1.0-618.0-0.0","0","0","12433","","null","","","null","68","","","","","","","","","","","","","","","",""
"","time_out","","html-keyboard-response","460","488408","0.0-1.0-620.0-0.0","0","0","12433","","null","","","null","68","","","","","","","","","","","","","","","",""
"","ITI","","html-keyboard-response","461","489410","0.0-1.0-621.0","0","0","12433","","null","","","null","68","","","","","","","","","","","","","","","NaN",""
"","S1","","html-keyboard-response","462","489667","0.0-1.0-623.0","0","0","12433","","null","","","null","69","","","","","","","","","","","","","","","",""
"","ISI","","html-keyboard-response","463","489819","0.0-1.0-624.0","0","0","12433","","null","","","null","69","NaN","","","","","","","","","","","","","","",""
"","S2","","html-keyboard-response","464","490071","0.0-1.0-625.0","0","0","12433","","null","","","null","69","","NaN","","","","","","","","","","","","","",""
"","response","","html-keyboard-response","465","490743","0.0-1.0-626.0-0.0","0","0","12433","","669","","","75","69","","","2","69","training","adjacent","EF","5","6","O.jpg","P.jpg","1","1","1","",""
"","feedback","","html-keyboard-response","466","491745","0.0-1.0-627.0-0.0","0","0","12433","","null","","","null","69","","","","","","","","","","","","","","","",""
"","ITI","","html-keyboard-response","467","492748","0.0-1.0-630.0","0","0","12433","","null","","","null","69","","","","","","","","","","","","","","","NaN",""
"","S1","","html-keyboard-response","468","493001","0.0-1.0-632.0","0","0","12433","","null","","","null","70","","","","","","","","","","","","","","","",""
"","ISI","","html-keyboard-response","469","493157","0.0-1.0-633.0","0","0","12433","","null","","","null","70","NaN","","","","","","","","","","","","","","",""
"","S2","","html-keyboard-response","470","493410","0.0-1.0-634.0","0","0","12433","","null","","","null","70","","NaN","","","","","","","","","","","","","",""
"","response","","html-keyboard-response","471","493798","0.0-1.0-635.0-0.0","0","0","12433","","385","","","75","70","","","2","70","training","adjacent","AB","1","2","Q.jpg","R.jpg","1","1","1","",""
"","feedback","","html-keyboard-response","472","494806","0.0-1.0-636.0-0.0","0","0","12433","","null","","","null","70","","","","","","","","","","","","","","","",""
"","ITI","","html-keyboard-response","473","495809","0.0-1.0-639.0","0","0","12433","","null","","","null","70","","","","","","","","","","","","","","","NaN",""
"","S1","","html-keyboard-response","474","496061","0.0-1.0-641.0","0","0","12433","","null","","","null","71","","","","","","","","","","","","","","","",""
"","ISI","","html-keyboard-response","475","496214","0.0-1.0-642.0","0","0","12433","","null","","","null","71","NaN","","","","","","","","","","","","","","",""
"","S2","","html-keyboard-response","476","496467","0.0-1.0-643.0","0","0","12433","","null","","","null","71","","NaN","","","","","","","","","","","","","",""
"","response","","html-keyboard-response","477","496759","0.0-1.0-644.0-0.0","0","0","12433","","289","","","75","71","","","2","71","training","adjacent","BC","2","3","R.jpg","M.jpg","1","1","1","",""
"","feedback","","html-keyboard-response","478","497763","0.0-1.0-645.0-0.0","0","0","12433","","null","","","null","71","","","","","","","","","","","","","","","",""
"","ITI","","html-keyboard-response","479","498767","0.0-1.0-648.0","0","0","12433","","null","","","null","71","","","","","","","","","","","","","","","NaN",""
"","S1","","html-keyboard-response","480","499020","0.0-1.0-650.0","0","0","12433","","null","","","null","72","","","","","","","","","","","","","","","",""
"","ISI","","html-keyboard-response","481","499172","0.0-1.0-651.0","0","0","12433","","null","","","null","72","NaN","","","","","","","","","","","","","","",""
"","S2","","html-keyboard-response","482","499425","0.0-1.0-652.0","0","0","12433","","null","","","null","72","","NaN","","","","","","","","","","","","","",""
"","response","","html-keyboard-response","483","499780","0.0-1.0-653.0-0.0","0","0","12433","","354","","","75","72","","","2","72","training","adjacent","DE","4","5","N.jpg","O.jpg","1","1","1","",""
"","feedback","","html-keyboard-response","484","500783","0.0-1.0-654.0-0.0","0","0","12433","","null","","","null","72","","","","","","","","","","","","","","","",""
"","ITI","","html-keyboard-response","485","501786","0.0-1.0-657.0","0","0","12433","","null","","","null","72","","","","","","","","","","","","","","","NaN",""
"","S1","","html-keyboard-response","486","502038","0.0-1.0-659.0","0","0","12433","","null","","","null","73","","","","","","","","","","","","","","","",""
"","ISI","","html-keyboard-response","487","502191","0.0-1.0-660.0","0","0","12433","","null","","","null","73","NaN","","","","","","","","","","","","","","",""
"","S2","","html-keyboard-response","488","502444","0.0-1.0-661.0","0","0","12433","","null","","","null","73","","NaN","","","","","","","","","","","","","",""
"","response","","html-keyboard-response","489","502862","0.0-1.0-662.0-0.0","0","0","12433","","415","","","68","73","","","2","73","training","adjacent","CB","3","2","M.jpg","R.jpg","0","0","1","",""
"","feedback","","html-keyboard-response","490","503866","0.0-1.0-663.0-0.0","0","0","12433","","null","","","null","73","","","","","","","","","","","","","","","",""
"","ITI","","html-keyboard-response","491","504869","0.0-1.0-666.0","0","0","12433","","null","","","null","73","","","","","","","","","","","","","","","NaN",""
"","S1","","html-keyboard-response","492","505122","0.0-1.0-668.0","0","0","12433","","null","","","null","74","","","","","","","","","","","","","","","",""
"","ISI","","html-keyboard-response","493","505275","0.0-1.0-669.0","0","0","12433","","null","","","null","74","NaN","","","","","","","","","","","","","","",""
"","S2","","html-keyboard-response","494","505529","0.0-1.0-670.0","0","0","12433","","null","","","null","74","","NaN","","","","","","","","","","","","","",""
"","response","","html-keyboard-response","495","506005","0.0-1.0-671.0-0.0","0","0","12433","","475","","","75","74","","","2","74","training","adjacent","DC","4","3","N.jpg","M.jpg","1","0","0","",""
"","feedback","","html-keyboard-response","496","507009","0.0-1.0-672.0-0.0","0","0","12433","","null","","","null","74","","","","","","","","","","","","","","","",""
"","time_out","","html-keyboard-response","497","509012","0.0-1.0-674.0-0.0","0","0","12433","","null","","","null","74","","","","","","","","","","","","","","","",""
"","ITI","","html-keyboard-response","498","510015","0.0-1.0-675.0","0","0","12433","","null","","","null","74","","","","","","","","","","","","","","","NaN",""
"","S1","","html-keyboard-response","499","510268","0.0-1.0-677.0","0","0","12433","","null","","","null","75","","","","","","","","","","","","","","","",""
"","ISI","","html-keyboard-response","500","510420","0.0-1.0-678.0","0","0","12433","","null","","","null","75","NaN","","","","","","","","","","","","","","",""
"","S2","","html-keyboard-response","501","510674","0.0-1.0-679.0","0","0","12433","","null","","","null","75","","NaN","","","","","","","","","","","","","",""
"","response","","html-keyboard-response","502","510906","0.0-1.0-680.0-0.0","0","0","12433","","230","","","75","75","","","2","75","training","adjacent","FG","6","7","P.jpg","L.jpg","1","1","1","",""
"","feedback","","html-keyboard-response","503","511910","0.0-1.0-681.0-0.0","0","0","12433","","null","","","null","75","","","","","","","","","","","","","","","",""
"","ITI","","html-keyboard-response","504","512913","0.0-1.0-684.0","0","0","12433","","null","","","null","75","","","","","","","","","","","","","","","NaN",""
"","S1","","html-keyboard-response","505","513166","0.0-1.0-686.0","0","0","12433","","null","","","null","76","","","","","","","","","","","","","","","",""
"","ISI","","html-keyboard-response","506","513318","0.0-1.0-687.0","0","0","12433","","null","","","null","76","NaN","","","","","","","","","","","","","","",""
"","S2","","html-keyboard-response","507","513571","0.0-1.0-688.0","0","0","12433","","null","","","null","76","","NaN","","","","","","","","","","","","","",""
"","response","","html-keyboard-response","508","513787","0.0-1.0-689.0-0.0","0","0","12433","","213","","","75","76","","","2","76","training","adjacent","CB","3","2","M.jpg","R.jpg","1","0","0","",""
"","feedback","","html-keyboard-response","509","514793","0.0-1.0-690.0-0.0","0","0","12433","","null","","","null","76","","","","","","","","","","","","","","","",""
"","time_out","","html-keyboard-response","510","516795","0.0-1.0-692.0-0.0","0","0","12433","","null","","","null","76","","","","","","","","","","","","","","","",""
"","ITI","","html-keyboard-response","511","517797","0.0-1.0-693.0","0","0","12433","","null","","","null","76","","","","","","","","","","","","","","","NaN",""
"","S1","","html-keyboard-response","512","518050","0.0-1.0-695.0","0","0","12433","","null","","","null","77","","","","","","","","","","","","","","","",""
"","ISI","","html-keyboard-response","513","518204","0.0-1.0-696.0","0","0","12433","","null","","","null","77","NaN","","","","","","","","","","","","","","",""
"","S2","","html-keyboard-response","514","518457","0.0-1.0-697.0","0","0","12433","","null","","","null","77","","NaN","","","","","","","","","","","","","",""
"","response","","html-keyboard-response","515","518536","0.0-1.0-698.0-0.0","0","0","12433","","77","","","75","77","","","2","77","training","adjacent","CB","3","2","M.jpg","R.jpg","1","0","0","",""
"","feedback","","html-keyboard-response","516","519541","0.0-1.0-699.0-0.0","0","0","12433","","null","","","null","77","","","","","","","","","","","","","","","",""
"","time_out","","html-keyboard-response","517","521557","0.0-1.0-701.0-0.0","0","0","12433","","null","","","null","77","","","","","","","","","","","","","","","",""
"","ITI","","html-keyboard-response","518","522559","0.0-1.0-702.0","0","0","12433","","null","","","null","77","","","","","","","","","","","","","","","NaN",""
"","S1","","html-keyboard-response","519","522812","0.0-1.0-704.0","0","0","12433","","null","","","null","78","","","","","","","","","","","","","","","",""
"","ISI","","html-keyboard-response","520","522964","0.0-1.0-705.0","0","0","12433","","null","","","null","78","NaN","","","","","","","","","","","","","","",""
"","S2","","html-keyboard-response","521","523218","0.0-1.0-706.0","0","0","12433","","null","","","null","78","","NaN","","","","","","","","","","","","","",""
"","response","","html-keyboard-response","522","523514","0.0-1.0-707.0-0.0","0","0","12433","","294","","","68","78","","","2","78","training","adjacent","CB","3","2","M.jpg","R.jpg","0","0","1","",""
"","feedback","","html-keyboard-response","523","524516","0.0-1.0-708.0-0.0","0","0","12433","","null","","","null","78","","","","","","","","","","","","","","","",""
"","ITI","","html-keyboard-response","524","525519","0.0-1.0-711.0","0","0","12433","","null","","","null","78","","","","","","","","","","","","","","","NaN",""
"","S1","","html-keyboard-response","525","525772","0.0-1.0-713.0","0","0","12433","","null","","","null","79","","","","","","","","","","","","","","","",""
"","ISI","","html-keyboard-response","526","525925","0.0-1.0-714.0","0","0","12433","","null","","","null","79","NaN","","","","","","","","","","","","","","",""
"","S2","","html-keyboard-response","527","526177","0.0-1.0-715.0","0","0","12433","","null","","","null","79","","NaN","","","","","","","","","","","","","",""
"","response","","html-keyboard-response","528","526533","0.0-1.0-716.0-0.0","0","0","12433","","354","","","75","79","","","2","79","training","adjacent","ED","5","4","O.jpg","N.jpg","1","0","0","",""
"","feedback","","html-keyboard-response","529","527537","0.0-1.0-717.0-0.0","0","0","12433","","null","","","null","79","","","","","","","","","","","","","","","",""
"","time_out","","html-keyboard-response","530","529540","0.0-1.0-719.0-0.0","0","0","12433","","null","","","null","79","","","","","","","","","","","","","","","",""
"","ITI","","html-keyboard-response","531","530544","0.0-1.0-720.0","0","0","12433","","null","","","null","79","","","","","","","","","","","","","","","NaN",""
"","S1","","html-keyboard-response","532","530796","0.0-1.0-722.0","0","0","12433","","null","","","null","80","","","","","","","","","","","","","","","",""
"","ISI","","html-keyboard-response","533","530949","0.0-1.0-723.0","0","0","12433","","null","","","null","80","NaN","","","","","","","","","","","","","","",""
"","S2","","html-keyboard-response","534","531205","0.0-1.0-724.0","0","0","12433","","null","","","null","80","","NaN","","","","","","","","","","","","","",""
"","response","","html-keyboard-response","535","531886","0.0-1.0-725.0-0.0","0","0","12433","","678","","","75","80","","","2","80","training","adjacent","FE","6","5","P.jpg","O.jpg","1","0","0","",""
"","feedback","","html-keyboard-response","536","532889","0.0-1.0-726.0-0.0","0","0","12433","","null","","","null","80","","","","","","","","","","","","","","","",""
"","time_out","","html-keyboard-response","537","534892","0.0-1.0-728.0-0.0","0","0","12433","","null","","","null","80","","","","","","","","","","","","","","","",""
"","ITI","","html-keyboard-response","538","535894","0.0-1.0-729.0","0","0","12433","","null","","","null","80","","","","","","","","","","","","","","","NaN",""
"","S1","","html-keyboard-response","539","536148","0.0-1.0-731.0","0","0","12433","","null","","","null","81","","","","","","","","","","","","","","","",""
"","ISI","","html-keyboard-response","540","536301","0.0-1.0-732.0","0","0","12433","","null","","","null","81","NaN","","","","","","","","","","","","","","",""
"","S2","","html-keyboard-response","541","536554","0.0-1.0-733.0","0","0","12433","","null","","","null","81","","NaN","","","","","","","","","","","","","",""
"","response","","html-keyboard-response","542","536870","0.0-1.0-734.0-0.0","0","0","12433","","314","","","75","81","","","2","81","training","adjacent","AB","1","2","Q.jpg","R.jpg","1","1","1","",""
"","feedback","","html-keyboard-response","543","537874","0.0-1.0-735.0-0.0","0","0","12433","","null","","","null","81","","","","","","","","","","","","","","","",""
"","ITI","","html-keyboard-response","544","538876","0.0-1.0-738.0","0","0","12433","","null","","","null","81","","","","","","","","","","","","","","","NaN",""
"","S1","","html-keyboard-response","545","539130","0.0-1.0-740.0","0","0","12433","","null","","","null","82","","","","","","","","","","","","","","","",""
"","ISI","","html-keyboard-response","546","539282","0.0-1.0-741.0","0","0","12433","","null","","","null","82","NaN","","","","","","","","","","","","","","",""
"","S2","","html-keyboard-response","547","539536","0.0-1.0-742.0","0","0","12433","","null","","","null","82","","NaN","","","","","","","","","","","","","",""
"","response","","html-keyboard-response","548","539888","0.0-1.0-743.0-0.0","0","0","12433","","351","","","68","82","","","2","82","training","adjacent","CD","3","4","M.jpg","N.jpg","0","1","0","",""
"","feedback","","html-keyboard-response","549","540890","0.0-1.0-744.0-0.0","0","0","12433","","null","","","null","82","","","","","","","","","","","","","","","",""
"","time_out","","html-keyboard-response","550","542893","0.0-1.0-746.0-0.0","0","0","12433","","null","","","null","82","","","","","","","","","","","","","","","",""
"","ITI","","html-keyboard-response","551","543894","0.0-1.0-747.0","0","0","12433","","null","","","null","82","","","","","","","","","","","","","","","NaN",""
"","S1","","html-keyboard-response","552","544148","0.0-1.0-749.0","0","0","12433","","null","","","null","83","","","","","","","","","","","","","","","",""
"","ISI","","html-keyboard-response","553","544303","0.0-1.0-750.0","0","0","12433","","null","","","null","83","NaN","","","","","","","","","","","","","","",""
"","S2","","html-keyboard-response","554","544556","0.0-1.0-751.0","0","0","12433","","null","","","null","83","","NaN","","","","","","","","","","","","","",""
"","response","","html-keyboard-response","555","545074","0.0-1.0-752.0-0.0","0","0","12433","","515","","","75","83","","","2","83","training","adjacent","EF","5","6","O.jpg","P.jpg","1","1","1","",""
"","feedback","","html-keyboard-response","556","546077","0.0-1.0-753.0-0.0","0","0","12433","","null","","","null","83","","","","","","","","","","","","","","","",""
"","ITI","","html-keyboard-response","557","547079","0.0-1.0-756.0","0","0","12433","","null","","","null","83","","","","","","","","","","","","","","","NaN",""
"","S1","","html-keyboard-response","558","547334","0.0-1.0-758.0","0","0","12433","","null","","","null","84","","","","","","","","","","","","","","","",""
"","ISI","","html-keyboard-response","559","547500","0.0-1.0-759.0","0","0","12433","","null","","","null","84","NaN","","","","","","","","","","","","","","",""
"","S2","","html-keyboard-response","560","547753","0.0-1.0-760.0","0","0","12433","","null","","","null","84","","NaN","","","","","","","","","","","","","",""
"","response","","html-keyboard-response","561","548124","0.0-1.0-761.0-0.0","0","0","12433","","370","","","68","84","","","2","84","training","adjacent","BA","2","1","R.jpg","Q.jpg","0","0","1","",""
"","feedback","","html-keyboard-response","562","549127","0.0-1.0-762.0-0.0","0","0","12433","","null","","","null","84","","","","","","","","","","","","","","","",""
"","ITI","","html-keyboard-response","563","550137","0.0-1.0-765.0","0","0","12433","","null","","","null","84","","","","","","","","","","","","","","","NaN",""
"","S1","","html-keyboard-response","564","550390","0.0-1.0-767.0","0","0","12433","","null","","","null","85","","","","","","","","","","","","","","","",""
"","ISI","","html-keyboard-response","565","550543","0.0-1.0-768.0","0","0","12433","","null","","","null","85","NaN","","","","","","","","","","","","","","",""
"","S2","","html-keyboard-response","566","550795","0.0-1.0-769.0","0","0","12433","","null","","","null","85","","NaN","","","","","","","","","","","","","",""
"","response","","html-keyboard-response","567","551361","0.0-1.0-770.0-0.0","0","0","12433","","564","","","75","85","","","2","85","training","adjacent","DC","4","3","N.jpg","M.jpg","1","0","0","",""
"","feedback","","html-keyboard-response","568","552367","0.0-1.0-771.0-0.0","0","0","12433","","null","","","null","85","","","","","","","","","","","","","","","",""
"","time_out","","html-keyboard-response","569","554369","0.0-1.0-773.0-0.0","0","0","12433","","null","","","null","85","","","","","","","","","","","","","","","",""
"","ITI","","html-keyboard-response","570","555371","0.0-1.0-774.0","0","0","12433","","null","","","null","85","","","","","","","","","","","","","","","NaN",""
"","S1","","html-keyboard-response","571","555623","0.0-1.0-776.0","0","0","12433","","null","","","null","86","","","","","","","","","","","","","","","",""
"","ISI","","html-keyboard-response","572","555776","0.0-1.0-777.0","0","0","12433","","null","","","null","86","NaN","","","","","","","","","","","","","","",""
"","S2","","html-keyboard-response","573","556030","0.0-1.0-778.0","0","0","12433","","null","","","null","86","","NaN","","","","","","","","","","","","","",""
"","response","","html-keyboard-response","574","556866","0.0-1.0-779.0-0.0","0","0","12433","","834","","","75","86","","","2","86","training","adjacent","FG","6","7","P.jpg","L.jpg","1","1","1","",""
"","feedback","","html-keyboard-response","575","557869","0.0-1.0-780.0-0.0","0","0","12433","","null","","","null","86","","","","","","","","","","","","","","","",""
"","ITI","","html-keyboard-response","576","558872","0.0-1.0-783.0","0","0","12433","","null","","","null","86","","","","","","","","","","","","","","","NaN",""
"","S1","","html-keyboard-response","577","559125","0.0-1.0-785.0","0","0","12433","","null","","","null","87","","","","","","","","","","","","","","","",""
"","ISI","","html-keyboard-response","578","559278","0.0-1.0-786.0","0","0","12433","","null","","","null","87","NaN","","","","","","","","","","","","","","",""
"","S2","","html-keyboard-response","579","559533","0.0-1.0-787.0","0","0","12433","","null","","","null","87","","NaN","","","","","","","","","","","","","",""
"","response","","html-keyboard-response","580","560013","0.0-1.0-788.0-0.0","0","0","12433","","476","","","68","87","","","2","87","training","adjacent","FE","6","5","P.jpg","O.jpg","0","0","1","",""
"","feedback","","html-keyboard-response","581","561016","0.0-1.0-789.0-0.0","0","0","12433","","null","","","null","87","","","","","","","","","","","","","","","",""
"","ITI","","html-keyboard-response","582","562019","0.0-1.0-792.0","0","0","12433","","null","","","null","87","","","","","","","","","","","","","","","NaN",""
