"success","ttype","start_time","trial_type","trial_index","time_elapsed","internal_node_id","warning","missed_checkup","PID","view_history","rt","responses","repeat_instructions","key_press","index","keypress_isi","keypress_S2","block","trial_num","phase","group_type","pair_type","S1_stim","S2_stim","S1_img","S2_img","S1_chosen","S1_higher","accuracy","keypress_iti","total_bonus_tally"
"true","full_screen","d04132023hr1812","fullscreen","0","7019","0.0-0.0","0","0","38887","","","","","","","","","","","","","","","","","","","","","",""
"","instructions","","instructions","1","61423","0.0-1.0-0.0-0.0","0","0","38887","[{""page_index"":0,""viewing_time"":8480},{""page_index"":1,""viewing_time"":34810},{""page_index"":2,""viewing_time"":9534},{""page_index"":3,""viewing_time"":1576}]","54401","","","","","","","","","","","","","","","","","","","",""
"","comprehension_check","","survey-multi-choice","2","84205","0.0-1.0-0.0-1.0","0","0","38887","","22777","{""Q0"":""True"",""Q1"":""K"",""Q2"":""Once the second image appears and while the screen 'MAKE A CHOICE' is shown"",""Q3"":""Green mark"",""Q4"":""either D or K""}","0","","","","","","","","","","","","","","","","","",""
"","start_exp","","html-keyboard-response","3","86932","0.0-1.0-1.0","0","0","38887","","2724","","","32","","","","","","","","","","","","","","","","",""
"","S1","","html-keyboard-response","4","87187","0.0-1.0-2.0","0","0","38887","","null","","","null","0","","","","","","","","","","","","","","","",""
"","ISI","","html-keyboard-response","5","88192","0.0-1.0-3.0","0","0","38887","","null","","","null","0","NaN","","","","","","","","","","","","","","",""
"","S2","","html-keyboard-response","6","88447","0.0-1.0-4.0","0","0","38887","","null","","","null","0","","NaN","","","","","","","","","","","","","",""
"","response","","html-keyboard-response","7","89412","0.0-1.0-5.0-0.0","0","0","38887","","961","","","75","0","","","1","0","training","adjacent","DC","4","3","P.jpg","R.jpg","1","0","0","",""
"","feedback","","html-keyboard-response","8","90417","0.0-1.0-6.0-0.0","0","0","38887","","null","","","null","0","","","","","","","","","","","","","","","",""
"","time_out","","html-keyboard-response","9","92422","0.0-1.0-8.0-0.0","0","0","38887","","null","","","null","0","","","","","","","","","","","","","","","",""
"","ITI","","html-keyboard-response","10","93426","0.0-1.0-9.0","0","0","38887","","null","","","null","0","","","","","","","","","","","","","","","NaN",""
"","S1","","html-keyboard-response","11","93694","0.0-1.0-11.0","0","0","38887","","null","","","null","1","","","","","","","","","","","","","","","",""
"","ISI","","html-keyboard-response","12","94697","0.0-1.0-12.0","0","0","38887","","null","","","null","1","NaN","","","","","","","","","","","","","","",""
"","S2","","html-keyboard-response","13","94954","0.0-1.0-13.0","0","0","38887","","null","","","null","1","","NaN","","","","","","","","","","","","","",""
"","response","","html-keyboard-response","14","95893","0.0-1.0-14.0-0.0","0","0","38887","","936","","","68","1","","","1","1","training","adjacent","AB","1","2","Q.jpg","N.jpg","0","1","0","",""
"","feedback","","html-keyboard-response","15","96897","0.0-1.0-15.0-0.0","0","0","38887","","null","","","null","1","","","","","","","","","","","","","","","",""
"","time_out","","html-keyboard-response","16","98901","0.0-1.0-17.0-0.0","0","0","38887","","null","","","null","1","","","","","","","","","","","","","","","",""
"","ITI","","html-keyboard-response","17","99914","0.0-1.0-18.0","0","0","38887","","null","","","null","1","","","","","","","","","","","","","","","NaN",""
"","S1","","html-keyboard-response","18","100169","0.0-1.0-20.0","0","0","38887","","null","","","null","2","","","","","","","","","","","","","","","",""
"","ISI","","html-keyboard-response","19","101177","0.0-1.0-21.0","0","0","38887","","null","","","null","2","NaN","","","","","","","","","","","","","","",""
"","S2","","html-keyboard-response","20","101433","0.0-1.0-22.0","0","0","38887","","null","","","null","2","","NaN","","","","","","","","","","","","","",""
"","response","","html-keyboard-response","21","102154","0.0-1.0-23.0-0.0","0","0","38887","","717","","","75","2","","","1","2","training","adjacent","CD","3","4","R.jpg","P.jpg","1","1","1","",""
"","feedback","","html-keyboard-response","22","103159","0.0-1.0-24.0-0.0","0","0","38887","","null","","","null","2","","","","","","","","","","","","","","","",""
"","ITI","","html-keyboard-response","23","104163","0.0-1.0-27.0","0","0","38887","","null","","","null","2","","","","","","","","","","","","","","","NaN",""
"","S1","","html-keyboard-response","24","104418","0.0-1.0-29.0","0","0","38887","","null","","","null","3","","","","","","","","","","","","","","","",""
"","ISI","","html-keyboard-response","25","105423","0.0-1.0-30.0","0","0","38887","","null","","","null","3","NaN","","","","","","","","","","","","","","",""
"","S2","","html-keyboard-response","26","105678","0.0-1.0-31.0","0","0","38887","","null","","","null","3","","NaN","","","","","","","","","","","","","",""
"","response","","html-keyboard-response","27","106987","0.0-1.0-32.0-0.0","0","0","38887","","1305","","","68","3","","","1","3","training","adjacent","CD","3","4","R.jpg","P.jpg","0","1","0","",""
"","feedback","","html-keyboard-response","28","107990","0.0-1.0-33.0-0.0","0","0","38887","","null","","","null","3","","","","","","","","","","","","","","","",""
"","time_out","","html-keyboard-response","29","109994","0.0-1.0-35.0-0.0","0","0","38887","","null","","","null","3","","","","","","","","","","","","","","","",""
"","ITI","","html-keyboard-response","30","110999","0.0-1.0-36.0","0","0","38887","","null","","","null","3","","","","","","","","","","","","","","","NaN",""
"","S1","","html-keyboard-response","31","111254","0.0-1.0-38.0","0","0","38887","","null","","","null","4","","","","","","","","","","","","","","","",""
"","ISI","","html-keyboard-response","32","112258","0.0-1.0-39.0","0","0","38887","","null","","","null","4","NaN","","","","","","","","","","","","","","",""
"","S2","","html-keyboard-response","33","112512","0.0-1.0-40.0","0","0","38887","","null","","","null","4","","NaN","","","","","","","","","","","","","",""
"","response","","html-keyboard-response","34","113592","0.0-1.0-41.0-0.0","0","0","38887","","1077","","","75","4","","","1","4","training","adjacent","GF","7","6","O.jpg","M.jpg","1","0","0","",""
"","feedback","","html-keyboard-response","35","114597","0.0-1.0-42.0-0.0","0","0","38887","","null","","","null","4","","","","","","","","","","","","","","","",""
"","time_out","","html-keyboard-response","36","116602","0.0-1.0-44.0-0.0","0","0","38887","","null","","","null","4","","","","","","","","","","","","","","","",""
"","ITI","","html-keyboard-response","37","117607","0.0-1.0-45.0","0","0","38887","","null","","","null","4","","","","","","","","","","","","","","","NaN",""
"","S1","","html-keyboard-response","38","117862","0.0-1.0-47.0","0","0","38887","","null","","","null","5","","","","","","","","","","","","","","","",""
"","ISI","","html-keyboard-response","39","118866","0.0-1.0-48.0","0","0","38887","","null","","","null","5","NaN","","","","","","","","","","","","","","",""
"","S2","","html-keyboard-response","40","119119","0.0-1.0-49.0","0","0","38887","","null","","","null","5","","NaN","","","","","","","","","","","","","",""
"","response","","html-keyboard-response","41","120539","0.0-1.0-50.0-0.0","0","0","38887","","1417","","","75","5","","","1","5","training","adjacent","DE","4","5","P.jpg","L.jpg","1","1","1","",""
"","feedback","","html-keyboard-response","42","121543","0.0-1.0-51.0-0.0","0","0","38887","","null","","","null","5","","","","","","","","","","","","","","","",""
"","ITI","","html-keyboard-response","43","122547","0.0-1.0-54.0","0","0","38887","","null","","","null","5","","","","","","","","","","","","","","","NaN",""
"","S1","","html-keyboard-response","44","122802","0.0-1.0-56.0","0","0","38887","","null","","","null","6","","","","","","","","","","","","","","","",""
"","ISI","","html-keyboard-response","45","123806","0.0-1.0-57.0","0","0","38887","","null","","","null","6","NaN","","","","","","","","","","","","","","",""
"","S2","","html-keyboard-response","46","124061","0.0-1.0-58.0","0","0","38887","","null","","","null","6","","NaN","","","","","","","","","","","","","",""
"","response","","html-keyboard-response","47","124960","0.0-1.0-59.0-0.0","0","0","38887","","896","","","75","6","","","1","6","training","adjacent","DC","4","3","P.jpg","R.jpg","1","0","0","",""
"","feedback","","html-keyboard-response","48","125965","0.0-1.0-60.0-0.0","0","0","38887","","null","","","null","6","","","","","","","","","","","","","","","",""
"","time_out","","html-keyboard-response","49","127968","0.0-1.0-62.0-0.0","0","0","38887","","null","","","null","6","","","","","","","","","","","","","","","",""
"","ITI","","html-keyboard-response","50","128972","0.0-1.0-63.0","0","0","38887","","null","","","null","6","","","","","","","","","","","","","","","NaN",""
"","S1","","html-keyboard-response","51","129227","0.0-1.0-65.0","0","0","38887","","null","","","null","7","","","","","","","","","","","","","","","",""
"","ISI","","html-keyboard-response","52","130231","0.0-1.0-66.0","0","0","38887","","null","","","null","7","NaN","","","","","","","","","","","","","","",""
"","S2","","html-keyboard-response","53","130485","0.0-1.0-67.0","0","0","38887","","null","","","null","7","","NaN","","","","","","","","","","","","","",""
"","response","","html-keyboard-response","54","131244","0.0-1.0-68.0-0.0","0","0","38887","","756","","","68","7","","","1","7","training","adjacent","CB","3","2","R.jpg","N.jpg","0","0","1","",""
"","feedback","","html-keyboard-response","55","132248","0.0-1.0-69.0-0.0","0","0","38887","","null","","","null","7","","","","","","","","","","","","","","","",""
"","ITI","","html-keyboard-response","56","133264","0.0-1.0-72.0","0","0","38887","","null","","","null","7","","","","","","","","","","","","","","","NaN",""
"","S1","","html-keyboard-response","57","133519","0.0-1.0-74.0","0","0","38887","","null","","","null","8","","","","","","","","","","","","","","","",""
"","ISI","","html-keyboard-response","58","134523","0.0-1.0-75.0","0","0","38887","","null","","","null","8","NaN","","","","","","","","","","","","","","",""
"","S2","","html-keyboard-response","59","134778","0.0-1.0-76.0","0","0","38887","","null","","","null","8","","NaN","","","","","","","","","","","","","",""
"","response","","html-keyboard-response","60","135369","0.0-1.0-77.0-0.0","0","0","38887","","588","","","68","8","","","1","8","training","adjacent","CB","3","2","R.jpg","N.jpg","0","0","1","",""
"","feedback","","html-keyboard-response","61","136373","0.0-1.0-78.0-0.0","0","0","38887","","null","","","null","8","","","","","","","","","","","","","","","",""
"","ITI","","html-keyboard-response","62","137378","0.0-1.0-81.0","0","0","38887","","null","","","null","8","","","","","","","","","","","","","","","NaN",""
"","S1","","html-keyboard-response","63","137632","0.0-1.0-83.0","0","0","38887","","null","","","null","9","","","","","","","","","","","","","","","",""
"","ISI","","html-keyboard-response","64","138636","0.0-1.0-84.0","0","0","38887","","null","","","null","9","NaN","","","","","","","","","","","","","","",""
"","S2","","html-keyboard-response","65","138891","0.0-1.0-85.0","0","0","38887","","null","","","null","9","","NaN","","","","","","","","","","","","","",""
"","response","","html-keyboard-response","66","139469","0.0-1.0-86.0-0.0","0","0","38887","","575","","","68","9","","","1","9","training","adjacent","ED","5","4","L.jpg","P.jpg","0","0","1","",""
"","feedback","","html-keyboard-response","67","140473","0.0-1.0-87.0-0.0","0","0","38887","","null","","","null","9","","","","","","","","","","","","","","","",""
"","ITI","","html-keyboard-response","68","141477","0.0-1.0-90.0","0","0","38887","","null","","","null","9","","","","","","","","","","","","","","","NaN",""
"","S1","","html-keyboard-response","69","141732","0.0-1.0-92.0","0","0","38887","","null","","","null","10","","","","","","","","","","","","","","","",""
"","ISI","","html-keyboard-response","70","142743","0.0-1.0-93.0","0","0","38887","","null","","","null","10","NaN","","","","","","","","","","","","","","",""
"","S2","","html-keyboard-response","71","142997","0.0-1.0-94.0","0","0","38887","","null","","","null","10","","NaN","","","","","","","","","","","","","",""
"","response","","html-keyboard-response","72","143854","0.0-1.0-95.0-0.0","0","0","38887","","855","","","68","10","","","1","10","training","adjacent","BC","2","3","N.jpg","R.jpg","0","1","0","",""
"","feedback","","html-keyboard-response","73","144856","0.0-1.0-96.0-0.0","0","0","38887","","null","","","null","10","","","","","","","","","","","","","","","",""
"","time_out","","html-keyboard-response","74","146859","0.0-1.0-98.0-0.0","0","0","38887","","null","","","null","10","","","","","","","","","","","","","","","",""
"","ITI","","html-keyboard-response","75","147864","0.0-1.0-99.0","0","0","38887","","null","","","null","10","","","","","","","","","","","","","","","NaN",""
"","S1","","html-keyboard-response","76","148118","0.0-1.0-101.0","0","0","38887","","null","","","null","11","","","","","","","","","","","","","","","",""
"","ISI","","html-keyboard-response","77","149122","0.0-1.0-102.0","0","0","38887","","null","","","null","11","NaN","","","","","","","","","","","","","","",""
"","S2","","html-keyboard-response","78","149377","0.0-1.0-103.0","0","0","38887","","null","","","null","11","","NaN","","","","","","","","","","","","","",""
"","response","","html-keyboard-response","79","150221","0.0-1.0-104.0-0.0","0","0","38887","","842","","","68","11","","","1","11","training","adjacent","EF","5","6","L.jpg","M.jpg","0","1","0","",""
"","feedback","","html-keyboard-response","80","151225","0.0-1.0-105.0-0.0","0","0","38887","","null","","","null","11","","","","","","","","","","","","","","","",""
"","time_out","","html-keyboard-response","81","153229","0.0-1.0-107.0-0.0","0","0","38887","","null","","","null","11","","","","","","","","","","","","","","","",""
"","ITI","","html-keyboard-response","82","154234","0.0-1.0-108.0","0","0","38887","","null","","","null","11","","","","","","","","","","","","","","","NaN",""
"","S1","","html-keyboard-response","83","154488","0.0-1.0-110.0","0","0","38887","","null","","","null","12","","","","","","","","","","","","","","","",""
"","ISI","","html-keyboard-response","84","155492","0.0-1.0-111.0","0","0","38887","","null","","","null","12","NaN","","","","","","","","","","","","","","",""
"","S2","","html-keyboard-response","85","155746","0.0-1.0-112.0","0","0","38887","","null","","","null","12","","NaN","","","","","","","","","","","","","",""
"","response","","html-keyboard-response","86","156658","0.0-1.0-113.0-0.0","0","0","38887","","908","","","75","12","","","1","12","training","adjacent","GF","7","6","O.jpg","M.jpg","1","0","0","",""
"","feedback","","html-keyboard-response","87","157663","0.0-1.0-114.0-0.0","0","0","38887","","null","","","null","12","","","","","","","","","","","","","","","",""
"","time_out","","html-keyboard-response","88","159667","0.0-1.0-116.0-0.0","0","0","38887","","null","","","null","12","","","","","","","","","","","","","","","",""
"","ITI","","html-keyboard-response","89","160672","0.0-1.0-117.0","0","0","38887","","null","","","null","12","","","","","","","","","","","","","","","NaN",""
"","S1","","html-keyboard-response","90","160926","0.0-1.0-119.0","0","0","38887","","null","","","null","13","","","","","","","","","","","","","","","",""
"","ISI","","html-keyboard-response","91","161931","0.0-1.0-120.0","0","0","38887","","null","","","null","13","NaN","","","","","","","","","","","","","","",""
"","S2","","html-keyboard-response","92","162185","0.0-1.0-121.0","0","0","38887","","null","","","null","13","","NaN","","","","","","","","","","","","","",""
"","response","","html-keyboard-response","93","162967","0.0-1.0-122.0-0.0","0","0","38887","","780","","","75","13","","","1","13","training","adjacent","BC","2","3","N.jpg","R.jpg","1","1","1","",""
"","feedback","","html-keyboard-response","94","163972","0.0-1.0-123.0-0.0","0","0","38887","","null","","","null","13","","","","","","","","","","","","","","","",""
"","ITI","","html-keyboard-response","95","164989","0.0-1.0-126.0","0","0","38887","","null","","","null","13","","","","","","","","","","","","","","","NaN",""
"","S1","","html-keyboard-response","96","165243","0.0-1.0-128.0","0","0","38887","","null","","","null","14","","","","","","","","","","","","","","","",""
"","ISI","","html-keyboard-response","97","166246","0.0-1.0-129.0","0","0","38887","","null","","","null","14","NaN","","","","","","","","","","","","","","",""
"","S2","","html-keyboard-response","98","166514","0.0-1.0-130.0","0","0","38887","","null","","","null","14","","NaN","","","","","","","","","","","","","",""
"","response","","html-keyboard-response","99","167765","0.0-1.0-131.0-0.0","0","0","38887","","1247","","","75","14","","","1","14","training","adjacent","DC","4","3","P.jpg","R.jpg","1","0","0","",""
"","feedback","","html-keyboard-response","100","168770","0.0-1.0-132.0-0.0","0","0","38887","","null","","","null","14","","","","","","","","","","","","","","","",""
"","time_out","","html-keyboard-response","101","170774","0.0-1.0-134.0-0.0","0","0","38887","","null","","","null","14","","","","","","","","","","","","","","","",""
"","ITI","","html-keyboard-response","102","171779","0.0-1.0-135.0","0","0","38887","","null","","","null","14","","","","","","","","","","","","","","","NaN",""
"","S1","","html-keyboard-response","103","172033","0.0-1.0-137.0","0","0","38887","","null","","","null","15","","","","","","","","","","","","","","","",""
"","ISI","","html-keyboard-response","104","173036","0.0-1.0-138.0","0","0","38887","","null","","","null","15","NaN","","","","","","","","","","","","","","",""
"","S2","","html-keyboard-response","105","173291","0.0-1.0-139.0","0","0","38887","","null","","","null","15","","NaN","","","","","","","","","","","","","",""
"","response","","html-keyboard-response","106","174248","0.0-1.0-140.0-0.0","0","0","38887","","953","","","75","15","","","1","15","training","adjacent","FE","6","5","M.jpg","L.jpg","1","0","0","",""
"","feedback","","html-keyboard-response","107","175253","0.0-1.0-141.0-0.0","0","0","38887","","null","","","null","15","","","","","","","","","","","","","","","",""
"","time_out","","html-keyboard-response","108","177256","0.0-1.0-143.0-0.0","0","0","38887","","null","","","null","15","","","","","","","","","","","","","","","",""
"","ITI","","html-keyboard-response","109","178262","0.0-1.0-144.0","0","0","38887","","null","","","null","15","","","","","","","","","","","","","","","NaN",""
"","S1","","html-keyboard-response","110","178516","0.0-1.0-146.0","0","0","38887","","null","","","null","16","","","","","","","","","","","","","","","",""
"","ISI","","html-keyboard-response","111","179520","0.0-1.0-147.0","0","0","38887","","null","","","null","16","NaN","","","","","","","","","","","","","","",""
"","S2","","html-keyboard-response","112","179775","0.0-1.0-148.0","0","0","38887","","null","","","null","16","","NaN","","","","","","","","","","","","","",""
"","response","","html-keyboard-response","113","180422","0.0-1.0-149.0-0.0","0","0","38887","","644","","","75","16","","","1","16","training","adjacent","ED","5","4","L.jpg","P.jpg","1","0","0","",""
"","feedback","","html-keyboard-response","114","181427","0.0-1.0-150.0-0.0","0","0","38887","","null","","","null","16","","","","","","","","","","","","","","","",""
"","time_out","","html-keyboard-response","115","183432","0.0-1.0-152.0-0.0","0","0","38887","","null","","","null","16","","","","","","","","","","","","","","","",""
"","ITI","","html-keyboard-response","116","184436","0.0-1.0-153.0","0","0","38887","","null","","","null","16","","","","","","","","","","","","","","","NaN",""
"","S1","","html-keyboard-response","117","184692","0.0-1.0-155.0","0","0","38887","","null","","","null","17","","","","","","","","","","","","","","","",""
"","ISI","","html-keyboard-response","118","185695","0.0-1.0-156.0","0","0","38887","","null","","","null","17","NaN","","","","","","","","","","","","","","",""
"","S2","","html-keyboard-response","119","185949","0.0-1.0-157.0","0","0","38887","","null","","","null","17","","NaN","","","","","","","","","","","","","",""
"","response","","html-keyboard-response","120","186906","0.0-1.0-158.0-0.0","0","0","38887","","953","","","68","17","","","1","17","training","adjacent","FG","6","7","M.jpg","O.jpg","0","1","0","",""
"","feedback","","html-keyboard-response","121","187912","0.0-1.0-159.0-0.0","0","0","38887","","null","","","null","17","","","","","","","","","","","","","","","",""
"","time_out","","html-keyboard-response","122","189916","0.0-1.0-161.0-0.0","0","0","38887","","null","","","null","17","","","","","","","","","","","","","","","",""
"","ITI","","html-keyboard-response","123","190920","0.0-1.0-162.0","0","0","38887","","null","","","null","17","","","","","","","","","","","","","","","NaN",""
"","S1","","html-keyboard-response","124","191174","0.0-1.0-164.0","0","0","38887","","null","","","null","18","","","","","","","","","","","","","","","",""
"","ISI","","html-keyboard-response","125","192178","0.0-1.0-165.0","0","0","38887","","null","","","null","18","NaN","","","","","","","","","","","","","","",""
"","S2","","html-keyboard-response","126","192433","0.0-1.0-166.0","0","0","38887","","null","","","null","18","","NaN","","","","","","","","","","","","","",""
"","response","","html-keyboard-response","127","193313","0.0-1.0-167.0-0.0","0","0","38887","","876","","","75","18","","","1","18","training","adjacent","DE","4","5","P.jpg","L.jpg","1","1","1","",""
"","feedback","","html-keyboard-response","128","194316","0.0-1.0-168.0-0.0","0","0","38887","","null","","","null","18","","","","","","","","","","","","","","","",""
"","ITI","","html-keyboard-response","129","195321","0.0-1.0-171.0","0","0","38887","","null","","","null","18","","","","","","","","","","","","","","","NaN",""
"","S1","","html-keyboard-response","130","195576","0.0-1.0-173.0","0","0","38887","","null","","","null","19","","","","","","","","","","","","","","","",""
"","ISI","","html-keyboard-response","131","196580","0.0-1.0-174.0","0","0","38887","","null","","","null","19","NaN","","","","","","","","","","","","","","",""
"","S2","","html-keyboard-response","132","196833","0.0-1.0-175.0","0","0","38887","","null","","","null","19","","NaN","","","","","","","","","","","","","",""
"","response","","html-keyboard-response","133","198550","0.0-1.0-176.0-0.0","0","0","38887","","1713","","","68","19","","","1","19","training","adjacent","GF","7","6","O.jpg","M.jpg","0","0","1","",""
"","feedback","","html-keyboard-response","134","199565","0.0-1.0-177.0-0.0","0","0","38887","","null","","","null","19","","","","","","","","","","","","","","","",""
"","ITI","","html-keyboard-response","135","200570","0.0-1.0-180.0","0","0","38887","","null","","","null","19","","","","","","","","","","","","","","","NaN",""
"","S1","","html-keyboard-response","136","200824","0.0-1.0-182.0","0","0","38887","","null","","","null","20","","","","","","","","","","","","","","","",""
"","ISI","","html-keyboard-response","137","201829","0.0-1.0-183.0","0","0","38887","","null","","","null","20","NaN","","","","","","","","","","","","","","",""
"","S2","","html-keyboard-response","138","202083","0.0-1.0-184.0","0","0","38887","","null","","","null","20","","NaN","","","","","","","","","","","","","",""
"","response","","html-keyboard-response","139","203257","0.0-1.0-185.0-0.0","0","0","38887","","1170","","","75","20","","","1","20","training","adjacent","DE","4","5","P.jpg","L.jpg","1","1","1","",""
"","feedback","","html-keyboard-response","140","204262","0.0-1.0-186.0-0.0","0","0","38887","","null","","","null","20","","","","","","","","","","","","","","","",""
"","ITI","","html-keyboard-response","141","205264","0.0-1.0-189.0","0","0","38887","","null","","","null","20","","","","","","","","","","","","","","","NaN",""
"","S1","","html-keyboard-response","142","205516","0.0-1.0-191.0","0","0","38887","","null","","","null","21","","","","","","","","","","","","","","","",""
"","ISI","","html-keyboard-response","143","206520","0.0-1.0-192.0","0","0","38887","","null","","","null","21","NaN","","","","","","","","","","","","","","",""
"","S2","","html-keyboard-response","144","206775","0.0-1.0-193.0","0","0","38887","","null","","","null","21","","NaN","","","","","","","","","","","","","",""
"","response","","html-keyboard-response","145","207584","0.0-1.0-194.0-0.0","0","0","38887","","807","","","68","21","","","1","21","training","adjacent","EF","5","6","L.jpg","M.jpg","0","1","0","",""
"","feedback","","html-keyboard-response","146","208589","0.0-1.0-195.0-0.0","0","0","38887","","null","","","null","21","","","","","","","","","","","","","","","",""
"","time_out","","html-keyboard-response","147","210592","0.0-1.0-197.0-0.0","0","0","38887","","null","","","null","21","","","","","","","","","","","","","","","",""
"","ITI","","html-keyboard-response","148","211596","0.0-1.0-198.0","0","0","38887","","null","","","null","21","","","","","","","","","","","","","","","NaN",""
"","S1","","html-keyboard-response","149","211856","0.0-1.0-200.0","0","0","38887","","null","","","null","22","","","","","","","","","","","","","","","",""
"","ISI","","html-keyboard-response","150","212858","0.0-1.0-201.0","0","0","38887","","null","","","null","22","NaN","","","","","","","","","","","","","","",""
"","S2","","html-keyboard-response","151","213112","0.0-1.0-202.0","0","0","38887","","null","","","null","22","","NaN","","","","","","","","","","","","","",""
"","response","","html-keyboard-response","152","214174","0.0-1.0-203.0-0.0","0","0","38887","","1058","","","68","22","","","1","22","training","adjacent","DC","4","3","P.jpg","R.jpg","0","0","1","",""
"","feedback","","html-keyboard-response","153","215178","0.0-1.0-204.0-0.0","0","0","38887","","null","","","null","22","","","","","","","","","","","","","","","",""
"","ITI","","html-keyboard-response","154","216182","0.0-1.0-207.0","0","0","38887","","null","","","null","22","","","","","","","","","","","","","","","NaN",""
"","S1","","html-keyboard-response","155","216436","0.0-1.0-209.0","0","0","38887","","null","","","null","23","","","","","","","","","","","","","","","",""
"","ISI","","html-keyboard-response","156","217441","0.0-1.0-210.0","0","0","38887","","null","","","null","23","NaN","","","","","","","","","","","","","","",""
"","S2","","html-keyboard-response","157","217696","0.0-1.0-211.0","0","0","38887","","null","","","null","23","","NaN","","","","","","","","","","","","","",""
"","response","","html-keyboard-response","158","219207","0.0-1.0-212.0-0.0","0","0","38887","","1508","","","68","23","","","1","23","training","adjacent","CD","3","4","R.jpg","P.jpg","0","1","0","",""
"","feedback","","html-keyboard-response","159","220212","0.0-1.0-213.0-0.0","0","0","38887","","null","","","null","23","","","","","","","","","","","","","","","",""
"","time_out","","html-keyboard-response","160","222216","0.0-1.0-215.0-0.0","0","0","38887","","null","","","null","23","","","","","","","","","","","","","","","",""
"","ITI","","html-keyboard-response","161","223220","0.0-1.0-216.0","0","0","38887","","null","","","null","23","","","","","","","","","","","","","","","NaN",""
"","S1","","html-keyboard-response","162","223473","0.0-1.0-218.0","0","0","38887","","null","","","null","24","","","","","","","","","","","","","","","",""
"","ISI","","html-keyboard-response","163","224477","0.0-1.0-219.0","0","0","38887","","null","","","null","24","NaN","","","","","","","","","","","","","","",""
"","S2","","html-keyboard-response","164","224732","0.0-1.0-220.0","0","0","38887","","null","","","null","24","","NaN","","","","","","","","","","","","","",""
"","response","","html-keyboard-response","165","225725","0.0-1.0-221.0-0.0","0","0","38887","","989","","","68","24","","","1","24","training","adjacent","FE","6","5","M.jpg","L.jpg","0","0","1","",""
"","feedback","","html-keyboard-response","166","226734","0.0-1.0-222.0-0.0","0","0","38887","","null","","","null","24","","","","","","","","","","","","","","","",""
"","ITI","","html-keyboard-response","167","227738","0.0-1.0-225.0","0","0","38887","","null","","","null","24","","","","","","","","","","","","","","","NaN",""
"","S1","","html-keyboard-response","168","227993","0.0-1.0-227.0","0","0","38887","","null","","","null","25","","","","","","","","","","","","","","","",""
"","ISI","","html-keyboard-response","169","228997","0.0-1.0-228.0","0","0","38887","","null","","","null","25","NaN","","","","","","","","","","","","","","",""
"","S2","","html-keyboard-response","170","229262","0.0-1.0-229.0","0","0","38887","","null","","","null","25","","NaN","","","","","","","","","","","","","",""
"","response","","html-keyboard-response","171","231016","0.0-1.0-230.0-0.0","0","0","38887","","null","","","null","25","","","1","25","training","adjacent","AB","1","2","Q.jpg","N.jpg","NaN","1","0","",""
"","too_slow_prompt","","html-keyboard-response","172","232021","0.0-1.0-232.0-0.0","1","0","38887","","null","","","null","","","","","","","","","","","","","","","","",""
"","time_out","","html-keyboard-response","173","234025","0.0-1.0-233.0-0.0","0","0","38887","","null","","","null","25","","","","","","","","","","","","","","","",""
"","ITI","","html-keyboard-response","174","235029","0.0-1.0-234.0","0","0","38887","","null","","","null","25","","","","","","","","","","","","","","","NaN",""
"","S1","","html-keyboard-response","175","235283","0.0-1.0-236.0","0","0","38887","","null","","","null","26","","","","","","","","","","","","","","","",""
"","ISI","","html-keyboard-response","176","236287","0.0-1.0-237.0","0","0","38887","","null","","","null","26","NaN","","","","","","","","","","","","","","",""
"","S2","","html-keyboard-response","177","236542","0.0-1.0-238.0","0","0","38887","","null","","","null","26","","NaN","","","","","","","","","","","","","",""
"","response","","html-keyboard-response","178","237222","0.0-1.0-239.0-0.0","0","0","38887","","677","","","75","26","","","1","26","training","adjacent","BA","2","1","N.jpg","Q.jpg","1","0","0","",""
"","feedback","","html-keyboard-response","179","238225","0.0-1.0-240.0-0.0","0","0","38887","","null","","","null","26","","","","","","","","","","","","","","","",""
"","time_out","","html-keyboard-response","180","240229","0.0-1.0-242.0-0.0","0","0","38887","","null","","","null","26","","","","","","","","","","","","","","","",""
"","ITI","","html-keyboard-response","181","241232","0.0-1.0-243.0","0","0","38887","","null","","","null","26","","","","","","","","","","","","","","","NaN",""
"","S1","","html-keyboard-response","182","241485","0.0-1.0-245.0","0","0","38887","","null","","","null","27","","","","","","","","","","","","","","","",""
"","ISI","","html-keyboard-response","183","242487","0.0-1.0-246.0","0","0","38887","","null","","","null","27","NaN","","","","","","","","","","","","","","",""
"","S2","","html-keyboard-response","184","242741","0.0-1.0-247.0","0","0","38887","","null","","","null","27","","NaN","","","","","","","","","","","","","",""
"","response","","html-keyboard-response","185","243292","0.0-1.0-248.0-0.0","0","0","38887","","547","","","68","27","","","1","27","training","adjacent","FG","6","7","M.jpg","O.jpg","0","1","0","",""
"","feedback","","html-keyboard-response","186","244296","0.0-1.0-249.0-0.0","0","0","38887","","null","","","null","27","","","","","","","","","","","","","","","",""
"","time_out","","html-keyboard-response","187","246299","0.0-1.0-251.0-0.0","0","0","38887","","null","","","null","27","","","","","","","","","","","","","","","",""
"","ITI","","html-keyboard-response","188","247303","0.0-1.0-252.0","0","0","38887","","null","","","null","27","","","","","","","","","","","","","","","NaN",""
"","S1","","html-keyboard-response","189","247558","0.0-1.0-254.0","0","0","38887","","null","","","null","28","","","","","","","","","","","","","","","",""
"","ISI","","html-keyboard-response","190","248563","0.0-1.0-255.0","0","0","38887","","null","","","null","28","NaN","","","","","","","","","","","","","","",""
"","S2","","html-keyboard-response","191","248818","0.0-1.0-256.0","0","0","38887","","null","","","null","28","","NaN","","","","","","","","","","","","","",""
"","response","","html-keyboard-response","192","249425","0.0-1.0-257.0-0.0","0","0","38887","","603","","","68","28","","","1","28","training","adjacent","CB","3","2","R.jpg","N.jpg","0","0","1","",""
"","feedback","","html-keyboard-response","193","250430","0.0-1.0-258.0-0.0","0","0","38887","","null","","","null","28","","","","","","","","","","","","","","","",""
"","ITI","","html-keyboard-response","194","251434","0.0-1.0-261.0","0","0","38887","","null","","","null","28","","","","","","","","","","","","","","","NaN",""
"","S1","","html-keyboard-response","195","251688","0.0-1.0-263.0","0","0","38887","","null","","","null","29","","","","","","","","","","","","","","","",""
"","ISI","","html-keyboard-response","196","252692","0.0-1.0-264.0","0","0","38887","","null","","","null","29","NaN","","","","","","","","","","","","","","",""
"","S2","","html-keyboard-response","197","252946","0.0-1.0-265.0","0","0","38887","","null","","","null","29","","NaN","","","","","","","","","","","","","",""
"","response","","html-keyboard-response","198","253683","0.0-1.0-266.0-0.0","0","0","38887","","733","","","75","29","","","1","29","training","adjacent","EF","5","6","L.jpg","M.jpg","1","1","1","",""
"","feedback","","html-keyboard-response","199","254687","0.0-1.0-267.0-0.0","0","0","38887","","null","","","null","29","","","","","","","","","","","","","","","",""
"","ITI","","html-keyboard-response","200","255689","0.0-1.0-270.0","0","0","38887","","null","","","null","29","","","","","","","","","","","","","","","NaN",""
"","S1","","html-keyboard-response","201","255943","0.0-1.0-272.0","0","0","38887","","null","","","null","30","","","","","","","","","","","","","","","",""
"","ISI","","html-keyboard-response","202","256947","0.0-1.0-273.0","0","0","38887","","null","","","null","30","NaN","","","","","","","","","","","","","","",""
"","S2","","html-keyboard-response","203","257202","0.0-1.0-274.0","0","0","38887","","null","","","null","30","","NaN","","","","","","","","","","","","","",""
"","response","","html-keyboard-response","204","258028","0.0-1.0-275.0-0.0","0","0","38887","","822","","","75","30","","","1","30","training","adjacent","CD","3","4","R.jpg","P.jpg","1","1","1","",""
"","feedback","","html-keyboard-response","205","259034","0.0-1.0-276.0-0.0","0","0","38887","","null","","","null","30","","","","","","","","","","","","","","","",""
"","ITI","","html-keyboard-response","206","260038","0.0-1.0-279.0","0","0","38887","","null","","","null","30","","","","","","","","","","","","","","","NaN",""
"","S1","","html-keyboard-response","207","260293","0.0-1.0-281.0","0","0","38887","","null","","","null","31","","","","","","","","","","","","","","","",""
"","ISI","","html-keyboard-response","208","261298","0.0-1.0-282.0","0","0","38887","","null","","","null","31","NaN","","","","","","","","","","","","","","",""
"","S2","","html-keyboard-response","209","261553","0.0-1.0-283.0","0","0","38887","","null","","","null","31","","NaN","","","","","","","","","","","","","",""
"","response","","html-keyboard-response","210","262376","0.0-1.0-284.0-0.0","0","0","38887","","818","","","68","31","","","1","31","training","adjacent","BC","2","3","N.jpg","R.jpg","0","1","0","",""
"","feedback","","html-keyboard-response","211","263382","0.0-1.0-285.0-0.0","0","0","38887","","null","","","null","31","","","","","","","","","","","","","","","",""
"","time_out","","html-keyboard-response","212","265384","0.0-1.0-287.0-0.0","0","0","38887","","null","","","null","31","","","","","","","","","","","","","","","",""
"","ITI","","html-keyboard-response","213","266388","0.0-1.0-288.0","0","0","38887","","null","","","null","31","","","","","","","","","","","","","","","NaN",""
"","S1","","html-keyboard-response","214","266642","0.0-1.0-290.0","0","0","38887","","null","","","null","32","","","","","","","","","","","","","","","",""
"","ISI","","html-keyboard-response","215","267647","0.0-1.0-291.0","0","0","38887","","null","","","null","32","NaN","","","","","","","","","","","","","","",""
"","S2","","html-keyboard-response","216","267903","0.0-1.0-292.0","0","0","38887","","null","","","null","32","","NaN","","","","","","","","","","","","","",""
"","response","","html-keyboard-response","217","268466","0.0-1.0-293.0-0.0","0","0","38887","","559","","","68","32","","","1","32","training","adjacent","FE","6","5","M.jpg","L.jpg","0","0","1","",""
"","feedback","","html-keyboard-response","218","269470","0.0-1.0-294.0-0.0","0","0","38887","","null","","","null","32","","","","","","","","","","","","","","","",""
"","ITI","","html-keyboard-response","219","270475","0.0-1.0-297.0","0","0","38887","","null","","","null","32","","","","","","","","","","","","","","","NaN",""
"","S1","","html-keyboard-response","220","270730","0.0-1.0-299.0","0","0","38887","","null","","","null","33","","","","","","","","","","","","","","","",""
"","ISI","","html-keyboard-response","221","271733","0.0-1.0-300.0","0","0","38887","","null","","","null","33","NaN","","","","","","","","","","","","","","",""
"","S2","","html-keyboard-response","222","271988","0.0-1.0-301.0","0","0","38887","","null","","","null","33","","NaN","","","","","","","","","","","","","",""
"","response","","html-keyboard-response","223","272367","0.0-1.0-302.0-0.0","0","0","38887","","375","","","68","33","","","1","33","training","adjacent","FE","6","5","M.jpg","L.jpg","0","0","1","",""
"","feedback","","html-keyboard-response","224","273373","0.0-1.0-303.0-0.0","0","0","38887","","null","","","null","33","","","","","","","","","","","","","","","",""
"","ITI","","html-keyboard-response","225","274377","0.0-1.0-306.0","0","0","38887","","null","","","null","33","","","","","","","","","","","","","","","NaN",""
"","S1","","html-keyboard-response","226","274632","0.0-1.0-308.0","0","0","38887","","null","","","null","34","","","","","","","","","","","","","","","",""
"","ISI","","html-keyboard-response","227","275636","0.0-1.0-309.0","0","0","38887","","null","","","null","34","NaN","","","","","","","","","","","","","","",""
"","S2","","html-keyboard-response","228","275890","0.0-1.0-310.0","0","0","38887","","null","","","null","34","","NaN","","","","","","","","","","","","","",""
"","response","","html-keyboard-response","229","276596","0.0-1.0-311.0-0.0","0","0","38887","","702","","","75","34","","","1","34","training","adjacent","BA","2","1","N.jpg","Q.jpg","1","0","0","",""
"","feedback","","html-keyboard-response","230","277602","0.0-1.0-312.0-0.0","0","0","38887","","null","","","null","34","","","","","","","","","","","","","","","",""
"","time_out","","html-keyboard-response","231","279606","0.0-1.0-314.0-0.0","0","0","38887","","null","","","null","34","","","","","","","","","","","","","","","",""
"","ITI","","html-keyboard-response","232","280611","0.0-1.0-315.0","0","0","38887","","null","","","null","34","","","","","","","","","","","","","","","NaN",""
"","S1","","html-keyboard-response","233","280865","0.0-1.0-317.0","0","0","38887","","null","","","null","35","","","","","","","","","","","","","","","",""
"","ISI","","html-keyboard-response","234","281869","0.0-1.0-318.0","0","0","38887","","null","","","null","35","NaN","","","","","","","","","","","","","","",""
"","S2","","html-keyboard-response","235","282124","0.0-1.0-319.0","0","0","38887","","null","","","null","35","","NaN","","","","","","","","","","","","","",""
"","response","","html-keyboard-response","236","282889","0.0-1.0-320.0-0.0","0","0","38887","","761","","","68","35","","","1","35","training","adjacent","EF","5","6","L.jpg","M.jpg","0","1","0","",""
"","feedback","","html-keyboard-response","237","283893","0.0-1.0-321.0-0.0","0","0","38887","","null","","","null","35","","","","","","","","","","","","","","","",""
"","time_out","","html-keyboard-response","238","285898","0.0-1.0-323.0-0.0","0","0","38887","","null","","","null","35","","","","","","","","","","","","","","","",""
"","ITI","","html-keyboard-response","239","286902","0.0-1.0-324.0","0","0","38887","","null","","","null","35","","","","","","","","","","","","","","","NaN",""
"","S1","","html-keyboard-response","240","287156","0.0-1.0-326.0","0","0","38887","","null","","","null","36","","","","","","","","","","","","","","","",""
"","ISI","","html-keyboard-response","241","288160","0.0-1.0-327.0","0","0","38887","","null","","","null","36","NaN","","","","","","","","","","","","","","",""
"","S2","","html-keyboard-response","242","288414","0.0-1.0-328.0","0","0","38887","","null","","","null","36","","NaN","","","","","","","","","","","","","",""
"","response","","html-keyboard-response","243","288879","0.0-1.0-329.0-0.0","0","0","38887","","461","","","75","36","","","1","36","training","adjacent","AB","1","2","Q.jpg","N.jpg","1","1","1","",""
"","feedback","","html-keyboard-response","244","289884","0.0-1.0-330.0-0.0","0","0","38887","","null","","","null","36","","","","","","","","","","","","","","","",""
"","ITI","","html-keyboard-response","245","290888","0.0-1.0-333.0","0","0","38887","","null","","","null","36","","","","","","","","","","","","","","","NaN",""
"","S1","","html-keyboard-response","246","291143","0.0-1.0-335.0","0","0","38887","","null","","","null","37","","","","","","","","","","","","","","","",""
"","ISI","","html-keyboard-response","247","292148","0.0-1.0-336.0","0","0","38887","","null","","","null","37","NaN","","","","","","","","","","","","","","",""
"","S2","","html-keyboard-response","248","292403","0.0-1.0-337.0","0","0","38887","","null","","","null","37","","NaN","","","","","","","","","","","","","",""
"","response","","html-keyboard-response","249","292954","0.0-1.0-338.0-0.0","0","0","38887","","547","","","75","37","","","1","37","training","adjacent","GF","7","6","O.jpg","M.jpg","1","0","0","",""
"","feedback","","html-keyboard-response","250","293959","0.0-1.0-339.0-0.0","0","0","38887","","null","","","null","37","","","","","","","","","","","","","","","",""
"","time_out","","html-keyboard-response","251","295964","0.0-1.0-341.0-0.0","0","0","38887","","null","","","null","37","","","","","","","","","","","","","","","",""
"","ITI","","html-keyboard-response","252","296974","0.0-1.0-342.0","0","0","38887","","null","","","null","37","","","","","","","","","","","","","","","NaN",""
"","S1","","html-keyboard-response","253","297228","0.0-1.0-344.0","0","0","38887","","null","","","null","38","","","","","","","","","","","","","","","",""
"","ISI","","html-keyboard-response","254","298233","0.0-1.0-345.0","0","0","38887","","null","","","null","38","NaN","","","","","","","","","","","","","","",""
"","S2","","html-keyboard-response","255","298489","0.0-1.0-346.0","0","0","38887","","null","","","null","38","","NaN","","","","","","","","","","","","","",""
"","response","","html-keyboard-response","256","299010","0.0-1.0-347.0-0.0","0","0","38887","","517","","","68","38","","","1","38","training","adjacent","ED","5","4","L.jpg","P.jpg","0","0","1","",""
"","feedback","","html-keyboard-response","257","300015","0.0-1.0-348.0-0.0","0","0","38887","","null","","","null","38","","","","","","","","","","","","","","","",""
"","ITI","","html-keyboard-response","258","301020","0.0-1.0-351.0","0","0","38887","","null","","","null","38","","","","","","","","","","","","","","","NaN",""
"","S1","","html-keyboard-response","259","301275","0.0-1.0-353.0","0","0","38887","","null","","","null","39","","","","","","","","","","","","","","","",""
"","ISI","","html-keyboard-response","260","302278","0.0-1.0-354.0","0","0","38887","","null","","","null","39","NaN","","","","","","","","","","","","","","",""
"","S2","","html-keyboard-response","261","302533","0.0-1.0-355.0","0","0","38887","","null","","","null","39","","NaN","","","","","","","","","","","","","",""
"","response","","html-keyboard-response","262","302992","0.0-1.0-356.0-0.0","0","0","38887","","455","","","75","39","","","1","39","training","adjacent","AB","1","2","Q.jpg","N.jpg","1","1","1","",""
"","feedback","","html-keyboard-response","263","303995","0.0-1.0-357.0-0.0","0","0","38887","","null","","","null","39","","","","","","","","","","","","","","","",""
"","ITI","","html-keyboard-response","264","305000","0.0-1.0-360.0","0","0","38887","","null","","","null","39","","","","","","","","","","","","","","","NaN",""
"","S1","","html-keyboard-response","265","305254","0.0-1.0-362.0","0","0","38887","","null","","","null","40","","","","","","","","","","","","","","","",""
"","ISI","","html-keyboard-response","266","306259","0.0-1.0-363.0","0","0","38887","","null","","","null","40","NaN","","","","","","","","","","","","","","",""
"","S2","","html-keyboard-response","267","306513","0.0-1.0-364.0","0","0","38887","","null","","","null","40","","NaN","","","","","","","","","","","","","",""
"","response","","html-keyboard-response","268","307662","0.0-1.0-365.0-0.0","0","0","38887","","1146","","","68","40","","","1","40","training","adjacent","BA","2","1","N.jpg","Q.jpg","0","0","1","",""
"","feedback","","html-keyboard-response","269","308667","0.0-1.0-366.0-0.0","0","0","38887","","null","","","null","40","","","","","","","","","","","","","","","",""
"","ITI","","html-keyboard-response","270","309672","0.0-1.0-369.0","0","0","38887","","null","","","null","40","","","","","","","","","","","","","","","NaN",""
"","S1","","html-keyboard-response","271","309927","0.0-1.0-371.0","0","0","38887","","null","","","null","41","","","","","","","","","","","","","","","",""
"","ISI","","html-keyboard-response","272","310930","0.0-1.0-372.0","0","0","38887","","null","","","null","41","NaN","","","","","","","","","","","","","","",""
"","S2","","html-keyboard-response","273","311185","0.0-1.0-373.0","0","0","38887","","null","","","null","41","","NaN","","","","","","","","","","","","","",""
"","response","","html-keyboard-response","274","311628","0.0-1.0-374.0-0.0","0","0","38887","","440","","","68","41","","","1","41","training","adjacent","BA","2","1","N.jpg","Q.jpg","0","0","1","",""
"","feedback","","html-keyboard-response","275","312633","0.0-1.0-375.0-0.0","0","0","38887","","null","","","null","41","","","","","","","","","","","","","","","",""
"","ITI","","html-keyboard-response","276","313636","0.0-1.0-378.0","0","0","38887","","null","","","null","41","","","","","","","","","","","","","","","NaN",""
"","S1","","html-keyboard-response","277","313890","0.0-1.0-380.0","0","0","38887","","null","","","null","42","","","","","","","","","","","","","","","",""
"","ISI","","html-keyboard-response","278","314894","0.0-1.0-381.0","0","0","38887","","null","","","null","42","NaN","","","","","","","","","","","","","","",""
"","S2","","html-keyboard-response","279","315149","0.0-1.0-382.0","0","0","38887","","null","","","null","42","","NaN","","","","","","","","","","","","","",""
"","response","","html-keyboard-response","280","315397","0.0-1.0-383.0-0.0","0","0","38887","","244","","","75","42","","","1","42","training","adjacent","DE","4","5","P.jpg","L.jpg","1","1","1","",""
"","feedback","","html-keyboard-response","281","316402","0.0-1.0-384.0-0.0","0","0","38887","","null","","","null","42","","","","","","","","","","","","","","","",""
"","ITI","","html-keyboard-response","282","317405","0.0-1.0-387.0","0","0","38887","","null","","","null","42","","","","","","","","","","","","","","","NaN",""
"","S1","","html-keyboard-response","283","317660","0.0-1.0-389.0","0","0","38887","","null","","","null","43","","","","","","","","","","","","","","","",""
"","ISI","","html-keyboard-response","284","318664","0.0-1.0-390.0","0","0","38887","","null","","","null","43","NaN","","","","","","","","","","","","","","",""
"","S2","","html-keyboard-response","285","318918","0.0-1.0-391.0","0","0","38887","","null","","","null","43","","NaN","","","","","","","","","","","","","",""
"","response","","html-keyboard-response","286","319620","0.0-1.0-392.0-0.0","0","0","38887","","699","","","68","43","","","1","43","training","adjacent","FG","6","7","M.jpg","O.jpg","0","1","0","",""
"","feedback","","html-keyboard-response","287","320624","0.0-1.0-393.0-0.0","0","0","38887","","null","","","null","43","","","","","","","","","","","","","","","",""
"","time_out","","html-keyboard-response","288","322629","0.0-1.0-395.0-0.0","0","0","38887","","null","","","null","43","","","","","","","","","","","","","","","",""
"","ITI","","html-keyboard-response","289","323633","0.0-1.0-396.0","0","0","38887","","null","","","null","43","","","","","","","","","","","","","","","NaN",""
"","S1","","html-keyboard-response","290","323885","0.0-1.0-398.0","0","0","38887","","null","","","null","44","","","","","","","","","","","","","","","",""
"","ISI","","html-keyboard-response","291","324889","0.0-1.0-399.0","0","0","38887","","null","","","null","44","NaN","","","","","","","","","","","","","","",""
"","S2","","html-keyboard-response","292","325143","0.0-1.0-400.0","0","0","38887","","null","","","null","44","","NaN","","","","","","","","","","","","","",""
"","response","","html-keyboard-response","293","325258","0.0-1.0-401.0-0.0","0","0","38887","","111","","","68","44","","","1","44","training","adjacent","ED","5","4","L.jpg","P.jpg","0","0","1","",""
"","feedback","","html-keyboard-response","294","326263","0.0-1.0-402.0-0.0","0","0","38887","","null","","","null","44","","","","","","","","","","","","","","","",""
"","ITI","","html-keyboard-response","295","327267","0.0-1.0-405.0","0","0","38887","","null","","","null","44","","","","","","","","","","","","","","","NaN",""
"","S1","","html-keyboard-response","296","327522","0.0-1.0-407.0","0","0","38887","","null","","","null","45","","","","","","","","","","","","","","","",""
"","ISI","","html-keyboard-response","297","328527","0.0-1.0-408.0","0","0","38887","","null","","","null","45","NaN","","","","","","","","","","","","","","",""
"","S2","","html-keyboard-response","298","328782","0.0-1.0-409.0","0","0","38887","","null","","","null","45","","NaN","","","","","","","","","","","","","",""
"","response","","html-keyboard-response","299","329465","0.0-1.0-410.0-0.0","0","0","38887","","679","","","68","45","","","1","45","training","adjacent","BC","2","3","N.jpg","R.jpg","0","1","0","",""
"","feedback","","html-keyboard-response","300","330470","0.0-1.0-411.0-0.0","0","0","38887","","null","","","null","45","","","","","","","","","","","","","","","",""
"","time_out","","html-keyboard-response","301","332474","0.0-1.0-413.0-0.0","0","0","38887","","null","","","null","45","","","","","","","","","","","","","","","",""
"","ITI","","html-keyboard-response","302","333479","0.0-1.0-414.0","0","0","38887","","null","","","null","45","","","","","","","","","","","","","","","NaN",""
"","S1","","html-keyboard-response","303","333733","0.0-1.0-416.0","0","0","38887","","null","","","null","46","","","","","","","","","","","","","","","",""
"","ISI","","html-keyboard-response","304","334738","0.0-1.0-417.0","0","0","38887","","null","","","null","46","NaN","","","","","","","","","","","","","","",""
"","S2","","html-keyboard-response","305","334992","0.0-1.0-418.0","0","0","38887","","null","","","null","46","","NaN","","","","","","","","","","","","","",""
"","response","","html-keyboard-response","306","335780","0.0-1.0-419.0-0.0","0","0","38887","","784","","","68","46","","","1","46","training","adjacent","CB","3","2","R.jpg","N.jpg","0","0","1","",""
"","feedback","","html-keyboard-response","307","336785","0.0-1.0-420.0-0.0","0","0","38887","","null","","","null","46","","","","","","","","","","","","","","","",""
"","ITI","","html-keyboard-response","308","337789","0.0-1.0-423.0","0","0","38887","","null","","","null","46","","","","","","","","","","","","","","","NaN",""
"","S1","","html-keyboard-response","309","338043","0.0-1.0-425.0","0","0","38887","","null","","","null","47","","","","","","","","","","","","","","","",""
"","ISI","","html-keyboard-response","310","339047","0.0-1.0-426.0","0","0","38887","","null","","","null","47","NaN","","","","","","","","","","","","","","",""
"","S2","","html-keyboard-response","311","339303","0.0-1.0-427.0","0","0","38887","","null","","","null","47","","NaN","","","","","","","","","","","","","",""
"","response","","html-keyboard-response","312","339667","0.0-1.0-428.0-0.0","0","0","38887","","360","","","68","47","","","1","47","training","adjacent","FG","6","7","M.jpg","O.jpg","0","1","0","",""
"","feedback","","html-keyboard-response","313","340672","0.0-1.0-429.0-0.0","0","0","38887","","null","","","null","47","","","","","","","","","","","","","","","",""
"","time_out","","html-keyboard-response","314","342677","0.0-1.0-431.0-0.0","0","0","38887","","null","","","null","47","","","","","","","","","","","","","","","",""
"","ITI","","html-keyboard-response","315","343682","0.0-1.0-432.0","0","0","38887","","null","","","null","47","","","","","","","","","","","","","","","NaN",""
"","block_over","","html-keyboard-response","316","354609","0.0-1.0-433.0-0.0","0","0","38887","","10923","","","32","47","","","","","","","","","","","","","","","",""
"","S1","","html-keyboard-response","317","354864","0.0-1.0-434.0","0","0","38887","","null","","","null","48","","","","","","","","","","","","","","","",""
"","ISI","","html-keyboard-response","318","355868","0.0-1.0-435.0","0","0","38887","","null","","","null","48","NaN","","","","","","","","","","","","","","",""
"","S2","","html-keyboard-response","319","356122","0.0-1.0-436.0","0","0","38887","","null","","","null","48","","NaN","","","","","","","","","","","","","",""
"","response","","html-keyboard-response","320","356824","0.0-1.0-437.0-0.0","0","0","38887","","698","","","68","48","","","2","48","training","adjacent","DC","4","3","P.jpg","R.jpg","0","0","1","",""
"","feedback","","html-keyboard-response","321","357829","0.0-1.0-438.0-0.0","0","0","38887","","null","","","null","48","","","","","","","","","","","","","","","",""
"","ITI","","html-keyboard-response","322","358835","0.0-1.0-441.0","0","0","38887","","null","","","null","48","","","","","","","","","","","","","","","NaN",""
"","S1","","html-keyboard-response","323","359089","0.0-1.0-443.0","0","0","38887","","null","","","null","49","","","","","","","","","","","","","","","",""
"","ISI","","html-keyboard-response","324","360094","0.0-1.0-444.0","0","0","38887","","null","","","null","49","NaN","","","","","","","","","","","","","","",""
"","S2","","html-keyboard-response","325","360347","0.0-1.0-445.0","0","0","38887","","null","","","null","49","","NaN","","","","","","","","","","","","","",""
"","response","","html-keyboard-response","326","361441","0.0-1.0-446.0-0.0","0","0","38887","","1092","","","68","49","","","2","49","training","adjacent","GF","7","6","O.jpg","M.jpg","0","0","1","",""
"","feedback","","html-keyboard-response","327","362447","0.0-1.0-447.0-0.0","0","0","38887","","null","","","null","49","","","","","","","","","","","","","","","",""
"","ITI","","html-keyboard-response","328","363452","0.0-1.0-450.0","0","0","38887","","null","","","null","49","","","","","","","","","","","","","","","NaN",""
"","S1","","html-keyboard-response","329","363707","0.0-1.0-452.0","0","0","38887","","null","","","null","50","","","","","","","","","","","","","","","",""
"","ISI","","html-keyboard-response","330","364712","0.0-1.0-453.0","0","0","38887","","null","","","null","50","NaN","","","","","","","","","","","","","","",""
"","S2","","html-keyboard-response","331","364967","0.0-1.0-454.0","0","0","38887","","null","","","null","50","","NaN","","","","","","","","","","","","","",""
"","response","","html-keyboard-response","332","365117","0.0-1.0-455.0-0.0","0","0","38887","","146","","","75","50","","","2","50","training","adjacent","DE","4","5","P.jpg","L.jpg","1","1","1","",""
"","feedback","","html-keyboard-response","333","366137","0.0-1.0-456.0-0.0","0","0","38887","","null","","","null","50","","","","","","","","","","","","","","","",""
"","ITI","","html-keyboard-response","334","367141","0.0-1.0-459.0","0","0","38887","","null","","","null","50","","","","","","","","","","","","","","","NaN",""
"","S1","","html-keyboard-response","335","367396","0.0-1.0-461.0","0","0","38887","","null","","","null","51","","","","","","","","","","","","","","","",""
"","ISI","","html-keyboard-response","336","368399","0.0-1.0-462.0","0","0","38887","","null","","","null","51","NaN","","","","","","","","","","","","","","",""
"","S2","","html-keyboard-response","337","368654","0.0-1.0-463.0","0","0","38887","","null","","","null","51","","NaN","","","","","","","","","","","","","",""
"","response","","html-keyboard-response","338","369173","0.0-1.0-464.0-0.0","0","0","38887","","516","","","68","51","","","2","51","training","adjacent","BA","2","1","N.jpg","Q.jpg","0","0","1","",""
"","feedback","","html-keyboard-response","339","370178","0.0-1.0-465.0-0.0","0","0","38887","","null","","","null","51","","","","","","","","","","","","","","","",""
"","ITI","","html-keyboard-response","340","371183","0.0-1.0-468.0","0","0","38887","","null","","","null","51","","","","","","","","","","","","","","","NaN",""
"","S1","","html-keyboard-response","341","371438","0.0-1.0-470.0","0","0","38887","","null","","","null","52","","","","","","","","","","","","","","","",""
"","ISI","","html-keyboard-response","342","372442","0.0-1.0-471.0","0","0","38887","","null","","","null","52","NaN","","","","","","","","","","","","","","",""
"","S2","","html-keyboard-response","343","372697","0.0-1.0-472.0","0","0","38887","","null","","","null","52","","NaN","","","","","","","","","","","","","",""
"","response","","html-keyboard-response","344","373331","0.0-1.0-473.0-0.0","0","0","38887","","630","","","75","52","","","2","52","training","adjacent","DC","4","3","P.jpg","R.jpg","1","0","0","",""
"","feedback","","html-keyboard-response","345","374336","0.0-1.0-474.0-0.0","0","0","38887","","null","","","null","52","","","","","","","","","","","","","","","",""
"","time_out","","html-keyboard-response","346","376341","0.0-1.0-476.0-0.0","0","0","38887","","null","","","null","52","","","","","","","","","","","","","","","",""
"","ITI","","html-keyboard-response","347","377344","0.0-1.0-477.0","0","0","38887","","null","","","null","52","","","","","","","","","","","","","","","NaN",""
"","S1","","html-keyboard-response","348","377598","0.0-1.0-479.0","0","0","38887","","null","","","null","53","","","","","","","","","","","","","","","",""
"","ISI","","html-keyboard-response","349","378603","0.0-1.0-480.0","0","0","38887","","null","","","null","53","NaN","","","","","","","","","","","","","","",""
"","S2","","html-keyboard-response","350","378858","0.0-1.0-481.0","0","0","38887","","null","","","null","53","","NaN","","","","","","","","","","","","","",""
"","response","","html-keyboard-response","351","379584","0.0-1.0-482.0-0.0","0","0","38887","","723","","","68","53","","","2","53","training","adjacent","CB","3","2","R.jpg","N.jpg","0","0","1","",""
"","feedback","","html-keyboard-response","352","380589","0.0-1.0-483.0-0.0","0","0","38887","","null","","","null","53","","","","","","","","","","","","","","","",""
"","ITI","","html-keyboard-response","353","381594","0.0-1.0-486.0","0","0","38887","","null","","","null","53","","","","","","","","","","","","","","","NaN",""
"","S1","","html-keyboard-response","354","381847","0.0-1.0-488.0","0","0","38887","","null","","","null","54","","","","","","","","","","","","","","","",""
"","ISI","","html-keyboard-response","355","382852","0.0-1.0-489.0","0","0","38887","","null","","","null","54","NaN","","","","","","","","","","","","","","",""
"","S2","","html-keyboard-response","356","383107","0.0-1.0-490.0","0","0","38887","","null","","","null","54","","NaN","","","","","","","","","","","","","",""
"","response","","html-keyboard-response","357","383818","0.0-1.0-491.0-0.0","0","0","38887","","708","","","68","54","","","2","54","training","adjacent","BA","2","1","N.jpg","Q.jpg","0","0","1","",""
"","feedback","","html-keyboard-response","358","384822","0.0-1.0-492.0-0.0","0","0","38887","","null","","","null","54","","","","","","","","","","","","","","","",""
"","ITI","","html-keyboard-response","359","385827","0.0-1.0-495.0","0","0","38887","","null","","","null","54","","","","","","","","","","","","","","","NaN",""
"","S1","","html-keyboard-response","360","386087","0.0-1.0-497.0","0","0","38887","","null","","","null","55","","","","","","","","","","","","","","","",""
"","ISI","","html-keyboard-response","361","387090","0.0-1.0-498.0","0","0","38887","","null","","","null","55","NaN","","","","","","","","","","","","","","",""
"","S2","","html-keyboard-response","362","387344","0.0-1.0-499.0","0","0","38887","","null","","","null","55","","NaN","","","","","","","","","","","","","",""
"","response","","html-keyboard-response","363","387460","0.0-1.0-500.0-0.0","0","0","38887","","113","","","75","55","","","2","55","training","adjacent","DE","4","5","P.jpg","L.jpg","1","1","1","",""
"","feedback","","html-keyboard-response","364","388479","0.0-1.0-501.0-0.0","0","0","38887","","null","","","null","55","","","","","","","","","","","","","","","",""
"","ITI","","html-keyboard-response","365","389483","0.0-1.0-504.0","0","0","38887","","null","","","null","55","","","","","","","","","","","","","","","NaN",""
"","S1","","html-keyboard-response","366","389738","0.0-1.0-506.0","0","0","38887","","null","","","null","56","","","","","","","","","","","","","","","",""
"","ISI","","html-keyboard-response","367","390742","0.0-1.0-507.0","0","0","38887","","null","","","null","56","NaN","","","","","","","","","","","","","","",""
"","S2","","html-keyboard-response","368","390996","0.0-1.0-508.0","0","0","38887","","null","","","null","56","","NaN","","","","","","","","","","","","","",""
"","response","","html-keyboard-response","369","392129","0.0-1.0-509.0-0.0","0","0","38887","","1128","","","75","56","","","2","56","training","adjacent","AB","1","2","Q.jpg","N.jpg","1","1","1","",""
"","feedback","","html-keyboard-response","370","393133","0.0-1.0-510.0-0.0","0","0","38887","","null","","","null","56","","","","","","","","","","","","","","","",""
"","ITI","","html-keyboard-response","371","394138","0.0-1.0-513.0","0","0","38887","","null","","","null","56","","","","","","","","","","","","","","","NaN",""
"","S1","","html-keyboard-response","372","394394","0.0-1.0-515.0","0","0","38887","","null","","","null","57","","","","","","","","","","","","","","","",""
"","ISI","","html-keyboard-response","373","395397","0.0-1.0-516.0","0","0","38887","","null","","","null","57","NaN","","","","","","","","","","","","","","",""
"","S2","","html-keyboard-response","374","395653","0.0-1.0-517.0","0","0","38887","","null","","","null","57","","NaN","","","","","","","","","","","","","",""
"","response","","html-keyboard-response","375","396510","0.0-1.0-518.0-0.0","0","0","38887","","853","","","75","57","","","2","57","training","adjacent","CD","3","4","R.jpg","P.jpg","1","1","1","",""
"","feedback","","html-keyboard-response","376","397515","0.0-1.0-519.0-0.0","0","0","38887","","null","","","null","57","","","","","","","","","","","","","","","",""
"","ITI","","html-keyboard-response","377","398520","0.0-1.0-522.0","0","0","38887","","null","","","null","57","","","","","","","","","","","","","","","NaN",""
"","S1","","html-keyboard-response","378","398774","0.0-1.0-524.0","0","0","38887","","null","","","null","58","","","","","","","","","","","","","","","",""
"","ISI","","html-keyboard-response","379","399779","0.0-1.0-525.0","0","0","38887","","null","","","null","58","NaN","","","","","","","","","","","","","","",""
"","S2","","html-keyboard-response","380","400034","0.0-1.0-526.0","0","0","38887","","null","","","null","58","","NaN","","","","","","","","","","","","","",""
"","response","","html-keyboard-response","381","400420","0.0-1.0-527.0-0.0","0","0","38887","","381","","","75","58","","","2","58","training","adjacent","AB","1","2","Q.jpg","N.jpg","1","1","1","",""
"","feedback","","html-keyboard-response","382","401425","0.0-1.0-528.0-0.0","0","0","38887","","null","","","null","58","","","","","","","","","","","","","","","",""
"","ITI","","html-keyboard-response","383","402430","0.0-1.0-531.0","0","0","38887","","null","","","null","58","","","","","","","","","","","","","","","NaN",""
"","S1","","html-keyboard-response","384","402684","0.0-1.0-533.0","0","0","38887","","null","","","null","59","","","","","","","","","","","","","","","",""
"","ISI","","html-keyboard-response","385","403703","0.0-1.0-534.0","0","0","38887","","null","","","null","59","NaN","","","","","","","","","","","","","","",""
"","S2","","html-keyboard-response","386","403957","0.0-1.0-535.0","0","0","38887","","null","","","null","59","","NaN","","","","","","","","","","","","","",""
"","response","","html-keyboard-response","387","404670","0.0-1.0-536.0-0.0","0","0","38887","","709","","","68","59","","","2","59","training","adjacent","DC","4","3","P.jpg","R.jpg","0","0","1","",""
"","feedback","","html-keyboard-response","388","405675","0.0-1.0-537.0-0.0","0","0","38887","","null","","","null","59","","","","","","","","","","","","","","","",""
"","ITI","","html-keyboard-response","389","406679","0.0-1.0-540.0","0","0","38887","","null","","","null","59","","","","","","","","","","","","","","","NaN",""
"","S1","","html-keyboard-response","390","406934","0.0-1.0-542.0","0","0","38887","","null","","","null","60","","","","","","","","","","","","","","","",""
"","ISI","","html-keyboard-response","391","407938","0.0-1.0-543.0","0","0","38887","","null","","","null","60","NaN","","","","","","","","","","","","","","",""
"","S2","","html-keyboard-response","392","408193","0.0-1.0-544.0","0","0","38887","","null","","","null","60","","NaN","","","","","","","","","","","","","",""
"","response","","html-keyboard-response","393","408435","0.0-1.0-545.0-0.0","0","0","38887","","238","","","68","60","","","2","60","training","adjacent","ED","5","4","L.jpg","P.jpg","0","0","1","",""
"","feedback","","html-keyboard-response","394","409440","0.0-1.0-546.0-0.0","0","0","38887","","null","","","null","60","","","","","","","","","","","","","","","",""
"","ITI","","html-keyboard-response","395","410444","0.0-1.0-549.0","0","0","38887","","null","","","null","60","","","","","","","","","","","","","","","NaN",""
"","S1","","html-keyboard-response","396","410699","0.0-1.0-551.0","0","0","38887","","null","","","null","61","","","","","","","","","","","","","","","",""
"","ISI","","html-keyboard-response","397","411704","0.0-1.0-552.0","0","0","38887","","null","","","null","61","NaN","","","","","","","","","","","","","","",""
"","S2","","html-keyboard-response","398","411958","0.0-1.0-553.0","0","0","38887","","null","","","null","61","","NaN","","","","","","","","","","","","","",""
"","response","","html-keyboard-response","399","412077","0.0-1.0-554.0-0.0","0","0","38887","","115","","","75","61","","","2","61","training","adjacent","DE","4","5","P.jpg","L.jpg","1","1","1","",""
"","feedback","","html-keyboard-response","400","413080","0.0-1.0-555.0-0.0","0","0","38887","","null","","","null","61","","","","","","","","","","","","","","","",""
"","ITI","","html-keyboard-response","401","414085","0.0-1.0-558.0","0","0","38887","","null","","","null","61","","","","","","","","","","","","","","","NaN",""
"","S1","","html-keyboard-response","402","414339","0.0-1.0-560.0","0","0","38887","","null","","","null","62","","","","","","","","","","","","","","","",""
"","ISI","","html-keyboard-response","403","415344","0.0-1.0-561.0","0","0","38887","","null","","","null","62","NaN","","","","","","","","","","","","","","",""
"","S2","","html-keyboard-response","404","415599","0.0-1.0-562.0","0","0","38887","","null","","","null","62","","NaN","","","","","","","","","","","","","",""
"","response","","html-keyboard-response","405","416034","0.0-1.0-563.0-0.0","0","0","38887","","430","","","75","62","","","2","62","training","adjacent","FG","6","7","M.jpg","O.jpg","1","1","1","",""
"","feedback","","html-keyboard-response","406","417040","0.0-1.0-564.0-0.0","0","0","38887","","null","","","null","62","","","","","","","","","","","","","","","",""
"","ITI","","html-keyboard-response","407","418045","0.0-1.0-567.0","0","0","38887","","null","","","null","62","","","","","","","","","","","","","","","NaN",""
"","S1","","html-keyboard-response","408","418300","0.0-1.0-569.0","0","0","38887","","null","","","null","63","","","","","","","","","","","","","","","",""
"","ISI","","html-keyboard-response","409","419304","0.0-1.0-570.0","0","0","38887","","null","","","null","63","NaN","","","","","","","","","","","","","","",""
"","S2","","html-keyboard-response","410","419559","0.0-1.0-571.0","0","0","38887","","null","","","null","63","","NaN","","","","","","","","","","","","","",""
"","response","","html-keyboard-response","411","420060","0.0-1.0-572.0-0.0","0","0","38887","","498","","","68","63","","","2","63","training","adjacent","CB","3","2","R.jpg","N.jpg","0","0","1","",""
"","feedback","","html-keyboard-response","412","421065","0.0-1.0-573.0-0.0","0","0","38887","","null","","","null","63","","","","","","","","","","","","","","","",""
"","ITI","","html-keyboard-response","413","422070","0.0-1.0-576.0","0","0","38887","","null","","","null","63","","","","","","","","","","","","","","","NaN",""
"","S1","","html-keyboard-response","414","422324","0.0-1.0-578.0","0","0","38887","","null","","","null","64","","","","","","","","","","","","","","","",""
"","ISI","","html-keyboard-response","415","423328","0.0-1.0-579.0","0","0","38887","","null","","","null","64","NaN","","","","","","","","","","","","","","",""
"","S2","","html-keyboard-response","416","423584","0.0-1.0-580.0","0","0","38887","","null","","","null","64","","NaN","","","","","","","","","","","","","",""
"","response","","html-keyboard-response","417","424139","0.0-1.0-581.0-0.0","0","0","38887","","552","","","75","64","","","2","64","training","adjacent","EF","5","6","L.jpg","M.jpg","1","1","1","",""
"","feedback","","html-keyboard-response","418","425144","0.0-1.0-582.0-0.0","0","0","38887","","null","","","null","64","","","","","","","","","","","","","","","",""
"","ITI","","html-keyboard-response","419","426158","0.0-1.0-585.0","0","0","38887","","null","","","null","64","","","","","","","","","","","","","","","NaN",""
"","S1","","html-keyboard-response","420","426413","0.0-1.0-587.0","0","0","38887","","null","","","null","65","","","","","","","","","","","","","","","",""
"","ISI","","html-keyboard-response","421","427418","0.0-1.0-588.0","0","0","38887","","null","","","null","65","NaN","","","","","","","","","","","","","","",""
"","S2","","html-keyboard-response","422","427673","0.0-1.0-589.0","0","0","38887","","null","","","null","65","","NaN","","","","","","","","","","","","","",""
"","response","","html-keyboard-response","423","427933","0.0-1.0-590.0-0.0","0","0","38887","","257","","","75","65","","","2","65","training","adjacent","BC","2","3","N.jpg","R.jpg","1","1","1","",""
"","feedback","","html-keyboard-response","424","428937","0.0-1.0-591.0-0.0","0","0","38887","","null","","","null","65","","","","","","","","","","","","","","","",""
"","ITI","","html-keyboard-response","425","429943","0.0-1.0-594.0","0","0","38887","","null","","","null","65","","","","","","","","","","","","","","","NaN",""
"","S1","","html-keyboard-response","426","430198","0.0-1.0-596.0","0","0","38887","","null","","","null","66","","","","","","","","","","","","","","","",""
"","ISI","","html-keyboard-response","427","431203","0.0-1.0-597.0","0","0","38887","","null","","","null","66","NaN","","","","","","","","","","","","","","",""
"","S2","","html-keyboard-response","428","431457","0.0-1.0-598.0","0","0","38887","","null","","","null","66","","NaN","","","","","","","","","","","","","",""
"","response","","html-keyboard-response","429","432117","0.0-1.0-599.0-0.0","0","0","38887","","655","","","68","66","","","2","66","training","adjacent","EF","5","6","L.jpg","M.jpg","0","1","0","",""
"","feedback","","html-keyboard-response","430","433122","0.0-1.0-600.0-0.0","0","0","38887","","null","","","null","66","","","","","","","","","","","","","","","",""
"","time_out","","html-keyboard-response","431","435126","0.0-1.0-602.0-0.0","0","0","38887","","null","","","null","66","","","","","","","","","","","","","","","",""
"","ITI","","html-keyboard-response","432","436132","0.0-1.0-603.0","0","0","38887","","null","","","null","66","","","","","","","","","","","","","","","NaN",""
"","S1","","html-keyboard-response","433","436386","0.0-1.0-605.0","0","0","38887","","null","","","null","67","","","","","","","","","","","","","","","",""
"","ISI","","html-keyboard-response","434","437391","0.0-1.0-606.0","0","0","38887","","null","","","null","67","NaN","","","","","","","","","","","","","","",""
"","S2","","html-keyboard-response","435","437645","0.0-1.0-607.0","0","0","38887","","null","","","null","67","","NaN","","","","","","","","","","","","","",""
"","response","","html-keyboard-response","436","438298","0.0-1.0-608.0-0.0","0","0","38887","","648","","","75","67","","","2","67","training","adjacent","FG","6","7","M.jpg","O.jpg","1","1","1","",""
"","feedback","","html-keyboard-response","437","439303","0.0-1.0-609.0-0.0","0","0","38887","","null","","","null","67","","","","","","","","","","","","","","","",""
"","ITI","","html-keyboard-response","438","440318","0.0-1.0-612.0","0","0","38887","","null","","","null","67","","","","","","","","","","","","","","","NaN",""
"","S1","","html-keyboard-response","439","440572","0.0-1.0-614.0","0","0","38887","","null","","","null","68","","","","","","","","","","","","","","","",""
"","ISI","","html-keyboard-response","440","441576","0.0-1.0-615.0","0","0","38887","","null","","","null","68","NaN","","","","","","","","","","","","","","",""
"","S2","","html-keyboard-response","441","441837","0.0-1.0-616.0","0","0","38887","","null","","","null","68","","NaN","","","","","","","","","","","","","",""
"","response","","html-keyboard-response","442","442613","0.0-1.0-617.0-0.0","0","0","38887","","771","","","75","68","","","2","68","training","adjacent","GF","7","6","O.jpg","M.jpg","1","0","0","",""
"","feedback","","html-keyboard-response","443","443619","0.0-1.0-618.0-0.0","0","0","38887","","null","","","null","68","","","","","","","","","","","","","","","",""
"","time_out","","html-keyboard-response","444","445623","0.0-1.0-620.0-0.0","0","0","38887","","null","","","null","68","","","","","","","","","","","","","","","",""
"","ITI","","html-keyboard-response","445","446627","0.0-1.0-621.0","0","0","38887","","null","","","null","68","","","","","","","","","","","","","","","NaN",""
"","S1","","html-keyboard-response","446","446882","0.0-1.0-623.0","0","0","38887","","null","","","null","69","","","","","","","","","","","","","","","",""
"","ISI","","html-keyboard-response","447","447886","0.0-1.0-624.0","0","0","38887","","null","","","null","69","NaN","","","","","","","","","","","","","","",""
"","S2","","html-keyboard-response","448","448149","0.0-1.0-625.0","0","0","38887","","null","","","null","69","","NaN","","","","","","","","","","","","","",""
"","response","","html-keyboard-response","449","448888","0.0-1.0-626.0-0.0","0","0","38887","","735","","","75","69","","","2","69","training","adjacent","EF","5","6","L.jpg","M.jpg","1","1","1","",""
"","feedback","","html-keyboard-response","450","449894","0.0-1.0-627.0-0.0","0","0","38887","","null","","","null","69","","","","","","","","","","","","","","","",""
"","ITI","","html-keyboard-response","451","450899","0.0-1.0-630.0","0","0","38887","","null","","","null","69","","","","","","","","","","","","","","","NaN",""
"","S1","","html-keyboard-response","452","451154","0.0-1.0-632.0","0","0","38887","","null","","","null","70","","","","","","","","","","","","","","","",""
"","ISI","","html-keyboard-response","453","452159","0.0-1.0-633.0","0","0","38887","","null","","","null","70","NaN","","","","","","","","","","","","","","",""
"","S2","","html-keyboard-response","454","452413","0.0-1.0-634.0","0","0","38887","","null","","","null","70","","NaN","","","","","","","","","","","","","",""
"","response","","html-keyboard-response","455","453264","0.0-1.0-635.0-0.0","0","0","38887","","848","","","68","70","","","2","70","training","adjacent","CB","3","2","R.jpg","N.jpg","0","0","1","",""
"","feedback","","html-keyboard-response","456","454269","0.0-1.0-636.0-0.0","0","0","38887","","null","","","null","70","","","","","","","","","","","","","","","",""
"","ITI","","html-keyboard-response","457","455273","0.0-1.0-639.0","0","0","38887","","null","","","null","70","","","","","","","","","","","","","","","NaN",""
"","S1","","html-keyboard-response","458","455527","0.0-1.0-641.0","0","0","38887","","null","","","null","71","","","","","","","","","","","","","","","",""
"","ISI","","html-keyboard-response","459","456531","0.0-1.0-642.0","0","0","38887","","null","","","null","71","NaN","","","","","","","","","","","","","","",""
"","S2","","html-keyboard-response","460","456785","0.0-1.0-643.0","0","0","38887","","null","","","null","71","","NaN","","","","","","","","","","","","","",""
"","response","","html-keyboard-response","461","457273","0.0-1.0-644.0-0.0","0","0","38887","","484","","","68","71","","","2","71","training","adjacent","FE","6","5","M.jpg","L.jpg","0","0","1","",""
"","feedback","","html-keyboard-response","462","458278","0.0-1.0-645.0-0.0","0","0","38887","","null","","","null","71","","","","","","","","","","","","","","","",""
"","ITI","","html-keyboard-response","463","459283","0.0-1.0-648.0","0","0","38887","","null","","","null","71","","","","","","","","","","","","","","","NaN",""
"","S1","","html-keyboard-response","464","459537","0.0-1.0-650.0","0","0","38887","","null","","","null","72","","","","","","","","","","","","","","","",""
"","ISI","","html-keyboard-response","465","460542","0.0-1.0-651.0","0","0","38887","","null","","","null","72","NaN","","","","","","","","","","","","","","",""
"","S2","","html-keyboard-response","466","460797","0.0-1.0-652.0","0","0","38887","","null","","","null","72","","NaN","","","","","","","","","","","","","",""
"","response","","html-keyboard-response","467","461237","0.0-1.0-653.0-0.0","0","0","38887","","435","","","68","72","","","2","72","training","adjacent","CD","3","4","R.jpg","P.jpg","0","1","0","",""
"","feedback","","html-keyboard-response","468","462242","0.0-1.0-654.0-0.0","0","0","38887","","null","","","null","72","","","","","","","","","","","","","","","",""
"","time_out","","html-keyboard-response","469","464247","0.0-1.0-656.0-0.0","0","0","38887","","null","","","null","72","","","","","","","","","","","","","","","",""
"","ITI","","html-keyboard-response","470","465252","0.0-1.0-657.0","0","0","38887","","null","","","null","72","","","","","","","","","","","","","","","NaN",""
"","S1","","html-keyboard-response","471","465507","0.0-1.0-659.0","0","0","38887","","null","","","null","73","","","","","","","","","","","","","","","",""
"","ISI","","html-keyboard-response","472","466512","0.0-1.0-660.0","0","0","38887","","null","","","null","73","NaN","","","","","","","","","","","","","","",""
"","S2","","html-keyboard-response","473","466766","0.0-1.0-661.0","0","0","38887","","null","","","null","73","","NaN","","","","","","","","","","","","","",""
"","response","","html-keyboard-response","474","467220","0.0-1.0-662.0-0.0","0","0","38887","","450","","","68","73","","","2","73","training","adjacent","FE","6","5","M.jpg","L.jpg","0","0","1","",""
"","feedback","","html-keyboard-response","475","468225","0.0-1.0-663.0-0.0","0","0","38887","","null","","","null","73","","","","","","","","","","","","","","","",""
"","ITI","","html-keyboard-response","476","469228","0.0-1.0-666.0","0","0","38887","","null","","","null","73","","","","","","","","","","","","","","","NaN",""
"","S1","","html-keyboard-response","477","469484","0.0-1.0-668.0","0","0","38887","","null","","","null","74","","","","","","","","","","","","","","","",""
"","ISI","","html-keyboard-response","478","470499","0.0-1.0-669.0","0","0","38887","","null","","","null","74","NaN","","","","","","","","","","","","","","",""
"","S2","","html-keyboard-response","479","470754","0.0-1.0-670.0","0","0","38887","","null","","","null","74","","NaN","","","","","","","","","","","","","",""
"","response","","html-keyboard-response","480","471269","0.0-1.0-671.0-0.0","0","0","38887","","511","","","68","74","","","2","74","training","adjacent","CB","3","2","R.jpg","N.jpg","0","0","1","",""
"","feedback","","html-keyboard-response","481","472274","0.0-1.0-672.0-0.0","0","0","38887","","null","","","null","74","","","","","","","","","","","","","","","",""
"","ITI","","html-keyboard-response","482","473279","0.0-1.0-675.0","0","0","38887","","null","","","null","74","","","","","","","","","","","","","","","NaN",""
"","S1","","html-keyboard-response","483","473534","0.0-1.0-677.0","0","0","38887","","null","","","null","75","","","","","","","","","","","","","","","",""
"","ISI","","html-keyboard-response","484","474537","0.0-1.0-678.0","0","0","38887","","null","","","null","75","NaN","","","","","","","","","","","","","","",""
"","S2","","html-keyboard-response","485","474792","0.0-1.0-679.0","0","0","38887","","null","","","null","75","","NaN","","","","","","","","","","","","","",""
"","response","","html-keyboard-response","486","475756","0.0-1.0-680.0-0.0","0","0","38887","","960","","","68","75","","","2","75","training","adjacent","GF","7","6","O.jpg","M.jpg","0","0","1","",""
"","feedback","","html-keyboard-response","487","476761","0.0-1.0-681.0-0.0","0","0","38887","","null","","","null","75","","","","","","","","","","","","","","","",""
"","ITI","","html-keyboard-response","488","477765","0.0-1.0-684.0","0","0","38887","","null","","","null","75","","","","","","","","","","","","","","","NaN",""
"","S1","","html-keyboard-response","489","478020","0.0-1.0-686.0","0","0","38887","","null","","","null","76","","","","","","","","","","","","","","","",""
"","ISI","","html-keyboard-response","490","479024","0.0-1.0-687.0","0","0","38887","","null","","","null","76","NaN","","","","","","","","","","","","","","",""
"","S2","","html-keyboard-response","491","479279","0.0-1.0-688.0","0","0","38887","","null","","","null","76","","NaN","","","","","","","","","","","","","",""
"","response","","html-keyboard-response","492","480059","0.0-1.0-689.0-0.0","0","0","38887","","775","","","68","76","","","2","76","training","adjacent","FE","6","5","M.jpg","L.jpg","0","0","1","",""
"","feedback","","html-keyboard-response","493","481064","0.0-1.0-690.0-0.0","0","0","38887","","null","","","null","76","","","","","","","","","","","","","","","",""
"","ITI","","html-keyboard-response","494","482069","0.0-1.0-693.0","0","0","38887","","null","","","null","76","","","","","","","","","","","","","","","NaN",""
"","S1","","html-keyboard-response","495","482323","0.0-1.0-695.0","0","0","38887","","null","","","null","77","","","","","","","","","","","","","","","",""
"","ISI","","html-keyboard-response","496","483328","0.0-1.0-696.0","0","0","38887","","null","","","null","77","NaN","","","","","","","","","","","","","","",""
"","S2","","html-keyboard-response","497","483583","0.0-1.0-697.0","0","0","38887","","null","","","null","77","","NaN","","","","","","","","","","","","","",""
"","response","","html-keyboard-response","498","484463","0.0-1.0-698.0-0.0","0","0","38887","","876","","","68","77","","","2","77","training","adjacent","DC","4","3","P.jpg","R.jpg","0","0","1","",""
"","feedback","","html-keyboard-response","499","485475","0.0-1.0-699.0-0.0","0","0","38887","","null","","","null","77","","","","","","","","","","","","","","","",""
"","ITI","","html-keyboard-response","500","486480","0.0-1.0-702.0","0","0","38887","","null","","","null","77","","","","","","","","","","","","","","","NaN",""
"","S1","","html-keyboard-response","501","486735","0.0-1.0-704.0","0","0","38887","","null","","","null","78","","","","","","","","","","","","","","","",""
"","ISI","","html-keyboard-response","502","487739","0.0-1.0-705.0","0","0","38887","","null","","","null","78","NaN","","","","","","","","","","","","","","",""
"","S2","","html-keyboard-response","503","487994","0.0-1.0-706.0","0","0","38887","","null","","","null","78","","NaN","","","","","","","","","","","","","",""
"","response","","html-keyboard-response","504","488489","0.0-1.0-707.0-0.0","0","0","38887","","490","","","68","78","","","2","78","training","adjacent","BA","2","1","N.jpg","Q.jpg","0","0","1","",""
"","feedback","","html-keyboard-response","505","489495","0.0-1.0-708.0-0.0","0","0","38887","","null","","","null","78","","","","","","","","","","","","","","","",""
"","ITI","","html-keyboard-response","506","490500","0.0-1.0-711.0","0","0","38887","","null","","","null","78","","","","","","","","","","","","","","","NaN",""
"","S1","","html-keyboard-response","507","490754","0.0-1.0-713.0","0","0","38887","","null","","","null","79","","","","","","","","","","","","","","","",""
"","ISI","","html-keyboard-response","508","491758","0.0-1.0-714.0","0","0","38887","","null","","","null","79","NaN","","","","","","","","","","","","","","",""
"","S2","","html-keyboard-response","509","492013","0.0-1.0-715.0","0","0","38887","","null","","","null","79","","NaN","","","","","","","","","","","","","",""
"","response","","html-keyboard-response","510","492228","0.0-1.0-716.0-0.0","0","0","38887","","211","","","75","79","","","2","79","training","adjacent","AB","1","2","Q.jpg","N.jpg","1","1","1","",""
"","feedback","","html-keyboard-response","511","493234","0.0-1.0-717.0-0.0","0","0","38887","","null","","","null","79","","","","","","","","","","","","","","","",""
"","ITI","","html-keyboard-response","512","494238","0.0-1.0-720.0","0","0","38887","","null","","","null","79","","","","","","","","","","","","","","","NaN",""
"","S1","","html-keyboard-response","513","494492","0.0-1.0-722.0","0","0","38887","","null","","","null","80","","","","","","","","","","","","","","","",""
"","ISI","","html-keyboard-response","514","495496","0.0-1.0-723.0","0","0","38887","","null","","","null","80","NaN","","","","","","","","","","","","","","",""
"","S2","","html-keyboard-response","515","495750","0.0-1.0-724.0","0","0","38887","","null","","","null","80","","NaN","","","","","","","","","","","","","",""
"","response","","html-keyboard-response","516","495951","0.0-1.0-725.0-0.0","0","0","38887","","198","","","75","80","","","2","80","training","adjacent","GF","7","6","O.jpg","M.jpg","1","0","0","",""
"","feedback","","html-keyboard-response","517","496957","0.0-1.0-726.0-0.0","0","0","38887","","null","","","null","80","","","","","","","","","","","","","","","",""
"","time_out","","html-keyboard-response","518","498962","0.0-1.0-728.0-0.0","0","0","38887","","null","","","null","80","","","","","","","","","","","","","","","",""
"","ITI","","html-keyboard-response","519","499966","0.0-1.0-729.0","0","0","38887","","null","","","null","80","","","","","","","","","","","","","","","NaN",""
"","S1","","html-keyboard-response","520","500221","0.0-1.0-731.0","0","0","38887","","null","","","null","81","","","","","","","","","","","","","","","",""
"","ISI","","html-keyboard-response","521","501225","0.0-1.0-732.0","0","0","38887","","null","","","null","81","NaN","","","","","","","","","","","","","","",""
"","S2","","html-keyboard-response","522","501482","0.0-1.0-733.0","0","0","38887","","null","","","null","81","","NaN","","","","","","","","","","","","","",""
"","response","","html-keyboard-response","523","501701","0.0-1.0-734.0-0.0","0","0","38887","","215","","","68","81","","","2","81","training","adjacent","ED","5","4","L.jpg","P.jpg","0","0","1","",""
"","feedback","","html-keyboard-response","524","502716","0.0-1.0-735.0-0.0","0","0","38887","","null","","","null","81","","","","","","","","","","","","","","","",""
"","ITI","","html-keyboard-response","525","503722","0.0-1.0-738.0","0","0","38887","","null","","","null","81","","","","","","","","","","","","","","","NaN",""
"","S1","","html-keyboard-response","526","503977","0.0-1.0-740.0","0","0","38887","","null","","","null","82","","","","","","","","","","","","","","","",""
"","ISI","","html-keyboard-response","527","504981","0.0-1.0-741.0","0","0","38887","","null","","","null","82","NaN","","","","","","","","","","","","","","",""
"","S2","","html-keyboard-response","528","505235","0.0-1.0-742.0","0","0","38887","","null","","","null","82","","NaN","","","","","","","","","","","","","",""
"","response","","html-keyboard-response","529","505511","0.0-1.0-743.0-0.0","0","0","38887","","273","","","68","82","","","2","82","training","adjacent","ED","5","4","L.jpg","P.jpg","0","0","1","",""
"","feedback","","html-keyboard-response","530","506516","0.0-1.0-744.0-0.0","0","0","38887","","null","","","null","82","","","","","","","","","","","","","","","",""
"","ITI","","html-keyboard-response","531","507522","0.0-1.0-747.0","0","0","38887","","null","","","null","82","","","","","","","","","","","","","","","NaN",""
"","S1","","html-keyboard-response","532","507776","0.0-1.0-749.0","0","0","38887","","null","","","null","83","","","","","","","","","","","","","","","",""
"","ISI","","html-keyboard-response","533","508781","0.0-1.0-750.0","0","0","38887","","null","","","null","83","NaN","","","","","","","","","","","","","","",""
"","S2","","html-keyboard-response","534","509036","0.0-1.0-751.0","0","0","38887","","null","","","null","83","","NaN","","","","","","","","","","","","","",""
"","response","","html-keyboard-response","535","509292","0.0-1.0-752.0-0.0","0","0","38887","","252","","","68","83","","","2","83","training","adjacent","ED","5","4","L.jpg","P.jpg","0","0","1","",""
"","feedback","","html-keyboard-response","536","510294","0.0-1.0-753.0-0.0","0","0","38887","","null","","","null","83","","","","","","","","","","","","","","","",""
"","ITI","","html-keyboard-response","537","511298","0.0-1.0-756.0","0","0","38887","","null","","","null","83","","","","","","","","","","","","","","","NaN",""
"","S1","","html-keyboard-response","538","511553","0.0-1.0-758.0","0","0","38887","","null","","","null","84","","","","","","","","","","","","","","","",""
"","ISI","","html-keyboard-response","539","512557","0.0-1.0-759.0","0","0","38887","","null","","","null","84","NaN","","","","","","","","","","","","","","",""
"","S2","","html-keyboard-response","540","512812","0.0-1.0-760.0","0","0","38887","","null","","","null","84","","NaN","","","","","","","","","","","","","",""
"","response","","html-keyboard-response","541","513244","0.0-1.0-761.0-0.0","0","0","38887","","429","","","68","84","","","2","84","training","adjacent","BA","2","1","N.jpg","Q.jpg","0","0","1","",""
"","feedback","","html-keyboard-response","542","514249","0.0-1.0-762.0-0.0","0","0","38887","","null","","","null","84","","","","","","","","","","","","","","","",""
"","ITI","","html-keyboard-response","543","515253","0.0-1.0-765.0","0","0","38887","","null","","","null","84","","","","","","","","","","","","","","","NaN",""
"","S1","","html-keyboard-response","544","515508","0.0-1.0-767.0","0","0","38887","","null","","","null","85","","","","","","","","","","","","","","","",""
"","ISI","","html-keyboard-response","545","516511","0.0-1.0-768.0","0","0","38887","","null","","","null","85","NaN","","","","","","","","","","","","","","",""
"","S2","","html-keyboard-response","546","516766","0.0-1.0-769.0","0","0","38887","","null","","","null","85","","NaN","","","","","","","","","","","","","",""
"","response","","html-keyboard-response","547","517278","0.0-1.0-770.0-0.0","0","0","38887","","508","","","68","85","","","2","85","training","adjacent","FG","6","7","M.jpg","O.jpg","0","1","0","",""
"","feedback","","html-keyboard-response","548","518283","0.0-1.0-771.0-0.0","0","0","38887","","null","","","null","85","","","","","","","","","","","","","","","",""
"","time_out","","html-keyboard-response","549","520288","0.0-1.0-773.0-0.0","0","0","38887","","null","","","null","85","","","","","","","","","","","","","","","",""
"","ITI","","html-keyboard-response","550","521292","0.0-1.0-774.0","0","0","38887","","null","","","null","85","","","","","","","","","","","","","","","NaN",""
"","S1","","html-keyboard-response","551","521547","0.0-1.0-776.0","0","0","38887","","null","","","null","86","","","","","","","","","","","","","","","",""
"","ISI","","html-keyboard-response","552","522552","0.0-1.0-777.0","0","0","38887","","null","","","null","86","NaN","","","","","","","","","","","","","","",""
"","S2","","html-keyboard-response","553","522806","0.0-1.0-778.0","0","0","38887","","null","","","null","86","","NaN","","","","","","","","","","","","","",""
"","response","","html-keyboard-response","554","523469","0.0-1.0-779.0-0.0","0","0","38887","","660","","","75","86","","","2","86","training","adjacent","EF","5","6","L.jpg","M.jpg","1","1","1","",""
"","feedback","","html-keyboard-response","555","524474","0.0-1.0-780.0-0.0","0","0","38887","","null","","","null","86","","","","","","","","","","","","","","","",""
"","ITI","","html-keyboard-response","556","525480","0.0-1.0-783.0","0","0","38887","","null","","","null","86","","","","","","","","","","","","","","","NaN",""
"","S1","","html-keyboard-response","557","525734","0.0-1.0-785.0","0","0","38887","","null","","","null","87","","","","","","","","","","","","","","","",""
"","ISI","","html-keyboard-response","558","526738","0.0-1.0-786.0","0","0","38887","","null","","","null","87","NaN","","","","","","","","","","","","","","",""
"","S2","","html-keyboard-response","559","526991","0.0-1.0-787.0","0","0","38887","","null","","","null","87","","NaN","","","","","","","","","","","","","",""
"","response","","html-keyboard-response","560","527114","0.0-1.0-788.0-0.0","0","0","38887","","120","","","75","87","","","2","87","training","adjacent","DE","4","5","P.jpg","L.jpg","1","1","1","",""
"","feedback","","html-keyboard-response","561","528121","0.0-1.0-789.0-0.0","0","0","38887","","null","","","null","87","","","","","","","","","","","","","","","",""
"","ITI","","html-keyboard-response","562","529125","0.0-1.0-792.0","0","0","38887","","null","","","null","87","","","","","","","","","","","","","","","NaN",""
"","S1","","html-keyboard-response","563","529379","0.0-1.0-794.0","0","0","38887","","null","","","null","88","","","","","","","","","","","","","","","",""
"","ISI","","html-keyboard-response","564","530383","0.0-1.0-795.0","0","0","38887","","null","","","null","88","NaN","","","","","","","","","","","","","","",""
"","S2","","html-keyboard-response","565","530637","0.0-1.0-796.0","0","0","38887","","null","","","null","88","","NaN","","","","","","","","","","","","","",""
"","response","","html-keyboard-response","566","530956","0.0-1.0-797.0-0.0","0","0","38887","","315","","","68","88","","","2","88","training","adjacent","BC","2","3","N.jpg","R.jpg","0","1","0","",""
"","feedback","","html-keyboard-response","567","531962","0.0-1.0-798.0-0.0","0","0","38887","","null","","","null","88","","","","","","","","","","","","","","","",""
"","time_out","","html-keyboard-response","568","533967","0.0-1.0-800.0-0.0","0","0","38887","","null","","","null","88","","","","","","","","","","","","","","","",""
"","ITI","","html-keyboard-response","569","534978","0.0-1.0-801.0","0","0","38887","","null","","","null","88","","","","","","","","","","","","","","","NaN",""
"","S1","","html-keyboard-response","570","535233","0.0-1.0-803.0","0","0","38887","","null","","","null","89","","","","","","","","","","","","","","","",""
"","ISI","","html-keyboard-response","571","536237","0.0-1.0-804.0","0","0","38887","","null","","","null","89","NaN","","","","","","","","","","","","","","",""
"","S2","","html-keyboard-response","572","536493","0.0-1.0-805.0","0","0","38887","","null","","","null","89","","NaN","","","","","","","","","","","","","",""
"","response","","html-keyboard-response","573","537107","0.0-1.0-806.0-0.0","0","0","38887","","610","","","68","89","","","2","89","training","adjacent","CD","3","4","R.jpg","P.jpg","0","1","0","",""
"","feedback","","html-keyboard-response","574","538112","0.0-1.0-807.0-0.0","0","0","38887","","null","","","null","89","","","","","","","","","","","","","","","",""
"","time_out","","html-keyboard-response","575","540117","0.0-1.0-809.0-0.0","0","0","38887","","null","","","null","89","","","","","","","","","","","","","","","",""
"","ITI","","html-keyboard-response","576","541122","0.0-1.0-810.0","0","0","38887","","null","","","null","89","","","","","","","","","","","","","","","NaN",""
"","S1","","html-keyboard-response","577","541375","0.0-1.0-812.0","0","0","38887","","null","","","null","90","","","","","","","","","","","","","","","",""
"","ISI","","html-keyboard-response","578","542380","0.0-1.0-813.0","0","0","38887","","null","","","null","90","NaN","","","","","","","","","","","","","","",""
"","S2","","html-keyboard-response","579","542634","0.0-1.0-814.0","0","0","38887","","null","","","null","90","","NaN","","","","","","","","","","","","","",""
"","response","","html-keyboard-response","580","543006","0.0-1.0-815.0-0.0","0","0","38887","","369","","","75","90","","","2","90","training","adjacent","AB","1","2","Q.jpg","N.jpg","1","1","1","",""
"","feedback","","html-keyboard-response","581","544011","0.0-1.0-816.0-0.0","0","0","38887","","null","","","null","90","","","","","","","","","","","","","","","",""
"","ITI","","html-keyboard-response","582","545016","0.0-1.0-819.0","0","0","38887","","null","","","null","90","","","","","","","","","","","","","","","NaN",""
