"success","ttype","start_time","trial_type","trial_index","time_elapsed","internal_node_id","warning","missed_checkup","PID","view_history","rt","responses","repeat_instructions","key_press","index","keypress_isi","keypress_S2","block","trial_num","phase","group_type","pair_type","S1_stim","S2_stim","S1_img","S2_img","S1_chosen","S1_higher","accuracy","keypress_iti","total_bonus_tally"
"true","full_screen","d03082023hr1429","fullscreen","0","15318","0.0-0.0","0","0","93422","","","","","","","","","","","","","","","","","","","","","",""
"","instructions","","instructions","1","92856","0.0-1.0-0.0-0.0","0","0","93422","[{""page_index"":0,""viewing_time"":5388},{""page_index"":1,""viewing_time"":9280},{""page_index"":2,""viewing_time"":2330},{""page_index"":1,""viewing_time"":19567},{""page_index"":2,""viewing_time"":38621},{""page_index"":3,""viewing_time"":2350}]","77537","","","","","","","","","","","","","","","","","","","",""
"","comprehension_check","","survey-multi-choice","2","171425","0.0-1.0-0.0-1.0","0","0","93422","","78564","{""Q0"":""True"",""Q1"":""D"",""Q2"":""Once the second image appears and while the screen 'MAKE A CHOICE' is shown"",""Q3"":""Green mark"",""Q4"":""either D or K""}","0","","","","","","","","","","","","","","","","","",""
"","start_exp","","html-keyboard-response","3","177289","0.0-1.0-1.0","0","0","93422","","5860","","","32","","","","","","","","","","","","","","","","",""
"","S1","","html-keyboard-response","4","177546","0.0-1.0-2.0","0","0","93422","","null","","","null","0","","","","","","","","","","","","","","","",""
"","ISI","","html-keyboard-response","5","177706","0.0-1.0-3.0","0","0","93422","","null","","","null","0","NaN","","","","","","","","","","","","","","",""
"","S2","","html-keyboard-response","6","177961","0.0-1.0-4.0","0","0","93422","","null","","","null","0","","NaN","","","","","","","","","","","","","",""
"","response","","html-keyboard-response","7","178866","0.0-1.0-5.0-0.0","0","0","93422","","904","","","68","0","","","1","0","training","adjacent","CD","3","4","L.jpg","O.jpg","1","1","1","",""
"","feedback","","html-keyboard-response","8","179882","0.0-1.0-6.0-0.0","0","0","93422","","null","","","null","0","","","","","","","","","","","","","","","",""
"","ITI","","html-keyboard-response","9","180892","0.0-1.0-9.0","0","0","93422","","null","","","null","0","","","","","","","","","","","","","","","NaN",""
"","S1","","html-keyboard-response","10","181153","0.0-1.0-11.0","0","0","93422","","null","","","null","1","","","","","","","","","","","","","","","",""
"","ISI","","html-keyboard-response","11","181306","0.0-1.0-12.0","0","0","93422","","null","","","null","1","NaN","","","","","","","","","","","","","","",""
"","S2","","html-keyboard-response","12","181562","0.0-1.0-13.0","0","0","93422","","null","","","null","1","","NaN","","","","","","","","","","","","","",""
"","response","","html-keyboard-response","13","181880","0.0-1.0-14.0-0.0","0","0","93422","","317","","","68","1","","","1","1","training","adjacent","DC","4","3","O.jpg","L.jpg","1","0","0","",""
"","feedback","","html-keyboard-response","14","182884","0.0-1.0-15.0-0.0","0","0","93422","","null","","","null","1","","","","","","","","","","","","","","","",""
"","time_out","","html-keyboard-response","15","184887","0.0-1.0-17.0-0.0","0","0","93422","","null","","","null","1","","","","","","","","","","","","","","","",""
"","ITI","","html-keyboard-response","16","185892","0.0-1.0-18.0","0","0","93422","","null","","","null","1","","","","","","","","","","","","","","","NaN",""
"","S1","","html-keyboard-response","17","186153","0.0-1.0-20.0","0","0","93422","","null","","","null","2","","","","","","","","","","","","","","","",""
"","ISI","","html-keyboard-response","18","186310","0.0-1.0-21.0","0","0","93422","","null","","","null","2","NaN","","","","","","","","","","","","","","",""
"","S2","","html-keyboard-response","19","186564","0.0-1.0-22.0","0","0","93422","","null","","","null","2","","NaN","","","","","","","","","","","","","",""
"","response","","html-keyboard-response","20","186977","0.0-1.0-23.0-0.0","0","0","93422","","411","","","75","2","","","1","2","training","adjacent","GF","7","6","N.jpg","R.jpg","0","0","1","",""
"","feedback","","html-keyboard-response","21","187989","0.0-1.0-24.0-0.0","0","0","93422","","null","","","null","2","","","","","","","","","","","","","","","",""
"","ITI","","html-keyboard-response","22","188997","0.0-1.0-27.0","0","0","93422","","null","","","null","2","","","","","","","","","","","","","","","NaN",""
"","S1","","html-keyboard-response","23","189252","0.0-1.0-29.0","0","0","93422","","null","","","null","3","","","","","","","","","","","","","","","",""
"","ISI","","html-keyboard-response","24","189409","0.0-1.0-30.0","0","0","93422","","null","","","null","3","NaN","","","","","","","","","","","","","","",""
"","S2","","html-keyboard-response","25","189666","0.0-1.0-31.0","0","0","93422","","null","","","null","3","","NaN","","","","","","","","","","","","","",""
"","response","","html-keyboard-response","26","190144","0.0-1.0-32.0-0.0","0","0","93422","","476","","","68","3","","","1","3","training","adjacent","CB","3","2","L.jpg","Q.jpg","1","0","0","",""
"","feedback","","html-keyboard-response","27","191161","0.0-1.0-33.0-0.0","0","0","93422","","null","","","null","3","","","","","","","","","","","","","","","",""
"","time_out","","html-keyboard-response","28","193163","0.0-1.0-35.0-0.0","0","0","93422","","null","","","null","3","","","","","","","","","","","","","","","",""
"","ITI","","html-keyboard-response","29","194169","0.0-1.0-36.0","0","0","93422","","null","","","null","3","","","","","","","","","","","","","","","NaN",""
"","S1","","html-keyboard-response","30","194430","0.0-1.0-38.0","0","0","93422","","null","","","null","4","","","","","","","","","","","","","","","",""
"","ISI","","html-keyboard-response","31","194586","0.0-1.0-39.0","0","0","93422","","null","","","null","4","NaN","","","","","","","","","","","","","","",""
"","S2","","html-keyboard-response","32","194841","0.0-1.0-40.0","0","0","93422","","null","","","null","4","","NaN","","","","","","","","","","","","","",""
"","response","","html-keyboard-response","33","195234","0.0-1.0-41.0-0.0","0","0","93422","","392","","","75","4","","","1","4","training","adjacent","CB","3","2","L.jpg","Q.jpg","0","0","1","",""
"","feedback","","html-keyboard-response","34","196241","0.0-1.0-42.0-0.0","0","0","93422","","null","","","null","4","","","","","","","","","","","","","","","",""
"","ITI","","html-keyboard-response","35","197258","0.0-1.0-45.0","0","0","93422","","null","","","null","4","","","","","","","","","","","","","","","NaN",""
"","S1","","html-keyboard-response","36","197516","0.0-1.0-47.0","0","0","93422","","null","","","null","5","","","","","","","","","","","","","","","",""
"","ISI","","html-keyboard-response","37","197673","0.0-1.0-48.0","0","0","93422","","null","","","null","5","NaN","","","","","","","","","","","","","","",""
"","S2","","html-keyboard-response","38","197930","0.0-1.0-49.0","0","0","93422","","null","","","null","5","","NaN","","","","","","","","","","","","","",""
"","response","","html-keyboard-response","39","198526","0.0-1.0-50.0-0.0","0","0","93422","","594","","","68","5","","","1","5","training","adjacent","CD","3","4","L.jpg","O.jpg","1","1","1","",""
"","feedback","","html-keyboard-response","40","199537","0.0-1.0-51.0-0.0","0","0","93422","","null","","","null","5","","","","","","","","","","","","","","","",""
"","ITI","","html-keyboard-response","41","200545","0.0-1.0-54.0","0","0","93422","","null","","","null","5","","","","","","","","","","","","","","","NaN",""
"","S1","","html-keyboard-response","42","200801","0.0-1.0-56.0","0","0","93422","","null","","","null","6","","","","","","","","","","","","","","","",""
"","ISI","","html-keyboard-response","43","200953","0.0-1.0-57.0","0","0","93422","","null","","","null","6","NaN","","","","","","","","","","","","","","",""
"","S2","","html-keyboard-response","44","201212","0.0-1.0-58.0","0","0","93422","","null","","","null","6","","NaN","","","","","","","","","","","","","",""
"","response","","html-keyboard-response","45","201528","0.0-1.0-59.0-0.0","0","0","93422","","314","","","75","6","","","1","6","training","adjacent","DC","4","3","O.jpg","L.jpg","0","0","1","",""
"","feedback","","html-keyboard-response","46","202535","0.0-1.0-60.0-0.0","0","0","93422","","null","","","null","6","","","","","","","","","","","","","","","",""
"","ITI","","html-keyboard-response","47","203543","0.0-1.0-63.0","0","0","93422","","null","","","null","6","","","","","","","","","","","","","","","NaN",""
"","S1","","html-keyboard-response","48","203799","0.0-1.0-65.0","0","0","93422","","null","","","null","7","","","","","","","","","","","","","","","",""
"","ISI","","html-keyboard-response","49","203957","0.0-1.0-66.0","0","0","93422","","null","","","null","7","NaN","","","","","","","","","","","","","","",""
"","S2","","html-keyboard-response","50","204216","0.0-1.0-67.0","0","0","93422","","null","","","null","7","","NaN","","","","","","","","","","","","","",""
"","response","","html-keyboard-response","51","204894","0.0-1.0-68.0-0.0","0","0","93422","","677","","","75","7","","","1","7","training","adjacent","DC","4","3","O.jpg","L.jpg","0","0","1","",""
"","feedback","","html-keyboard-response","52","205902","0.0-1.0-69.0-0.0","0","0","93422","","null","","","null","7","","","","","","","","","","","","","","","",""
"","ITI","","html-keyboard-response","53","206910","0.0-1.0-72.0","0","0","93422","","null","","","null","7","","","","","","","","","","","","","","","NaN",""
"","S1","","html-keyboard-response","54","207166","0.0-1.0-74.0","0","0","93422","","null","","","null","8","","","","","","","","","","","","","","","",""
"","ISI","","html-keyboard-response","55","207320","0.0-1.0-75.0","0","0","93422","","null","","","null","8","NaN","","","","","","","","","","","","","","",""
"","S2","","html-keyboard-response","56","207576","0.0-1.0-76.0","0","0","93422","","null","","","null","8","","NaN","","","","","","","","","","","","","",""
"","response","","html-keyboard-response","57","207916","0.0-1.0-77.0-0.0","0","0","93422","","338","","","75","8","","","1","8","training","adjacent","FG","6","7","R.jpg","N.jpg","0","1","0","",""
"","feedback","","html-keyboard-response","58","208926","0.0-1.0-78.0-0.0","0","0","93422","","null","","","null","8","","","","","","","","","","","","","","","",""
"","time_out","","html-keyboard-response","59","210931","0.0-1.0-80.0-0.0","0","0","93422","","null","","","null","8","","","","","","","","","","","","","","","",""
"","ITI","","html-keyboard-response","60","211937","0.0-1.0-81.0","0","0","93422","","null","","","null","8","","","","","","","","","","","","","","","NaN",""
"","S1","","html-keyboard-response","61","212196","0.0-1.0-83.0","0","0","93422","","null","","","null","9","","","","","","","","","","","","","","","",""
"","ISI","","html-keyboard-response","62","212355","0.0-1.0-84.0","0","0","93422","","null","","","null","9","NaN","","","","","","","","","","","","","","",""
"","S2","","html-keyboard-response","63","212608","0.0-1.0-85.0","0","0","93422","","null","","","null","9","","NaN","","","","","","","","","","","","","",""
"","response","","html-keyboard-response","64","213060","0.0-1.0-86.0-0.0","0","0","93422","","451","","","68","9","","","1","9","training","adjacent","DE","4","5","O.jpg","M.jpg","1","1","1","",""
"","feedback","","html-keyboard-response","65","214064","0.0-1.0-87.0-0.0","0","0","93422","","null","","","null","9","","","","","","","","","","","","","","","",""
"","ITI","","html-keyboard-response","66","215072","0.0-1.0-90.0","0","0","93422","","null","","","null","9","","","","","","","","","","","","","","","NaN",""
"","S1","","html-keyboard-response","67","215337","0.0-1.0-92.0","0","0","93422","","null","","","null","10","","","","","","","","","","","","","","","",""
"","ISI","","html-keyboard-response","68","215496","0.0-1.0-93.0","0","0","93422","","null","","","null","10","NaN","","","","","","","","","","","","","","",""
"","S2","","html-keyboard-response","69","215753","0.0-1.0-94.0","0","0","93422","","null","","","null","10","","NaN","","","","","","","","","","","","","",""
"","response","","html-keyboard-response","70","216120","0.0-1.0-95.0-0.0","0","0","93422","","364","","","68","10","","","1","10","training","adjacent","FG","6","7","R.jpg","N.jpg","1","1","1","",""
"","feedback","","html-keyboard-response","71","217123","0.0-1.0-96.0-0.0","0","0","93422","","null","","","null","10","","","","","","","","","","","","","","","",""
"","ITI","","html-keyboard-response","72","218139","0.0-1.0-99.0","0","0","93422","","null","","","null","10","","","","","","","","","","","","","","","NaN",""
"","S1","","html-keyboard-response","73","218396","0.0-1.0-101.0","0","0","93422","","null","","","null","11","","","","","","","","","","","","","","","",""
"","ISI","","html-keyboard-response","74","218552","0.0-1.0-102.0","0","0","93422","","null","","","null","11","NaN","","","","","","","","","","","","","","",""
"","S2","","html-keyboard-response","75","218810","0.0-1.0-103.0","0","0","93422","","null","","","null","11","","NaN","","","","","","","","","","","","","",""
"","response","","html-keyboard-response","76","219197","0.0-1.0-104.0-0.0","0","0","93422","","385","","","68","11","","","1","11","training","adjacent","BC","2","3","Q.jpg","L.jpg","1","1","1","",""
"","feedback","","html-keyboard-response","77","220207","0.0-1.0-105.0-0.0","0","0","93422","","null","","","null","11","","","","","","","","","","","","","","","",""
"","ITI","","html-keyboard-response","78","221212","0.0-1.0-108.0","0","0","93422","","null","","","null","11","","","","","","","","","","","","","","","NaN",""
"","S1","","html-keyboard-response","79","221476","0.0-1.0-110.0","0","0","93422","","null","","","null","12","","","","","","","","","","","","","","","",""
"","ISI","","html-keyboard-response","80","221636","0.0-1.0-111.0","0","0","93422","","null","","","null","12","NaN","","","","","","","","","","","","","","",""
"","S2","","html-keyboard-response","81","221890","0.0-1.0-112.0","0","0","93422","","null","","","null","12","","NaN","","","","","","","","","","","","","",""
"","response","","html-keyboard-response","82","222372","0.0-1.0-113.0-0.0","0","0","93422","","481","","","68","12","","","1","12","training","adjacent","DE","4","5","O.jpg","M.jpg","1","1","1","",""
"","feedback","","html-keyboard-response","83","223377","0.0-1.0-114.0-0.0","0","0","93422","","null","","","null","12","","","","","","","","","","","","","","","",""
"","ITI","","html-keyboard-response","84","224387","0.0-1.0-117.0","0","0","93422","","null","","","null","12","","","","","","","","","","","","","","","NaN",""
"","S1","","html-keyboard-response","85","224642","0.0-1.0-119.0","0","0","93422","","null","","","null","13","","","","","","","","","","","","","","","",""
"","ISI","","html-keyboard-response","86","224796","0.0-1.0-120.0","0","0","93422","","null","","","null","13","NaN","","","","","","","","","","","","","","",""
"","S2","","html-keyboard-response","87","225056","0.0-1.0-121.0","0","0","93422","","null","","","null","13","","NaN","","","","","","","","","","","","","",""
"","response","","html-keyboard-response","88","225156","0.0-1.0-122.0-0.0","0","0","93422","","99","","","75","13","","","1","13","training","adjacent","BA","2","1","Q.jpg","P.jpg","0","0","1","",""
"","feedback","","html-keyboard-response","89","226160","0.0-1.0-123.0-0.0","0","0","93422","","null","","","null","13","","","","","","","","","","","","","","","",""
"","ITI","","html-keyboard-response","90","227168","0.0-1.0-126.0","0","0","93422","","null","","","null","13","","","","","","","","","","","","","","","NaN",""
"","S1","","html-keyboard-response","91","227422","0.0-1.0-128.0","0","0","93422","","null","","","null","14","","","","","","","","","","","","","","","",""
"","ISI","","html-keyboard-response","92","227583","0.0-1.0-129.0","0","0","93422","","null","","","null","14","NaN","","","","","","","","","","","","","","",""
"","S2","","html-keyboard-response","93","227838","0.0-1.0-130.0","0","0","93422","","null","","","null","14","","NaN","","","","","","","","","","","","","",""
"","response","","html-keyboard-response","94","228306","0.0-1.0-131.0-0.0","0","0","93422","","466","","","75","14","","","1","14","training","adjacent","BA","2","1","Q.jpg","P.jpg","0","0","1","",""
"","feedback","","html-keyboard-response","95","229315","0.0-1.0-132.0-0.0","0","0","93422","","null","","","null","14","","","","","","","","","","","","","","","",""
"","ITI","","html-keyboard-response","96","230323","0.0-1.0-135.0","0","0","93422","","null","","","null","14","","","","","","","","","","","","","","","NaN",""
"","S1","","html-keyboard-response","97","230582","0.0-1.0-137.0","0","0","93422","","null","","","null","15","","","","","","","","","","","","","","","",""
"","ISI","","html-keyboard-response","98","230734","0.0-1.0-138.0","0","0","93422","","null","","","null","15","NaN","","","","","","","","","","","","","","",""
"","S2","","html-keyboard-response","99","230989","0.0-1.0-139.0","0","0","93422","","null","","","null","15","","NaN","","","","","","","","","","","","","",""
"","response","","html-keyboard-response","100","231727","0.0-1.0-140.0-0.0","0","0","93422","","737","","","68","15","","","1","15","training","adjacent","EF","5","6","M.jpg","R.jpg","1","1","1","",""
"","feedback","","html-keyboard-response","101","232738","0.0-1.0-141.0-0.0","0","0","93422","","null","","","null","15","","","","","","","","","","","","","","","",""
"","ITI","","html-keyboard-response","102","233757","0.0-1.0-144.0","0","0","93422","","null","","","null","15","","","","","","","","","","","","","","","NaN",""
"","S1","","html-keyboard-response","103","234019","0.0-1.0-146.0","0","0","93422","","null","","","null","16","","","","","","","","","","","","","","","",""
"","ISI","","html-keyboard-response","104","234172","0.0-1.0-147.0","0","0","93422","","null","","","null","16","NaN","","","","","","","","","","","","","","",""
"","S2","","html-keyboard-response","105","234427","0.0-1.0-148.0","0","0","93422","","null","","","null","16","","NaN","","","","","","","","","","","","","",""
"","response","","html-keyboard-response","106","234823","0.0-1.0-149.0-0.0","0","0","93422","","395","","","75","16","","","1","16","training","adjacent","ED","5","4","M.jpg","O.jpg","0","0","1","",""
"","feedback","","html-keyboard-response","107","235826","0.0-1.0-150.0-0.0","0","0","93422","","null","","","null","16","","","","","","","","","","","","","","","",""
"","ITI","","html-keyboard-response","108","236830","0.0-1.0-153.0","0","0","93422","","null","","","null","16","","","","","","","","","","","","","","","NaN",""
"","S1","","html-keyboard-response","109","237087","0.0-1.0-155.0","0","0","93422","","null","","","null","17","","","","","","","","","","","","","","","",""
"","ISI","","html-keyboard-response","110","237239","0.0-1.0-156.0","0","0","93422","","null","","","null","17","NaN","","","","","","","","","","","","","","",""
"","S2","","html-keyboard-response","111","237493","0.0-1.0-157.0","0","0","93422","","null","","","null","17","","NaN","","","","","","","","","","","","","",""
"","response","","html-keyboard-response","112","237622","0.0-1.0-158.0-0.0","0","0","93422","","127","","","75","17","","","1","17","training","adjacent","AB","1","2","P.jpg","Q.jpg","0","1","0","",""
"","feedback","","html-keyboard-response","113","238630","0.0-1.0-159.0-0.0","0","0","93422","","null","","","null","17","","","","","","","","","","","","","","","",""
"","time_out","","html-keyboard-response","114","240635","0.0-1.0-161.0-0.0","0","0","93422","","null","","","null","17","","","","","","","","","","","","","","","",""
"","ITI","","html-keyboard-response","115","241642","0.0-1.0-162.0","0","0","93422","","null","","","null","17","","","","","","","","","","","","","","","NaN",""
"","S1","","html-keyboard-response","116","241904","0.0-1.0-164.0","0","0","93422","","null","","","null","18","","","","","","","","","","","","","","","",""
"","ISI","","html-keyboard-response","117","242057","0.0-1.0-165.0","0","0","93422","","null","","","null","18","NaN","","","","","","","","","","","","","","",""
"","S2","","html-keyboard-response","118","242318","0.0-1.0-166.0","0","0","93422","","null","","","null","18","","NaN","","","","","","","","","","","","","",""
"","response","","html-keyboard-response","119","242611","0.0-1.0-167.0-0.0","0","0","93422","","292","","","75","18","","","1","18","training","adjacent","BC","2","3","Q.jpg","L.jpg","0","1","0","",""
"","feedback","","html-keyboard-response","120","243615","0.0-1.0-168.0-0.0","0","0","93422","","null","","","null","18","","","","","","","","","","","","","","","",""
"","time_out","","html-keyboard-response","121","245622","0.0-1.0-170.0-0.0","0","0","93422","","null","","","null","18","","","","","","","","","","","","","","","",""
"","ITI","","html-keyboard-response","122","246638","0.0-1.0-171.0","0","0","93422","","null","","","null","18","","","","","","","","","","","","","","","NaN",""
"","S1","","html-keyboard-response","123","246894","0.0-1.0-173.0","0","0","93422","","null","","","null","19","","","","","","","","","","","","","","","",""
"","ISI","","html-keyboard-response","124","247053","0.0-1.0-174.0","0","0","93422","","null","","","null","19","NaN","","","","","","","","","","","","","","",""
"","S2","","html-keyboard-response","125","247305","0.0-1.0-175.0","0","0","93422","","null","","","null","19","","NaN","","","","","","","","","","","","","",""
"","response","","html-keyboard-response","126","249057","0.0-1.0-176.0-0.0","0","0","93422","","null","","","null","19","","","1","19","training","adjacent","FE","6","5","R.jpg","M.jpg","NaN","0","0","",""
"","too_slow_prompt","","html-keyboard-response","127","250063","0.0-1.0-178.0-0.0","1","0","93422","","null","","","null","","","","","","","","","","","","","","","","",""
"","time_out","","html-keyboard-response","128","252072","0.0-1.0-179.0-0.0","0","0","93422","","null","","","null","19","","","","","","","","","","","","","","","",""
"","ITI","","html-keyboard-response","129","253077","0.0-1.0-180.0","0","0","93422","","null","","","null","19","","","","","","","","","","","","","","","NaN",""
"","S1","","html-keyboard-response","130","253336","0.0-1.0-182.0","0","0","93422","","null","","","null","20","","","","","","","","","","","","","","","",""
"","ISI","","html-keyboard-response","131","253489","0.0-1.0-183.0","0","0","93422","","null","","","null","20","NaN","","","","","","","","","","","","","","",""
"","S2","","html-keyboard-response","132","253686","0.0-1.0-184.0","0","0","93422","","195","","","75","20","","k","1","20","training","adjacent","GF","7","6","N.jpg","R.jpg","0","0","1","",""
"","feedback","","html-keyboard-response","133","254703","0.0-1.0-186.0-0.0","0","0","93422","","null","","","null","20","","","","","","","","","","","","","","","",""
"","ITI","","html-keyboard-response","134","255710","0.0-1.0-189.0","0","0","93422","","null","","","null","20","","","","","","","","","","","","","","","NaN",""
"","S1","","html-keyboard-response","135","255966","0.0-1.0-191.0","0","0","93422","","null","","","null","21","","","","","","","","","","","","","","","",""
"","ISI","","html-keyboard-response","136","256133","0.0-1.0-192.0","0","0","93422","","null","","","null","21","NaN","","","","","","","","","","","","","","",""
"","S2","","html-keyboard-response","137","256384","0.0-1.0-193.0","0","0","93422","","249","","","75","21","","k","1","21","training","adjacent","FE","6","5","R.jpg","M.jpg","0","0","1","",""
"","feedback","","html-keyboard-response","138","257403","0.0-1.0-195.0-0.0","0","0","93422","","null","","","null","21","","","","","","","","","","","","","","","",""
"","ITI","","html-keyboard-response","139","258412","0.0-1.0-198.0","0","0","93422","","null","","","null","21","","","","","","","","","","","","","","","NaN",""
"","S1","","html-keyboard-response","140","258677","0.0-1.0-200.0","0","0","93422","","null","","","null","22","","","","","","","","","","","","","","","",""
"","ISI","","html-keyboard-response","141","258837","0.0-1.0-201.0","0","0","93422","","null","","","null","22","NaN","","","","","","","","","","","","","","",""
"","S2","","html-keyboard-response","142","259057","0.0-1.0-202.0","0","0","93422","","218","","","75","22","","k","1","22","training","adjacent","GF","7","6","N.jpg","R.jpg","0","0","1","",""
"","feedback","","html-keyboard-response","143","260065","0.0-1.0-204.0-0.0","0","0","93422","","null","","","null","22","","","","","","","","","","","","","","","",""
"","ITI","","html-keyboard-response","144","261072","0.0-1.0-207.0","0","0","93422","","null","","","null","22","","","","","","","","","","","","","","","NaN",""
"","S1","","html-keyboard-response","145","261328","0.0-1.0-209.0","0","0","93422","","null","","","null","23","","","","","","","","","","","","","","","",""
"","ISI","","html-keyboard-response","146","261489","0.0-1.0-210.0","0","0","93422","","null","","","null","23","NaN","","","","","","","","","","","","","","",""
"","S2","","html-keyboard-response","147","261744","0.0-1.0-211.0","0","0","93422","","null","","","null","23","","NaN","","","","","","","","","","","","","",""
"","response","","html-keyboard-response","148","261745","0.0-1.0-212.0-0.0","0","0","93422","","0","","","75","23","","","1","23","training","adjacent","AB","1","2","P.jpg","Q.jpg","0","1","0","",""
"","feedback","","html-keyboard-response","149","262756","0.0-1.0-213.0-0.0","0","0","93422","","null","","","null","23","","","","","","","","","","","","","","","",""
"","time_out","","html-keyboard-response","150","264761","0.0-1.0-215.0-0.0","0","0","93422","","null","","","null","23","","","","","","","","","","","","","","","",""
"","ITI","","html-keyboard-response","151","265770","0.0-1.0-216.0","0","0","93422","","null","","","null","23","","","","","","","","","","","","","","","NaN",""
"","S1","","html-keyboard-response","152","266028","0.0-1.0-218.0","0","0","93422","","null","","","null","24","","","","","","","","","","","","","","","",""
"","ISI","","html-keyboard-response","153","266186","0.0-1.0-219.0","0","0","93422","","null","","","null","24","NaN","","","","","","","","","","","","","","",""
"","S2","","html-keyboard-response","154","266446","0.0-1.0-220.0","0","0","93422","","null","","","null","24","","NaN","","","","","","","","","","","","","",""
"","response","","html-keyboard-response","155","266735","0.0-1.0-221.0-0.0","0","0","93422","","288","","","75","24","","","1","24","training","adjacent","EF","5","6","M.jpg","R.jpg","0","1","0","",""
"","feedback","","html-keyboard-response","156","267740","0.0-1.0-222.0-0.0","0","0","93422","","null","","","null","24","","","","","","","","","","","","","","","",""
"","time_out","","html-keyboard-response","157","269744","0.0-1.0-224.0-0.0","0","0","93422","","null","","","null","24","","","","","","","","","","","","","","","",""
"","ITI","","html-keyboard-response","158","270752","0.0-1.0-225.0","0","0","93422","","null","","","null","24","","","","","","","","","","","","","","","NaN",""
"","S1","","html-keyboard-response","159","271017","0.0-1.0-227.0","0","0","93422","","null","","","null","25","","","","","","","","","","","","","","","",""
"","ISI","","html-keyboard-response","160","271175","0.0-1.0-228.0","0","0","93422","","null","","","null","25","NaN","","","","","","","","","","","","","","",""
"","S2","","html-keyboard-response","161","271425","0.0-1.0-229.0","0","0","93422","","248","","","75","25","","k","1","25","training","adjacent","AB","1","2","P.jpg","Q.jpg","0","1","0","",""
"","feedback","","html-keyboard-response","162","272430","0.0-1.0-231.0-0.0","0","0","93422","","null","","","null","25","","","","","","","","","","","","","","","",""
"","time_out","","html-keyboard-response","163","274437","0.0-1.0-233.0-0.0","0","0","93422","","null","","","null","25","","","","","","","","","","","","","","","",""
"","ITI","","html-keyboard-response","164","275439","0.0-1.0-234.0","0","0","93422","","null","","","null","25","","","","","","","","","","","","","","","NaN",""
"","S1","","html-keyboard-response","165","275693","0.0-1.0-236.0","0","0","93422","","null","","","null","26","","","","","","","","","","","","","","","",""
"","ISI","","html-keyboard-response","166","275847","0.0-1.0-237.0","0","0","93422","","null","","","null","26","NaN","","","","","","","","","","","","","","",""
"","S2","","html-keyboard-response","167","276098","0.0-1.0-238.0","0","0","93422","","250","","","68","26","","d","1","26","training","adjacent","FG","6","7","R.jpg","N.jpg","1","1","1","",""
"","feedback","","html-keyboard-response","168","277101","0.0-1.0-240.0-0.0","0","0","93422","","null","","","null","26","","","","","","","","","","","","","","","",""
"","ITI","","html-keyboard-response","169","278105","0.0-1.0-243.0","0","0","93422","","null","","","null","26","","","","","","","","","","","","","","","NaN",""
"","S1","","html-keyboard-response","170","278364","0.0-1.0-245.0","0","0","93422","","null","","","null","27","","","","","","","","","","","","","","","",""
"","ISI","","html-keyboard-response","171","278523","0.0-1.0-246.0","0","0","93422","","null","","","null","27","NaN","","","","","","","","","","","","","","",""
"","S2","","html-keyboard-response","172","278744","0.0-1.0-247.0","0","0","93422","","220","","","68","27","","d","1","27","training","adjacent","CD","3","4","L.jpg","O.jpg","1","1","1","",""
"","feedback","","html-keyboard-response","173","279754","0.0-1.0-249.0-0.0","0","0","93422","","null","","","null","27","","","","","","","","","","","","","","","",""
"","ITI","","html-keyboard-response","174","280760","0.0-1.0-252.0","0","0","93422","","null","","","null","27","","","","","","","","","","","","","","","NaN",""
"","S1","","html-keyboard-response","175","281014","0.0-1.0-254.0","0","0","93422","","null","","","null","28","","","","","","","","","","","","","","","",""
"","ISI","","html-keyboard-response","176","281173","0.0-1.0-255.0","0","0","93422","","null","","","null","28","NaN","","","","","","","","","","","","","","",""
"","S2","","html-keyboard-response","177","281426","0.0-1.0-256.0","0","0","93422","","null","","","null","28","","NaN","","","","","","","","","","","","","",""
"","response","","html-keyboard-response","178","281569","0.0-1.0-257.0-0.0","0","0","93422","","141","","","75","28","","","1","28","training","adjacent","ED","5","4","M.jpg","O.jpg","0","0","1","",""
"","feedback","","html-keyboard-response","179","282583","0.0-1.0-258.0-0.0","0","0","93422","","null","","","null","28","","","","","","","","","","","","","","","",""
"","ITI","","html-keyboard-response","180","283597","0.0-1.0-261.0","0","0","93422","","null","","","null","28","","","","","","","","","","","","","","","NaN",""
"","S1","","html-keyboard-response","181","283856","0.0-1.0-263.0","0","0","93422","","null","","","null","29","","","","","","","","","","","","","","","",""
"","ISI","","html-keyboard-response","182","284016","0.0-1.0-264.0","0","0","93422","","null","","","null","29","NaN","","","","","","","","","","","","","","",""
"","S2","","html-keyboard-response","183","284271","0.0-1.0-265.0","0","0","93422","","null","","","null","29","","NaN","","","","","","","","","","","","","",""
"","response","","html-keyboard-response","184","284476","0.0-1.0-266.0-0.0","0","0","93422","","203","","","68","29","","","1","29","training","adjacent","FG","6","7","R.jpg","N.jpg","1","1","1","",""
"","feedback","","html-keyboard-response","185","285484","0.0-1.0-267.0-0.0","0","0","93422","","null","","","null","29","","","","","","","","","","","","","","","",""
"","ITI","","html-keyboard-response","186","286486","0.0-1.0-270.0","0","0","93422","","null","","","null","29","","","","","","","","","","","","","","","NaN",""
"","S1","","html-keyboard-response","187","286741","0.0-1.0-272.0","0","0","93422","","null","","","null","30","","","","","","","","","","","","","","","",""
"","ISI","","html-keyboard-response","188","286896","0.0-1.0-273.0","0","0","93422","","null","","","null","30","NaN","","","","","","","","","","","","","","",""
"","S2","","html-keyboard-response","189","287159","0.0-1.0-274.0","0","0","93422","","null","","","null","30","","NaN","","","","","","","","","","","","","",""
"","response","","html-keyboard-response","190","287343","0.0-1.0-275.0-0.0","0","0","93422","","183","","","68","30","","","1","30","training","adjacent","DE","4","5","O.jpg","M.jpg","1","1","1","",""
"","feedback","","html-keyboard-response","191","288353","0.0-1.0-276.0-0.0","0","0","93422","","null","","","null","30","","","","","","","","","","","","","","","",""
"","ITI","","html-keyboard-response","192","289363","0.0-1.0-279.0","0","0","93422","","null","","","null","30","","","","","","","","","","","","","","","NaN",""
"","S1","","html-keyboard-response","193","289622","0.0-1.0-281.0","0","0","93422","","null","","","null","31","","","","","","","","","","","","","","","",""
"","ISI","","html-keyboard-response","194","289781","0.0-1.0-282.0","0","0","93422","","null","","","null","31","NaN","","","","","","","","","","","","","","",""
"","S2","","html-keyboard-response","195","290037","0.0-1.0-283.0","0","0","93422","","null","","","null","31","","NaN","","","","","","","","","","","","","",""
"","response","","html-keyboard-response","196","290355","0.0-1.0-284.0-0.0","0","0","93422","","315","","","75","31","","","1","31","training","adjacent","CD","3","4","L.jpg","O.jpg","0","1","0","",""
"","feedback","","html-keyboard-response","197","291361","0.0-1.0-285.0-0.0","0","0","93422","","null","","","null","31","","","","","","","","","","","","","","","",""
"","time_out","","html-keyboard-response","198","293365","0.0-1.0-287.0-0.0","0","0","93422","","null","","","null","31","","","","","","","","","","","","","","","",""
"","ITI","","html-keyboard-response","199","294380","0.0-1.0-288.0","0","0","93422","","null","","","null","31","","","","","","","","","","","","","","","NaN",""
"","S1","","html-keyboard-response","200","294632","0.0-1.0-290.0","0","0","93422","","null","","","null","32","","","","","","","","","","","","","","","",""
"","ISI","","html-keyboard-response","201","294784","0.0-1.0-291.0","0","0","93422","","null","","","null","32","NaN","","","","","","","","","","","","","","",""
"","S2","","html-keyboard-response","202","295038","0.0-1.0-292.0","0","0","93422","","null","","","null","32","","NaN","","","","","","","","","","","","","",""
"","response","","html-keyboard-response","203","296796","0.0-1.0-293.0-0.0","0","0","93422","","null","","","null","32","","","1","32","training","adjacent","EF","5","6","M.jpg","R.jpg","NaN","1","0","",""
"","too_slow_prompt","","html-keyboard-response","204","297810","0.0-1.0-295.0-0.0","1","0","93422","","null","","","null","","","","","","","","","","","","","","","","",""
"","time_out","","html-keyboard-response","205","299821","0.0-1.0-296.0-0.0","0","0","93422","","null","","","null","32","","","","","","","","","","","","","","","",""
"","ITI","","html-keyboard-response","206","300824","0.0-1.0-297.0","0","0","93422","","null","","","null","32","","","","","","","","","","","","","","","NaN",""
"","S1","","html-keyboard-response","207","301087","0.0-1.0-299.0","0","0","93422","","null","","","null","33","","","","","","","","","","","","","","","",""
"","ISI","","html-keyboard-response","208","301247","0.0-1.0-300.0","0","0","93422","","null","","","null","33","NaN","","","","","","","","","","","","","","",""
"","S2","","html-keyboard-response","209","301391","0.0-1.0-301.0","0","0","93422","","143","","","75","33","","k","1","33","training","adjacent","BA","2","1","Q.jpg","P.jpg","0","0","1","",""
"","feedback","","html-keyboard-response","210","302395","0.0-1.0-303.0-0.0","0","0","93422","","null","","","null","33","","","","","","","","","","","","","","","",""
"","ITI","","html-keyboard-response","211","303405","0.0-1.0-306.0","0","0","93422","","null","","","null","33","","","","","","","","","","","","","","","NaN",""
"","S1","","html-keyboard-response","212","303660","0.0-1.0-308.0","0","0","93422","","null","","","null","34","","","","","","","","","","","","","","","",""
"","ISI","","html-keyboard-response","213","303821","0.0-1.0-309.0","0","0","93422","","null","","","null","34","NaN","","","","","","","","","","","","","","",""
"","S2","","html-keyboard-response","214","304056","0.0-1.0-310.0","0","0","93422","","234","","","75","34","","k","1","34","training","adjacent","ED","5","4","M.jpg","O.jpg","0","0","1","",""
"","feedback","","html-keyboard-response","215","305065","0.0-1.0-312.0-0.0","0","0","93422","","null","","","null","34","","","","","","","","","","","","","","","",""
"","ITI","","html-keyboard-response","216","306067","0.0-1.0-315.0","0","0","93422","","null","","","null","34","","","","","","","","","","","","","","","NaN",""
"","S1","","html-keyboard-response","217","306323","0.0-1.0-317.0","0","0","93422","","null","","","null","35","","","","","","","","","","","","","","","",""
"","ISI","","html-keyboard-response","218","306477","0.0-1.0-318.0","0","0","93422","","null","","","null","35","NaN","","","","","","","","","","","","","","",""
"","S2","","html-keyboard-response","219","306724","0.0-1.0-319.0","0","0","93422","","245","","","75","35","","k","1","35","training","adjacent","ED","5","4","M.jpg","O.jpg","0","0","1","",""
"","feedback","","html-keyboard-response","220","307730","0.0-1.0-321.0-0.0","0","0","93422","","null","","","null","35","","","","","","","","","","","","","","","",""
"","ITI","","html-keyboard-response","221","308738","0.0-1.0-324.0","0","0","93422","","null","","","null","35","","","","","","","","","","","","","","","NaN",""
"","S1","","html-keyboard-response","222","309000","0.0-1.0-326.0","0","0","93422","","null","","","null","36","","","","","","","","","","","","","","","",""
"","ISI","","html-keyboard-response","223","309156","0.0-1.0-327.0","0","0","93422","","null","","","null","36","NaN","","","","","","","","","","","","","","",""
"","S2","","html-keyboard-response","224","309409","0.0-1.0-328.0","0","0","93422","","null","","","null","36","","NaN","","","","","","","","","","","","","",""
"","response","","html-keyboard-response","225","309482","0.0-1.0-329.0-0.0","0","0","93422","","72","","","75","36","","","1","36","training","adjacent","EF","5","6","M.jpg","R.jpg","0","1","0","",""
"","feedback","","html-keyboard-response","226","310492","0.0-1.0-330.0-0.0","0","0","93422","","null","","","null","36","","","","","","","","","","","","","","","",""
"","time_out","","html-keyboard-response","227","312499","0.0-1.0-332.0-0.0","0","0","93422","","null","","","null","36","","","","","","","","","","","","","","","",""
"","ITI","","html-keyboard-response","228","313506","0.0-1.0-333.0","0","0","93422","","null","","","null","36","","","","","","","","","","","","","","","NaN",""
"","S1","","html-keyboard-response","229","313759","0.0-1.0-335.0","0","0","93422","","null","","","null","37","","","","","","","","","","","","","","","",""
"","ISI","","html-keyboard-response","230","313917","0.0-1.0-336.0","0","0","93422","","null","","","null","37","NaN","","","","","","","","","","","","","","",""
"","S2","","html-keyboard-response","231","314175","0.0-1.0-337.0","0","0","93422","","null","","","null","37","","NaN","","","","","","","","","","","","","",""
"","response","","html-keyboard-response","232","314221","0.0-1.0-338.0-0.0","0","0","93422","","44","","","68","37","","","1","37","training","adjacent","BC","2","3","Q.jpg","L.jpg","1","1","1","",""
"","feedback","","html-keyboard-response","233","315231","0.0-1.0-339.0-0.0","0","0","93422","","null","","","null","37","","","","","","","","","","","","","","","",""
"","ITI","","html-keyboard-response","234","316241","0.0-1.0-342.0","0","0","93422","","null","","","null","37","","","","","","","","","","","","","","","NaN",""
"","S1","","html-keyboard-response","235","316505","0.0-1.0-344.0","0","0","93422","","null","","","null","38","","","","","","","","","","","","","","","",""
"","ISI","","html-keyboard-response","236","316659","0.0-1.0-345.0","0","0","93422","","null","","","null","38","NaN","","","","","","","","","","","","","","",""
"","S2","","html-keyboard-response","237","316917","0.0-1.0-346.0","0","0","93422","","null","","","null","38","","NaN","","","","","","","","","","","","","",""
"","response","","html-keyboard-response","238","317129","0.0-1.0-347.0-0.0","0","0","93422","","210","","","68","38","","","1","38","training","adjacent","CB","3","2","L.jpg","Q.jpg","1","0","0","",""
"","feedback","","html-keyboard-response","239","318147","0.0-1.0-348.0-0.0","0","0","93422","","null","","","null","38","","","","","","","","","","","","","","","",""
"","time_out","","html-keyboard-response","240","320156","0.0-1.0-350.0-0.0","0","0","93422","","null","","","null","38","","","","","","","","","","","","","","","",""
"","ITI","","html-keyboard-response","241","321160","0.0-1.0-351.0","0","0","93422","","null","","","null","38","","","","","","","","","","","","","","","NaN",""
"","S1","","html-keyboard-response","242","321420","0.0-1.0-353.0","0","0","93422","","null","","","null","39","","","","","","","","","","","","","","","",""
"","ISI","","html-keyboard-response","243","321578","0.0-1.0-354.0","0","0","93422","","null","","","null","39","NaN","","","","","","","","","","","","","","",""
"","S2","","html-keyboard-response","244","321640","0.0-1.0-355.0","0","0","93422","","61","","","75","39","","k","1","39","training","adjacent","DC","4","3","O.jpg","L.jpg","0","0","1","",""
"","feedback","","html-keyboard-response","245","322654","0.0-1.0-357.0-0.0","0","0","93422","","null","","","null","39","","","","","","","","","","","","","","","",""
"","ITI","","html-keyboard-response","246","323669","0.0-1.0-360.0","0","0","93422","","null","","","null","39","","","","","","","","","","","","","","","NaN",""
"","S1","","html-keyboard-response","247","323928","0.0-1.0-362.0","0","0","93422","","null","","","null","40","","","","","","","","","","","","","","","",""
"","ISI","","html-keyboard-response","248","324090","0.0-1.0-363.0","0","0","93422","","null","","","null","40","NaN","","","","","","","","","","","","","","",""
"","S2","","html-keyboard-response","249","324198","0.0-1.0-364.0","0","0","93422","","107","","","68","40","","d","1","40","training","adjacent","BA","2","1","Q.jpg","P.jpg","1","0","0","",""
"","feedback","","html-keyboard-response","250","325205","0.0-1.0-366.0-0.0","0","0","93422","","null","","","null","40","","","","","","","","","","","","","","","",""
"","time_out","","html-keyboard-response","251","327214","0.0-1.0-368.0-0.0","0","0","93422","","null","","","null","40","","","","","","","","","","","","","","","",""
"","ITI","","html-keyboard-response","252","328220","0.0-1.0-369.0","0","0","93422","","null","","","null","40","","","","","","","","","","","","","","","NaN",""
"","S1","","html-keyboard-response","253","328476","0.0-1.0-371.0","0","0","93422","","null","","","null","41","","","","","","","","","","","","","","","",""
"","ISI","","html-keyboard-response","254","328635","0.0-1.0-372.0","0","0","93422","","null","","","null","41","NaN","","","","","","","","","","","","","","",""
"","S2","","html-keyboard-response","255","328893","0.0-1.0-373.0","0","0","93422","","null","","","null","41","","NaN","","","","","","","","","","","","","",""
"","response","","html-keyboard-response","256","330649","0.0-1.0-374.0-0.0","0","0","93422","","null","","","null","41","","","1","41","training","adjacent","FE","6","5","R.jpg","M.jpg","NaN","0","0","",""
"","too_slow_prompt","","html-keyboard-response","257","331655","0.0-1.0-376.0-0.0","1","0","93422","","null","","","null","","","","","","","","","","","","","","","","",""
"","time_out","","html-keyboard-response","258","333662","0.0-1.0-377.0-0.0","0","0","93422","","null","","","null","41","","","","","","","","","","","","","","","",""
"","ITI","","html-keyboard-response","259","334670","0.0-1.0-378.0","0","0","93422","","null","","","null","41","","","","","","","","","","","","","","","NaN",""
"","S1","","html-keyboard-response","260","334925","0.0-1.0-380.0","0","0","93422","","null","","","null","42","","","","","","","","","","","","","","","",""
"","ISI","","html-keyboard-response","261","335077","0.0-1.0-381.0","0","0","93422","","57","","","75","42","k","","","","","","","","","","","","","","",""
"","S2","","html-keyboard-response","262","335332","0.0-1.0-382.0","0","0","93422","","null","","","null","42","","NaN","","","","","","","","","","","","","",""
"","response","","html-keyboard-response","263","335679","0.0-1.0-383.0-0.0","0","0","93422","","345","","","75","42","","","1","42","training","adjacent","FE","6","5","R.jpg","M.jpg","0","0","1","",""
"","feedback","","html-keyboard-response","264","336682","0.0-1.0-384.0-0.0","0","0","93422","","null","","","null","42","","","","","","","","","","","","","","","",""
"","ITI","","html-keyboard-response","265","337693","0.0-1.0-387.0","0","0","93422","","null","","","null","42","","","","","","","","","","","","","","","NaN",""
"","S1","","html-keyboard-response","266","337946","0.0-1.0-389.0","0","0","93422","","null","","","null","43","","","","","","","","","","","","","","","",""
"","ISI","","html-keyboard-response","267","338106","0.0-1.0-390.0","0","0","93422","","null","","","null","43","NaN","","","","","","","","","","","","","","",""
"","S2","","html-keyboard-response","268","338190","0.0-1.0-391.0","0","0","93422","","81","","","75","43","","k","1","43","training","adjacent","AB","1","2","P.jpg","Q.jpg","0","1","0","",""
"","feedback","","html-keyboard-response","269","339200","0.0-1.0-393.0-0.0","0","0","93422","","null","","","null","43","","","","","","","","","","","","","","","",""
"","time_out","","html-keyboard-response","270","341205","0.0-1.0-395.0-0.0","0","0","93422","","null","","","null","43","","","","","","","","","","","","","","","",""
"","ITI","","html-keyboard-response","271","342219","0.0-1.0-396.0","0","0","93422","","null","","","null","43","","","","","","","","","","","","","","","NaN",""
"","S1","","html-keyboard-response","272","342475","0.0-1.0-398.0","0","0","93422","","null","","","null","44","","","","","","","","","","","","","","","",""
"","ISI","","html-keyboard-response","273","342643","0.0-1.0-399.0","0","0","93422","","null","","","null","44","NaN","","","","","","","","","","","","","","",""
"","S2","","html-keyboard-response","274","342675","0.0-1.0-400.0","0","0","93422","","31","","","68","44","","d","1","44","training","adjacent","DE","4","5","O.jpg","M.jpg","1","1","1","",""
"","feedback","","html-keyboard-response","275","343687","0.0-1.0-402.0-0.0","0","0","93422","","null","","","null","44","","","","","","","","","","","","","","","",""
"","ITI","","html-keyboard-response","276","344702","0.0-1.0-405.0","0","0","93422","","null","","","null","44","","","","","","","","","","","","","","","NaN",""
"","S1","","html-keyboard-response","277","344963","0.0-1.0-407.0","0","0","93422","","null","","","null","45","","","","","","","","","","","","","","","",""
"","ISI","","html-keyboard-response","278","345117","0.0-1.0-408.0","0","0","93422","","null","","","null","45","NaN","","","","","","","","","","","","","","",""
"","S2","","html-keyboard-response","279","345266","0.0-1.0-409.0","0","0","93422","","147","","","68","45","","d","1","45","training","adjacent","BC","2","3","Q.jpg","L.jpg","1","1","1","",""
"","feedback","","html-keyboard-response","280","346275","0.0-1.0-411.0-0.0","0","0","93422","","null","","","null","45","","","","","","","","","","","","","","","",""
"","ITI","","html-keyboard-response","281","347282","0.0-1.0-414.0","0","0","93422","","null","","","null","45","","","","","","","","","","","","","","","NaN",""
"","S1","","html-keyboard-response","282","347536","0.0-1.0-416.0","0","0","93422","","null","","","null","46","","","","","","","","","","","","","","","",""
"","ISI","","html-keyboard-response","283","347694","0.0-1.0-417.0","0","0","93422","","null","","","null","46","NaN","","","","","","","","","","","","","","",""
"","S2","","html-keyboard-response","284","347791","0.0-1.0-418.0","0","0","93422","","96","","","68","46","","d","1","46","training","adjacent","CB","3","2","L.jpg","Q.jpg","1","0","0","",""
"","feedback","","html-keyboard-response","285","348799","0.0-1.0-420.0-0.0","0","0","93422","","null","","","null","46","","","","","","","","","","","","","","","",""
"","time_out","","html-keyboard-response","286","350805","0.0-1.0-422.0-0.0","0","0","93422","","null","","","null","46","","","","","","","","","","","","","","","",""
"","ITI","","html-keyboard-response","287","351815","0.0-1.0-423.0","0","0","93422","","null","","","null","46","","","","","","","","","","","","","","","NaN",""
"","S1","","html-keyboard-response","288","352070","0.0-1.0-425.0","0","0","93422","","null","","","null","47","","","","","","","","","","","","","","","",""
"","ISI","","html-keyboard-response","289","352237","0.0-1.0-426.0","0","0","93422","","null","","","null","47","NaN","","","","","","","","","","","","","","",""
"","S2","","html-keyboard-response","290","352491","0.0-1.0-427.0","0","0","93422","","null","","","null","47","","NaN","","","","","","","","","","","","","",""
"","response","","html-keyboard-response","291","354251","0.0-1.0-428.0-0.0","0","0","93422","","null","","","null","47","","","1","47","training","adjacent","GF","7","6","N.jpg","R.jpg","NaN","0","0","",""
"","too_slow_prompt","","html-keyboard-response","292","355259","0.0-1.0-430.0-0.0","1","0","93422","","null","","","null","","","","","","","","","","","","","","","","",""
"","time_out","","html-keyboard-response","293","357262","0.0-1.0-431.0-0.0","0","0","93422","","null","","","null","47","","","","","","","","","","","","","","","",""
"","ITI","","html-keyboard-response","294","358271","0.0-1.0-432.0","0","0","93422","","null","","","null","47","","","","","","","","","","","","","","","NaN",""
"","block_over","","html-keyboard-response","295","380527","0.0-1.0-433.0-0.0","0","0","93422","","22254","","","32","47","","","","","","","","","","","","","","","",""
"","S1","","html-keyboard-response","296","380790","0.0-1.0-434.0","0","0","93422","","null","","","null","48","","","","","","","","","","","","","","","",""
"","ISI","","html-keyboard-response","297","380943","0.0-1.0-435.0","0","0","93422","","null","","","null","48","NaN","","","","","","","","","","","","","","",""
"","S2","","html-keyboard-response","298","380949","0.0-1.0-436.0","0","0","93422","","5","","","68","48","","d","2","48","training","adjacent","ED","5","4","M.jpg","O.jpg","1","0","0","",""
"","feedback","","html-keyboard-response","299","381954","0.0-1.0-438.0-0.0","0","0","93422","","null","","","null","48","","","","","","","","","","","","","","","",""
"","time_out","","html-keyboard-response","300","383963","0.0-1.0-440.0-0.0","0","0","93422","","null","","","null","48","","","","","","","","","","","","","","","",""
"","ITI","","html-keyboard-response","301","384970","0.0-1.0-441.0","0","0","93422","","null","","","null","48","","","","","","","","","","","","","","","NaN",""
"","S1","","html-keyboard-response","302","385226","0.0-1.0-443.0","0","0","93422","","null","","","null","49","","","","","","","","","","","","","","","",""
"","ISI","","html-keyboard-response","303","385388","0.0-1.0-444.0","0","0","93422","","null","","","null","49","NaN","","","","","","","","","","","","","","",""
"","S2","","html-keyboard-response","304","385647","0.0-1.0-445.0","0","0","93422","","null","","","null","49","","NaN","","","","","","","","","","","","","",""
"","response","","html-keyboard-response","305","385782","0.0-1.0-446.0-0.0","0","0","93422","","133","","","75","49","","","2","49","training","adjacent","AB","1","2","P.jpg","Q.jpg","0","1","0","",""
"","feedback","","html-keyboard-response","306","386784","0.0-1.0-447.0-0.0","0","0","93422","","null","","","null","49","","","","","","","","","","","","","","","",""
"","time_out","","html-keyboard-response","307","388796","0.0-1.0-449.0-0.0","0","0","93422","","null","","","null","49","","","","","","","","","","","","","","","",""
"","ITI","","html-keyboard-response","308","389805","0.0-1.0-450.0","0","0","93422","","null","","","null","49","","","","","","","","","","","","","","","NaN",""
"","S1","","html-keyboard-response","309","390064","0.0-1.0-452.0","0","0","93422","","null","","","null","50","","","","","","","","","","","","","","","",""
"","ISI","","html-keyboard-response","310","390220","0.0-1.0-453.0","0","0","93422","","null","","","null","50","NaN","","","","","","","","","","","","","","",""
"","S2","","html-keyboard-response","311","390479","0.0-1.0-454.0","0","0","93422","","null","","","null","50","","NaN","","","","","","","","","","","","","",""
"","response","","html-keyboard-response","312","390652","0.0-1.0-455.0-0.0","0","0","93422","","172","","","68","50","","","2","50","training","adjacent","FG","6","7","R.jpg","N.jpg","1","1","1","",""
"","feedback","","html-keyboard-response","313","391659","0.0-1.0-456.0-0.0","0","0","93422","","null","","","null","50","","","","","","","","","","","","","","","",""
"","ITI","","html-keyboard-response","314","392672","0.0-1.0-459.0","0","0","93422","","null","","","null","50","","","","","","","","","","","","","","","NaN",""
"","S1","","html-keyboard-response","315","392937","0.0-1.0-461.0","0","0","93422","","null","","","null","51","","","","","","","","","","","","","","","",""
"","ISI","","html-keyboard-response","316","393095","0.0-1.0-462.0","0","0","93422","","null","","","null","51","NaN","","","","","","","","","","","","","","",""
"","S2","","html-keyboard-response","317","393334","0.0-1.0-463.0","0","0","93422","","237","","","68","51","","d","2","51","training","adjacent","DC","4","3","O.jpg","L.jpg","1","0","0","",""
"","feedback","","html-keyboard-response","318","394341","0.0-1.0-465.0-0.0","0","0","93422","","null","","","null","51","","","","","","","","","","","","","","","",""
"","time_out","","html-keyboard-response","319","396345","0.0-1.0-467.0-0.0","0","0","93422","","null","","","null","51","","","","","","","","","","","","","","","",""
"","ITI","","html-keyboard-response","320","397351","0.0-1.0-468.0","0","0","93422","","null","","","null","51","","","","","","","","","","","","","","","NaN",""
"","S1","","html-keyboard-response","321","397608","0.0-1.0-470.0","0","0","93422","","null","","","null","52","","","","","","","","","","","","","","","",""
"","ISI","","html-keyboard-response","322","397766","0.0-1.0-471.0","0","0","93422","","null","","","null","52","NaN","","","","","","","","","","","","","","",""
"","S2","","html-keyboard-response","323","397958","0.0-1.0-472.0","0","0","93422","","191","","","68","52","","d","2","52","training","adjacent","GF","7","6","N.jpg","R.jpg","1","0","0","",""
"","feedback","","html-keyboard-response","324","398964","0.0-1.0-474.0-0.0","0","0","93422","","null","","","null","52","","","","","","","","","","","","","","","",""
"","time_out","","html-keyboard-response","325","400975","0.0-1.0-476.0-0.0","0","0","93422","","null","","","null","52","","","","","","","","","","","","","","","",""
"","ITI","","html-keyboard-response","326","401984","0.0-1.0-477.0","0","0","93422","","null","","","null","52","","","","","","","","","","","","","","","NaN",""
"","S1","","html-keyboard-response","327","402241","0.0-1.0-479.0","0","0","93422","","null","","","null","53","","","","","","","","","","","","","","","",""
"","ISI","","html-keyboard-response","328","402396","0.0-1.0-480.0","0","0","93422","","null","","","null","53","NaN","","","","","","","","","","","","","","",""
"","S2","","html-keyboard-response","329","402644","0.0-1.0-481.0","0","0","93422","","246","","","68","53","","d","2","53","training","adjacent","EF","5","6","M.jpg","R.jpg","1","1","1","",""
"","feedback","","html-keyboard-response","330","403652","0.0-1.0-483.0-0.0","0","0","93422","","null","","","null","53","","","","","","","","","","","","","","","",""
"","ITI","","html-keyboard-response","331","404664","0.0-1.0-486.0","0","0","93422","","null","","","null","53","","","","","","","","","","","","","","","NaN",""
"","S1","","html-keyboard-response","332","404922","0.0-1.0-488.0","0","0","93422","","null","","","null","54","","","","","","","","","","","","","","","",""
"","ISI","","html-keyboard-response","333","405079","0.0-1.0-489.0","0","0","93422","","null","","","null","54","NaN","","","","","","","","","","","","","","",""
"","S2","","html-keyboard-response","334","405336","0.0-1.0-490.0","0","0","93422","","null","","","null","54","","NaN","","","","","","","","","","","","","",""
"","response","","html-keyboard-response","335","405359","0.0-1.0-491.0-0.0","0","0","93422","","22","","","68","54","","","2","54","training","adjacent","EF","5","6","M.jpg","R.jpg","1","1","1","",""
"","feedback","","html-keyboard-response","336","406368","0.0-1.0-492.0-0.0","0","0","93422","","null","","","null","54","","","","","","","","","","","","","","","",""
"","ITI","","html-keyboard-response","337","407375","0.0-1.0-495.0","0","0","93422","","null","","","null","54","","","","","","","","","","","","","","","NaN",""
"","S1","","html-keyboard-response","338","407633","0.0-1.0-497.0","0","0","93422","","null","","","null","55","","","","","","","","","","","","","","","",""
"","ISI","","html-keyboard-response","339","407799","0.0-1.0-498.0","0","0","93422","","null","","","null","55","NaN","","","","","","","","","","","","","","",""
"","S2","","html-keyboard-response","340","408024","0.0-1.0-499.0","0","0","93422","","224","","","68","55","","d","2","55","training","adjacent","CD","3","4","L.jpg","O.jpg","1","1","1","",""
"","feedback","","html-keyboard-response","341","409029","0.0-1.0-501.0-0.0","0","0","93422","","null","","","null","55","","","","","","","","","","","","","","","",""
"","ITI","","html-keyboard-response","342","410035","0.0-1.0-504.0","0","0","93422","","null","","","null","55","","","","","","","","","","","","","","","NaN",""
"","S1","","html-keyboard-response","343","410296","0.0-1.0-506.0","0","0","93422","","null","","","null","56","","","","","","","","","","","","","","","",""
"","ISI","","html-keyboard-response","344","410452","0.0-1.0-507.0","0","0","93422","","null","","","null","56","NaN","","","","","","","","","","","","","","",""
"","S2","","html-keyboard-response","345","410692","0.0-1.0-508.0","0","0","93422","","238","","","68","56","","d","2","56","training","adjacent","FE","6","5","R.jpg","M.jpg","1","0","0","",""
"","feedback","","html-keyboard-response","346","411702","0.0-1.0-510.0-0.0","0","0","93422","","null","","","null","56","","","","","","","","","","","","","","","",""
"","time_out","","html-keyboard-response","347","413711","0.0-1.0-512.0-0.0","0","0","93422","","null","","","null","56","","","","","","","","","","","","","","","",""
"","ITI","","html-keyboard-response","348","414719","0.0-1.0-513.0","0","0","93422","","null","","","null","56","","","","","","","","","","","","","","","NaN",""
"","S1","","html-keyboard-response","349","414973","0.0-1.0-515.0","0","0","93422","","null","","","null","57","","","","","","","","","","","","","","","",""
"","ISI","","html-keyboard-response","350","415138","0.0-1.0-516.0","0","0","93422","","null","","","null","57","NaN","","","","","","","","","","","","","","",""
"","S2","","html-keyboard-response","351","415394","0.0-1.0-517.0","0","0","93422","","null","","","null","57","","NaN","","","","","","","","","","","","","",""
"","response","","html-keyboard-response","352","415756","0.0-1.0-518.0-0.0","0","0","93422","","361","","","75","57","","","2","57","training","adjacent","AB","1","2","P.jpg","Q.jpg","0","1","0","",""
"","feedback","","html-keyboard-response","353","416767","0.0-1.0-519.0-0.0","0","0","93422","","null","","","null","57","","","","","","","","","","","","","","","",""
"","time_out","","html-keyboard-response","354","418772","0.0-1.0-521.0-0.0","0","0","93422","","null","","","null","57","","","","","","","","","","","","","","","",""
"","ITI","","html-keyboard-response","355","419778","0.0-1.0-522.0","0","0","93422","","null","","","null","57","","","","","","","","","","","","","","","NaN",""
"","S1","","html-keyboard-response","356","420033","0.0-1.0-524.0","0","0","93422","","null","","","null","58","","","","","","","","","","","","","","","",""
"","ISI","","html-keyboard-response","357","420200","0.0-1.0-525.0","0","0","93422","","null","","","null","58","NaN","","","","","","","","","","","","","","",""
"","S2","","html-keyboard-response","358","420418","0.0-1.0-526.0","0","0","93422","","217","","","68","58","","d","2","58","training","adjacent","GF","7","6","N.jpg","R.jpg","1","0","0","",""
"","feedback","","html-keyboard-response","359","421423","0.0-1.0-528.0-0.0","0","0","93422","","null","","","null","58","","","","","","","","","","","","","","","",""
"","time_out","","html-keyboard-response","360","423431","0.0-1.0-530.0-0.0","0","0","93422","","null","","","null","58","","","","","","","","","","","","","","","",""
"","ITI","","html-keyboard-response","361","424438","0.0-1.0-531.0","0","0","93422","","null","","","null","58","","","","","","","","","","","","","","","NaN",""
"","S1","","html-keyboard-response","362","424690","0.0-1.0-533.0","0","0","93422","","null","","","null","59","","","","","","","","","","","","","","","",""
"","ISI","","html-keyboard-response","363","424846","0.0-1.0-534.0","0","0","93422","","null","","","null","59","NaN","","","","","","","","","","","","","","",""
"","S2","","html-keyboard-response","364","424976","0.0-1.0-535.0","0","0","93422","","127","","","68","59","","d","2","59","training","adjacent","FE","6","5","R.jpg","M.jpg","1","0","0","",""
"","feedback","","html-keyboard-response","365","425991","0.0-1.0-537.0-0.0","0","0","93422","","null","","","null","59","","","","","","","","","","","","","","","",""
"","time_out","","html-keyboard-response","366","427998","0.0-1.0-539.0-0.0","0","0","93422","","null","","","null","59","","","","","","","","","","","","","","","",""
"","ITI","","html-keyboard-response","367","429009","0.0-1.0-540.0","0","0","93422","","null","","","null","59","","","","","","","","","","","","","","","NaN",""
"","S1","","html-keyboard-response","368","429266","0.0-1.0-542.0","0","0","93422","","null","","","null","60","","","","","","","","","","","","","","","",""
"","ISI","","html-keyboard-response","369","429421","0.0-1.0-543.0","0","0","93422","","null","","","null","60","NaN","","","","","","","","","","","","","","",""
"","S2","","html-keyboard-response","370","429675","0.0-1.0-544.0","0","0","93422","","null","","","null","60","","NaN","","","","","","","","","","","","","",""
"","response","","html-keyboard-response","371","431436","0.0-1.0-545.0-0.0","0","0","93422","","null","","","null","60","","","2","60","training","adjacent","BA","2","1","Q.jpg","P.jpg","NaN","0","0","",""
"","too_slow_prompt","","html-keyboard-response","372","432442","0.0-1.0-547.0-0.0","1","0","93422","","null","","","null","","","","","","","","","","","","","","","","",""
"","time_out","","html-keyboard-response","373","434448","0.0-1.0-548.0-0.0","0","0","93422","","null","","","null","60","","","","","","","","","","","","","","","",""
"","ITI","","html-keyboard-response","374","435451","0.0-1.0-549.0","0","0","93422","","null","","","null","60","","","","","","","","","","","","","","","NaN",""
"","S1","","html-keyboard-response","375","435705","0.0-1.0-551.0","0","0","93422","","null","","","null","61","","","","","","","","","","","","","","","",""
"","ISI","","html-keyboard-response","376","435861","0.0-1.0-552.0","0","0","93422","","null","","","null","61","NaN","","","","","","","","","","","","","","",""
"","S2","","html-keyboard-response","377","436003","0.0-1.0-553.0","0","0","93422","","140","","","75","61","","k","2","61","training","adjacent","BA","2","1","Q.jpg","P.jpg","0","0","1","",""
"","feedback","","html-keyboard-response","378","437012","0.0-1.0-555.0-0.0","0","0","93422","","null","","","null","61","","","","","","","","","","","","","","","",""
"","ITI","","html-keyboard-response","379","438021","0.0-1.0-558.0","0","0","93422","","null","","","null","61","","","","","","","","","","","","","","","NaN",""
"","S1","","html-keyboard-response","380","438278","0.0-1.0-560.0","0","0","93422","","null","","","null","62","","","","","","","","","","","","","","","",""
"","ISI","","html-keyboard-response","381","438436","0.0-1.0-561.0","0","0","93422","","null","","","null","62","NaN","","","","","","","","","","","","","","",""
"","S2","","html-keyboard-response","382","438665","0.0-1.0-562.0","0","0","93422","","228","","","75","62","","k","2","62","training","adjacent","GF","7","6","N.jpg","R.jpg","0","0","1","",""
"","feedback","","html-keyboard-response","383","439669","0.0-1.0-564.0-0.0","0","0","93422","","null","","","null","62","","","","","","","","","","","","","","","",""
"","ITI","","html-keyboard-response","384","440674","0.0-1.0-567.0","0","0","93422","","null","","","null","62","","","","","","","","","","","","","","","NaN",""
"","S1","","html-keyboard-response","385","440937","0.0-1.0-569.0","0","0","93422","","null","","","null","63","","","","","","","","","","","","","","","",""
"","ISI","","html-keyboard-response","386","441092","0.0-1.0-570.0","0","0","93422","","128","","","75","63","k","","","","","","","","","","","","","","",""
"","S2","","html-keyboard-response","387","441357","0.0-1.0-571.0","0","0","93422","","null","","","null","63","","NaN","","","","","","","","","","","","","",""
"","response","","html-keyboard-response","388","441543","0.0-1.0-572.0-0.0","0","0","93422","","184","","","75","63","","","2","63","training","adjacent","BC","2","3","Q.jpg","L.jpg","0","1","0","",""
"","feedback","","html-keyboard-response","389","442552","0.0-1.0-573.0-0.0","0","0","93422","","null","","","null","63","","","","","","","","","","","","","","","",""
"","time_out","","html-keyboard-response","390","444557","0.0-1.0-575.0-0.0","0","0","93422","","null","","","null","63","","","","","","","","","","","","","","","",""
"","ITI","","html-keyboard-response","391","445565","0.0-1.0-576.0","0","0","93422","","null","","","null","63","","","","","","","","","","","","","","","NaN",""
"","S1","","html-keyboard-response","392","445820","0.0-1.0-578.0","0","0","93422","","null","","","null","64","","","","","","","","","","","","","","","",""
"","ISI","","html-keyboard-response","393","445980","0.0-1.0-579.0","0","0","93422","","null","","","null","64","NaN","","","","","","","","","","","","","","",""
"","S2","","html-keyboard-response","394","446239","0.0-1.0-580.0","0","0","93422","","null","","","null","64","","NaN","","","","","","","","","","","","","",""
"","response","","html-keyboard-response","395","446362","0.0-1.0-581.0-0.0","0","0","93422","","120","","","68","64","","","2","64","training","adjacent","FE","6","5","R.jpg","M.jpg","1","0","0","",""
"","feedback","","html-keyboard-response","396","447373","0.0-1.0-582.0-0.0","0","0","93422","","null","","","null","64","","","","","","","","","","","","","","","",""
"","time_out","","html-keyboard-response","397","449377","0.0-1.0-584.0-0.0","0","0","93422","","null","","","null","64","","","","","","","","","","","","","","","",""
"","ITI","","html-keyboard-response","398","450383","0.0-1.0-585.0","0","0","93422","","null","","","null","64","","","","","","","","","","","","","","","NaN",""
"","S1","","html-keyboard-response","399","450649","0.0-1.0-587.0","0","0","93422","","null","","","null","65","","","","","","","","","","","","","","","",""
"","ISI","","html-keyboard-response","400","450804","0.0-1.0-588.0","0","0","93422","","null","","","null","65","NaN","","","","","","","","","","","","","","",""
"","S2","","html-keyboard-response","401","451071","0.0-1.0-589.0","0","0","93422","","null","","","null","65","","NaN","","","","","","","","","","","","","",""
"","response","","html-keyboard-response","402","451336","0.0-1.0-590.0-0.0","0","0","93422","","263","","","68","65","","","2","65","training","adjacent","DC","4","3","O.jpg","L.jpg","1","0","0","",""
"","feedback","","html-keyboard-response","403","452343","0.0-1.0-591.0-0.0","0","0","93422","","null","","","null","65","","","","","","","","","","","","","","","",""
"","time_out","","html-keyboard-response","404","454352","0.0-1.0-593.0-0.0","0","0","93422","","null","","","null","65","","","","","","","","","","","","","","","",""
"","ITI","","html-keyboard-response","405","455355","0.0-1.0-594.0","0","0","93422","","null","","","null","65","","","","","","","","","","","","","","","NaN",""
"","S1","","html-keyboard-response","406","455623","0.0-1.0-596.0","0","0","93422","","null","","","null","66","","","","","","","","","","","","","","","",""
"","ISI","","html-keyboard-response","407","455787","0.0-1.0-597.0","0","0","93422","","null","","","null","66","NaN","","","","","","","","","","","","","","",""
"","S2","","html-keyboard-response","408","456041","0.0-1.0-598.0","0","0","93422","","null","","","null","66","","NaN","","","","","","","","","","","","","",""
"","response","","html-keyboard-response","409","456062","0.0-1.0-599.0-0.0","0","0","93422","","20","","","68","66","","","2","66","training","adjacent","FG","6","7","R.jpg","N.jpg","1","1","1","",""
"","feedback","","html-keyboard-response","410","457066","0.0-1.0-600.0-0.0","0","0","93422","","null","","","null","66","","","","","","","","","","","","","","","",""
"","ITI","","html-keyboard-response","411","458072","0.0-1.0-603.0","0","0","93422","","null","","","null","66","","","","","","","","","","","","","","","NaN",""
"","S1","","html-keyboard-response","412","458327","0.0-1.0-605.0","0","0","93422","","null","","","null","67","","","","","","","","","","","","","","","",""
"","ISI","","html-keyboard-response","413","458485","0.0-1.0-606.0","0","0","93422","","null","","","null","67","NaN","","","","","","","","","","","","","","",""
"","S2","","html-keyboard-response","414","458741","0.0-1.0-607.0","0","0","93422","","null","","","null","67","","NaN","","","","","","","","","","","","","",""
"","response","","html-keyboard-response","415","459043","0.0-1.0-608.0-0.0","0","0","93422","","300","","","68","67","","","2","67","training","adjacent","FG","6","7","R.jpg","N.jpg","1","1","1","",""
"","feedback","","html-keyboard-response","416","460046","0.0-1.0-609.0-0.0","0","0","93422","","null","","","null","67","","","","","","","","","","","","","","","",""
"","ITI","","html-keyboard-response","417","461053","0.0-1.0-612.0","0","0","93422","","null","","","null","67","","","","","","","","","","","","","","","NaN",""
"","S1","","html-keyboard-response","418","461310","0.0-1.0-614.0","0","0","93422","","null","","","null","68","","","","","","","","","","","","","","","",""
"","ISI","","html-keyboard-response","419","461475","0.0-1.0-615.0","0","0","93422","","null","","","null","68","NaN","","","","","","","","","","","","","","",""
"","S2","","html-keyboard-response","420","461736","0.0-1.0-616.0","0","0","93422","","null","","","null","68","","NaN","","","","","","","","","","","","","",""
"","response","","html-keyboard-response","421","463490","0.0-1.0-617.0-0.0","0","0","93422","","null","","","null","68","","","2","68","training","adjacent","EF","5","6","M.jpg","R.jpg","NaN","1","0","",""
"","too_slow_prompt","","html-keyboard-response","422","464508","0.0-1.0-619.0-0.0","1","0","93422","","null","","","null","","","","","","","","","","","","","","","","",""
"","time_out","","html-keyboard-response","423","466514","0.0-1.0-620.0-0.0","0","0","93422","","null","","","null","68","","","","","","","","","","","","","","","",""
"","ITI","","html-keyboard-response","424","467532","0.0-1.0-621.0","0","0","93422","","null","","","null","68","","","","","","","","","","","","","","","NaN",""
"","S1","","html-keyboard-response","425","467790","0.0-1.0-623.0","0","0","93422","","null","","","null","69","","","","","","","","","","","","","","","",""
"","ISI","","html-keyboard-response","426","467949","0.0-1.0-624.0","0","0","93422","","null","","","null","69","NaN","","","","","","","","","","","","","","",""
"","S2","","html-keyboard-response","427","468176","0.0-1.0-625.0","0","0","93422","","225","","","68","69","","d","2","69","training","adjacent","BA","2","1","Q.jpg","P.jpg","1","0","0","",""
"","feedback","","html-keyboard-response","428","469184","0.0-1.0-627.0-0.0","0","0","93422","","null","","","null","69","","","","","","","","","","","","","","","",""
"","time_out","","html-keyboard-response","429","471194","0.0-1.0-629.0-0.0","0","0","93422","","null","","","null","69","","","","","","","","","","","","","","","",""
"","ITI","","html-keyboard-response","430","472202","0.0-1.0-630.0","0","0","93422","","null","","","null","69","","","","","","","","","","","","","","","NaN",""
"","S1","","html-keyboard-response","431","472456","0.0-1.0-632.0","0","0","93422","","null","","","null","70","","","","","","","","","","","","","","","",""
"","ISI","","html-keyboard-response","432","472615","0.0-1.0-633.0","0","0","93422","","6","","","75","70","k","","","","","","","","","","","","","","",""
"","S2","","html-keyboard-response","433","472834","0.0-1.0-634.0","0","0","93422","","217","","","75","70","","k","2","70","training","adjacent","DE","4","5","O.jpg","M.jpg","0","1","0","",""
"","feedback","","html-keyboard-response","434","473846","0.0-1.0-636.0-0.0","0","0","93422","","null","","","null","70","","","","","","","","","","","","","","","",""
"","time_out","","html-keyboard-response","435","475855","0.0-1.0-638.0-0.0","0","0","93422","","null","","","null","70","","","","","","","","","","","","","","","",""
"","ITI","","html-keyboard-response","436","476865","0.0-1.0-639.0","0","0","93422","","null","","","null","70","","","","","","","","","","","","","","","NaN",""
"","S1","","html-keyboard-response","437","477120","0.0-1.0-641.0","0","0","93422","","null","","","null","71","","","","","","","","","","","","","","","",""
"","ISI","","html-keyboard-response","438","477277","0.0-1.0-642.0","0","0","93422","","null","","","null","71","NaN","","","","","","","","","","","","","","",""
"","S2","","html-keyboard-response","439","477519","0.0-1.0-643.0","0","0","93422","","239","","","68","71","","d","2","71","training","adjacent","BC","2","3","Q.jpg","L.jpg","1","1","1","",""
"","feedback","","html-keyboard-response","440","478524","0.0-1.0-645.0-0.0","0","0","93422","","null","","","null","71","","","","","","","","","","","","","","","",""
"","ITI","","html-keyboard-response","441","479535","0.0-1.0-648.0","0","0","93422","","null","","","null","71","","","","","","","","","","","","","","","NaN",""
"","S1","","html-keyboard-response","442","479790","0.0-1.0-650.0","0","0","93422","","null","","","null","72","","","","","","","","","","","","","","","",""
"","ISI","","html-keyboard-response","443","479955","0.0-1.0-651.0","0","0","93422","","null","","","null","72","NaN","","","","","","","","","","","","","","",""
"","S2","","html-keyboard-response","444","480212","0.0-1.0-652.0","0","0","93422","","null","","","null","72","","NaN","","","","","","","","","","","","","",""
"","response","","html-keyboard-response","445","480288","0.0-1.0-653.0-0.0","0","0","93422","","75","","","68","72","","","2","72","training","adjacent","CD","3","4","L.jpg","O.jpg","1","1","1","",""
"","feedback","","html-keyboard-response","446","481304","0.0-1.0-654.0-0.0","0","0","93422","","null","","","null","72","","","","","","","","","","","","","","","",""
"","ITI","","html-keyboard-response","447","482310","0.0-1.0-657.0","0","0","93422","","null","","","null","72","","","","","","","","","","","","","","","NaN",""
"","S1","","html-keyboard-response","448","482568","0.0-1.0-659.0","0","0","93422","","null","","","null","73","","","","","","","","","","","","","","","",""
"","ISI","","html-keyboard-response","449","482724","0.0-1.0-660.0","0","0","93422","","null","","","null","73","NaN","","","","","","","","","","","","","","",""
"","S2","","html-keyboard-response","450","482983","0.0-1.0-661.0","0","0","93422","","null","","","null","73","","NaN","","","","","","","","","","","","","",""
"","response","","html-keyboard-response","451","483166","0.0-1.0-662.0-0.0","0","0","93422","","181","","","68","73","","","2","73","training","adjacent","CB","3","2","L.jpg","Q.jpg","1","0","0","",""
"","feedback","","html-keyboard-response","452","484181","0.0-1.0-663.0-0.0","0","0","93422","","null","","","null","73","","","","","","","","","","","","","","","",""
"","time_out","","html-keyboard-response","453","486184","0.0-1.0-665.0-0.0","0","0","93422","","null","","","null","73","","","","","","","","","","","","","","","",""
"","ITI","","html-keyboard-response","454","487194","0.0-1.0-666.0","0","0","93422","","null","","","null","73","","","","","","","","","","","","","","","NaN",""
"","S1","","html-keyboard-response","455","487457","0.0-1.0-668.0","0","0","93422","","null","","","null","74","","","","","","","","","","","","","","","",""
"","ISI","","html-keyboard-response","456","487615","0.0-1.0-669.0","0","0","93422","","null","","","null","74","NaN","","","","","","","","","","","","","","",""
"","S2","","html-keyboard-response","457","487868","0.0-1.0-670.0","0","0","93422","","null","","","null","74","","NaN","","","","","","","","","","","","","",""
"","response","","html-keyboard-response","458","489623","0.0-1.0-671.0-0.0","0","0","93422","","null","","","null","74","","","2","74","training","adjacent","BC","2","3","Q.jpg","L.jpg","NaN","1","0","",""
"","too_slow_prompt","","html-keyboard-response","459","490632","0.0-1.0-673.0-0.0","1","0","93422","","null","","","null","","","","","","","","","","","","","","","","",""
"","time_out","","html-keyboard-response","460","492638","0.0-1.0-674.0-0.0","0","0","93422","","null","","","null","74","","","","","","","","","","","","","","","",""
"","ITI","","html-keyboard-response","461","493653","0.0-1.0-675.0","0","0","93422","","614","","","75","74","","","","","","","","","","","","","","","k",""
"","S1","","html-keyboard-response","462","493906","0.0-1.0-677.0","0","0","93422","","null","","","null","75","","","","","","","","","","","","","","","",""
"","ISI","","html-keyboard-response","463","494063","0.0-1.0-678.0","0","0","93422","","0","","","75","75","k","","","","","","","","","","","","","","",""
"","S2","","html-keyboard-response","464","494186","0.0-1.0-679.0","0","0","93422","","121","","","75","75","","k","2","75","training","adjacent","GF","7","6","N.jpg","R.jpg","0","0","1","",""
"","feedback","","html-keyboard-response","465","495190","0.0-1.0-681.0-0.0","0","0","93422","","null","","","null","75","","","","","","","","","","","","","","","",""
"","ITI","","html-keyboard-response","466","496199","0.0-1.0-684.0","0","0","93422","","null","","","null","75","","","","","","","","","","","","","","","NaN",""
"","S1","","html-keyboard-response","467","496454","0.0-1.0-686.0","0","0","93422","","null","","","null","76","","","","","","","","","","","","","","","",""
"","ISI","","html-keyboard-response","468","496610","0.0-1.0-687.0","0","0","93422","","114","","","68","76","d","","","","","","","","","","","","","","",""
"","S2","","html-keyboard-response","469","496876","0.0-1.0-688.0","0","0","93422","","null","","","null","76","","NaN","","","","","","","","","","","","","",""
"","response","","html-keyboard-response","470","496975","0.0-1.0-689.0-0.0","0","0","93422","","98","","","68","76","","","2","76","training","adjacent","FG","6","7","R.jpg","N.jpg","1","1","1","",""
"","feedback","","html-keyboard-response","471","497982","0.0-1.0-690.0-0.0","0","0","93422","","null","","","null","76","","","","","","","","","","","","","","","",""
"","ITI","","html-keyboard-response","472","498999","0.0-1.0-693.0","0","0","93422","","null","","","null","76","","","","","","","","","","","","","","","NaN",""
"","S1","","html-keyboard-response","473","499254","0.0-1.0-695.0","0","0","93422","","null","","","null","77","","","","","","","","","","","","","","","",""
"","ISI","","html-keyboard-response","474","499409","0.0-1.0-696.0","0","0","93422","","null","","","null","77","NaN","","","","","","","","","","","","","","",""
"","S2","","html-keyboard-response","475","499489","0.0-1.0-697.0","0","0","93422","","78","","","68","77","","d","2","77","training","adjacent","DE","4","5","O.jpg","M.jpg","1","1","1","",""
"","feedback","","html-keyboard-response","476","500495","0.0-1.0-699.0-0.0","0","0","93422","","null","","","null","77","","","","","","","","","","","","","","","",""
"","ITI","","html-keyboard-response","477","501507","0.0-1.0-702.0","0","0","93422","","null","","","null","77","","","","","","","","","","","","","","","NaN",""
"","S1","","html-keyboard-response","478","501762","0.0-1.0-704.0","0","0","93422","","null","","","null","78","","","","","","","","","","","","","","","",""
"","ISI","","html-keyboard-response","479","501926","0.0-1.0-705.0","0","0","93422","","null","","","null","78","NaN","","","","","","","","","","","","","","",""
"","S2","","html-keyboard-response","480","502085","0.0-1.0-706.0","0","0","93422","","157","","","68","78","","d","2","78","training","adjacent","BA","2","1","Q.jpg","P.jpg","1","0","0","",""
"","feedback","","html-keyboard-response","481","503094","0.0-1.0-708.0-0.0","0","0","93422","","null","","","null","78","","","","","","","","","","","","","","","",""
"","time_out","","html-keyboard-response","482","505106","0.0-1.0-710.0-0.0","0","0","93422","","null","","","null","78","","","","","","","","","","","","","","","",""
"","ITI","","html-keyboard-response","483","506110","0.0-1.0-711.0","0","0","93422","","null","","","null","78","","","","","","","","","","","","","","","NaN",""
"","S1","","html-keyboard-response","484","506371","0.0-1.0-713.0","0","0","93422","","null","","","null","79","","","","","","","","","","","","","","","",""
"","ISI","","html-keyboard-response","485","506530","0.0-1.0-714.0","0","0","93422","","null","","","null","79","NaN","","","","","","","","","","","","","","",""
"","S2","","html-keyboard-response","486","506785","0.0-1.0-715.0","0","0","93422","","null","","","null","79","","NaN","","","","","","","","","","","","","",""
"","response","","html-keyboard-response","487","508541","0.0-1.0-716.0-0.0","0","0","93422","","null","","","null","79","","","2","79","training","adjacent","CD","3","4","L.jpg","O.jpg","NaN","1","0","",""
"","too_slow_prompt","","html-keyboard-response","488","509556","0.0-1.0-718.0-0.0","1","0","93422","","null","","","null","","","","","","","","","","","","","","","","",""
"","time_out","","html-keyboard-response","489","511571","0.0-1.0-719.0-0.0","0","0","93422","","null","","","null","79","","","","","","","","","","","","","","","",""
"","ITI","","html-keyboard-response","490","512574","0.0-1.0-720.0","0","0","93422","","755","","","68","79","","","","","","","","","","","","","","","d",""
"","S1","","html-keyboard-response","491","512828","0.0-1.0-722.0","0","0","93422","","null","","","null","80","","","","","","","","","","","","","","","",""
"","ISI","","html-keyboard-response","492","512987","0.0-1.0-723.0","0","0","93422","","100","","","68","80","d","","","","","","","","","","","","","","",""
"","S2","","html-keyboard-response","493","513137","0.0-1.0-724.0","0","0","93422","","148","","","68","80","","d","2","80","training","adjacent","DE","4","5","O.jpg","M.jpg","1","1","1","",""
"","feedback","","html-keyboard-response","494","514140","0.0-1.0-726.0-0.0","0","0","93422","","null","","","null","80","","","","","","","","","","","","","","","",""
"","ITI","","html-keyboard-response","495","515149","0.0-1.0-729.0","0","0","93422","","null","","","null","80","","","","","","","","","","","","","","","NaN",""
"","S1","","html-keyboard-response","496","515417","0.0-1.0-731.0","0","0","93422","","null","","","null","81","","","","","","","","","","","","","","","",""
"","ISI","","html-keyboard-response","497","515573","0.0-1.0-732.0","0","0","93422","","66","","","75","81","k","","","","","","","","","","","","","","",""
"","S2","","html-keyboard-response","498","515755","0.0-1.0-733.0","0","0","93422","","180","","","75","81","","k","2","81","training","adjacent","DE","4","5","O.jpg","M.jpg","0","1","0","",""
"","feedback","","html-keyboard-response","499","516767","0.0-1.0-735.0-0.0","0","0","93422","","null","","","null","81","","","","","","","","","","","","","","","",""
"","time_out","","html-keyboard-response","500","518771","0.0-1.0-737.0-0.0","0","0","93422","","null","","","null","81","","","","","","","","","","","","","","","",""
"","ITI","","html-keyboard-response","501","519778","0.0-1.0-738.0","0","0","93422","","null","","","null","81","","","","","","","","","","","","","","","NaN",""
"","S1","","html-keyboard-response","502","520032","0.0-1.0-740.0","0","0","93422","","null","","","null","82","","","","","","","","","","","","","","","",""
"","ISI","","html-keyboard-response","503","520191","0.0-1.0-741.0","0","0","93422","","19","","","68","82","d","","","","","","","","","","","","","","",""
"","S2","","html-keyboard-response","504","520409","0.0-1.0-742.0","0","0","93422","","216","","","68","82","","d","2","82","training","adjacent","AB","1","2","P.jpg","Q.jpg","1","1","1","",""
"","feedback","","html-keyboard-response","505","521415","0.0-1.0-744.0-0.0","0","0","93422","","null","","","null","82","","","","","","","","","","","","","","","",""
"","ITI","","html-keyboard-response","506","522421","0.0-1.0-747.0","0","0","93422","","null","","","null","82","","","","","","","","","","","","","","","NaN",""
"","S1","","html-keyboard-response","507","522678","0.0-1.0-749.0","0","0","93422","","null","","","null","83","","","","","","","","","","","","","","","",""
"","ISI","","html-keyboard-response","508","522836","0.0-1.0-750.0","0","0","93422","","62","","","75","83","k","","","","","","","","","","","","","","",""
"","S2","","html-keyboard-response","509","523039","0.0-1.0-751.0","0","0","93422","","202","","","75","83","","k","2","83","training","adjacent","DC","4","3","O.jpg","L.jpg","0","0","1","",""
"","feedback","","html-keyboard-response","510","524043","0.0-1.0-753.0-0.0","0","0","93422","","null","","","null","83","","","","","","","","","","","","","","","",""
"","ITI","","html-keyboard-response","511","525046","0.0-1.0-756.0","0","0","93422","","null","","","null","83","","","","","","","","","","","","","","","NaN",""
"","S1","","html-keyboard-response","512","525304","0.0-1.0-758.0","0","0","93422","","null","","","null","84","","","","","","","","","","","","","","","",""
"","ISI","","html-keyboard-response","513","525461","0.0-1.0-759.0","0","0","93422","","null","","","null","84","NaN","","","","","","","","","","","","","","",""
"","S2","","html-keyboard-response","514","525716","0.0-1.0-760.0","0","0","93422","","null","","","null","84","","NaN","","","","","","","","","","","","","",""
"","response","","html-keyboard-response","515","525951","0.0-1.0-761.0-0.0","0","0","93422","","233","","","75","84","","","2","84","training","adjacent","ED","5","4","M.jpg","O.jpg","0","0","1","",""
"","feedback","","html-keyboard-response","516","526963","0.0-1.0-762.0-0.0","0","0","93422","","null","","","null","84","","","","","","","","","","","","","","","",""
"","ITI","","html-keyboard-response","517","527973","0.0-1.0-765.0","0","0","93422","","null","","","null","84","","","","","","","","","","","","","","","NaN",""
"","S1","","html-keyboard-response","518","528230","0.0-1.0-767.0","0","0","93422","","null","","","null","85","","","","","","","","","","","","","","","",""
"","ISI","","html-keyboard-response","519","528388","0.0-1.0-768.0","0","0","93422","","null","","","null","85","NaN","","","","","","","","","","","","","","",""
"","S2","","html-keyboard-response","520","528621","0.0-1.0-769.0","0","0","93422","","231","","","75","85","","k","2","85","training","adjacent","ED","5","4","M.jpg","O.jpg","0","0","1","",""
"","feedback","","html-keyboard-response","521","529629","0.0-1.0-771.0-0.0","0","0","93422","","null","","","null","85","","","","","","","","","","","","","","","",""
"","ITI","","html-keyboard-response","522","530641","0.0-1.0-774.0","0","0","93422","","null","","","null","85","","","","","","","","","","","","","","","NaN",""
"","S1","","html-keyboard-response","523","530908","0.0-1.0-776.0","0","0","93422","","null","","","null","86","","","","","","","","","","","","","","","",""
"","ISI","","html-keyboard-response","524","531064","0.0-1.0-777.0","0","0","93422","","null","","","null","86","NaN","","","","","","","","","","","","","","",""
"","S2","","html-keyboard-response","525","531322","0.0-1.0-778.0","0","0","93422","","null","","","null","86","","NaN","","","","","","","","","","","","","",""
"","response","","html-keyboard-response","526","531345","0.0-1.0-779.0-0.0","0","0","93422","","22","","","75","86","","","2","86","training","adjacent","CB","3","2","L.jpg","Q.jpg","0","0","1","",""
"","feedback","","html-keyboard-response","527","532349","0.0-1.0-780.0-0.0","0","0","93422","","null","","","null","86","","","","","","","","","","","","","","","",""
"","ITI","","html-keyboard-response","528","533355","0.0-1.0-783.0","0","0","93422","","null","","","null","86","","","","","","","","","","","","","","","NaN",""
"","S1","","html-keyboard-response","529","533622","0.0-1.0-785.0","0","0","93422","","null","","","null","87","","","","","","","","","","","","","","","",""
"","ISI","","html-keyboard-response","530","533779","0.0-1.0-786.0","0","0","93422","","null","","","null","87","NaN","","","","","","","","","","","","","","",""
"","S2","","html-keyboard-response","531","534024","0.0-1.0-787.0","0","0","93422","","244","","","75","87","","k","2","87","training","adjacent","CB","3","2","L.jpg","Q.jpg","0","0","1","",""
"","feedback","","html-keyboard-response","532","535033","0.0-1.0-789.0-0.0","0","0","93422","","null","","","null","87","","","","","","","","","","","","","","","",""
"","ITI","","html-keyboard-response","533","536043","0.0-1.0-792.0","0","0","93422","","null","","","null","87","","","","","","","","","","","","","","","NaN",""
"","S1","","html-keyboard-response","534","536300","0.0-1.0-794.0","0","0","93422","","null","","","null","88","","","","","","","","","","","","","","","",""
"","ISI","","html-keyboard-response","535","536465","0.0-1.0-795.0","0","0","93422","","null","","","null","88","NaN","","","","","","","","","","","","","","",""
"","S2","","html-keyboard-response","536","536722","0.0-1.0-796.0","0","0","93422","","null","","","null","88","","NaN","","","","","","","","","","","","","",""
"","response","","html-keyboard-response","537","538482","0.0-1.0-797.0-0.0","0","0","93422","","null","","","null","88","","","2","88","training","adjacent","ED","5","4","M.jpg","O.jpg","NaN","0","0","",""
"","too_slow_prompt","","html-keyboard-response","538","539487","0.0-1.0-799.0-0.0","1","0","93422","","null","","","null","","","","","","","","","","","","","","","","",""
"","time_out","","html-keyboard-response","539","541496","0.0-1.0-800.0-0.0","0","0","93422","","null","","","null","88","","","","","","","","","","","","","","","",""
"","ITI","","html-keyboard-response","540","542499","0.0-1.0-801.0","0","0","93422","","null","","","null","88","","","","","","","","","","","","","","","NaN",""
"","S1","","html-keyboard-response","541","542756","0.0-1.0-803.0","0","0","93422","","null","","","null","89","","","","","","","","","","","","","","","",""
"","ISI","","html-keyboard-response","542","542916","0.0-1.0-804.0","0","0","93422","","null","","","null","89","NaN","","","","","","","","","","","","","","",""
"","S2","","html-keyboard-response","543","543176","0.0-1.0-805.0","0","0","93422","","null","","","null","89","","NaN","","","","","","","","","","","","","",""
"","response","","html-keyboard-response","544","544933","0.0-1.0-806.0-0.0","0","0","93422","","null","","","null","89","","","2","89","training","adjacent","DC","4","3","O.jpg","L.jpg","NaN","0","0","",""
"","too_slow_prompt","","html-keyboard-response","545","545950","0.0-1.0-808.0-0.0","1","0","93422","","null","","","null","","","","","","","","","","","","","","","","",""
"","time_out","","html-keyboard-response","546","547956","0.0-1.0-809.0-0.0","0","0","93422","","null","","","null","89","","","","","","","","","","","","","","","",""
"","ITI","","html-keyboard-response","547","548959","0.0-1.0-810.0","0","0","93422","","761","","","68","89","","","","","","","","","","","","","","","d",""
"","S1","","html-keyboard-response","548","549211","0.0-1.0-812.0","0","0","93422","","null","","","null","90","","","","","","","","","","","","","","","",""
"","ISI","","html-keyboard-response","549","549377","0.0-1.0-813.0","0","0","93422","","38","","","68","90","d","","","","","","","","","","","","","","",""
"","S2","","html-keyboard-response","550","549525","0.0-1.0-814.0","0","0","93422","","146","","","68","90","","d","2","90","training","adjacent","FE","6","5","R.jpg","M.jpg","1","0","0","",""
"","feedback","","html-keyboard-response","551","550532","0.0-1.0-816.0-0.0","0","0","93422","","null","","","null","90","","","","","","","","","","","","","","","",""
"","time_out","","html-keyboard-response","552","552534","0.0-1.0-818.0-0.0","0","0","93422","","null","","","null","90","","","","","","","","","","","","","","","",""
"","ITI","","html-keyboard-response","553","553539","0.0-1.0-819.0","0","0","93422","","null","","","null","90","","","","","","","","","","","","","","","NaN",""
"","S1","","html-keyboard-response","554","553794","0.0-1.0-821.0","0","0","93422","","null","","","null","91","","","","","","","","","","","","","","","",""
"","ISI","","html-keyboard-response","555","553951","0.0-1.0-822.0","0","0","93422","","134","","","75","91","k","","","","","","","","","","","","","","",""
"","S2","","html-keyboard-response","556","554218","0.0-1.0-823.0","0","0","93422","","null","","","null","91","","NaN","","","","","","","","","","","","","",""
"","response","","html-keyboard-response","557","554229","0.0-1.0-824.0-0.0","0","0","93422","","10","","","75","91","","","2","91","training","adjacent","CB","3","2","L.jpg","Q.jpg","0","0","1","",""
"","feedback","","html-keyboard-response","558","555239","0.0-1.0-825.0-0.0","0","0","93422","","null","","","null","91","","","","","","","","","","","","","","","",""
"","ITI","","html-keyboard-response","559","556247","0.0-1.0-828.0","0","0","93422","","null","","","null","91","","","","","","","","","","","","","","","NaN",""
"","S1","","html-keyboard-response","560","556504","0.0-1.0-830.0","0","0","93422","","null","","","null","92","","","","","","","","","","","","","","","",""
"","ISI","","html-keyboard-response","561","556662","0.0-1.0-831.0","0","0","93422","","null","","","null","92","NaN","","","","","","","","","","","","","","",""
"","S2","","html-keyboard-response","562","556918","0.0-1.0-832.0","0","0","93422","","null","","","null","92","","NaN","","","","","","","","","","","","","",""
"","response","","html-keyboard-response","563","557113","0.0-1.0-833.0-0.0","0","0","93422","","194","","","68","92","","","2","92","training","adjacent","EF","5","6","M.jpg","R.jpg","1","1","1","",""
"","feedback","","html-keyboard-response","564","558125","0.0-1.0-834.0-0.0","0","0","93422","","null","","","null","92","","","","","","","","","","","","","","","",""
"","ITI","","html-keyboard-response","565","559136","0.0-1.0-837.0","0","0","93422","","null","","","null","92","","","","","","","","","","","","","","","NaN",""
"","S1","","html-keyboard-response","566","559398","0.0-1.0-839.0","0","0","93422","","null","","","null","93","","","","","","","","","","","","","","","",""
"","ISI","","html-keyboard-response","567","559555","0.0-1.0-840.0","0","0","93422","","null","","","null","93","NaN","","","","","","","","","","","","","","",""
"","S2","","html-keyboard-response","568","559615","0.0-1.0-841.0","0","0","93422","","57","","","68","93","","d","2","93","training","adjacent","CD","3","4","L.jpg","O.jpg","1","1","1","",""
"","feedback","","html-keyboard-response","569","560628","0.0-1.0-843.0-0.0","0","0","93422","","null","","","null","93","","","","","","","","","","","","","","","",""
"","ITI","","html-keyboard-response","570","561635","0.0-1.0-846.0","0","0","93422","","null","","","null","93","","","","","","","","","","","","","","","NaN",""
"","S1","","html-keyboard-response","571","561900","0.0-1.0-848.0","0","0","93422","","null","","","null","94","","","","","","","","","","","","","","","",""
"","ISI","","html-keyboard-response","572","562055","0.0-1.0-849.0","0","0","93422","","null","","","null","94","NaN","","","","","","","","","","","","","","",""
"","S2","","html-keyboard-response","573","562117","0.0-1.0-850.0","0","0","93422","","60","","","68","94","","d","2","94","training","adjacent","AB","1","2","P.jpg","Q.jpg","1","1","1","",""
"","feedback","","html-keyboard-response","574","563120","0.0-1.0-852.0-0.0","0","0","93422","","null","","","null","94","","","","","","","","","","","","","","","",""
"","ITI","","html-keyboard-response","575","564127","0.0-1.0-855.0","0","0","93422","","null","","","null","94","","","","","","","","","","","","","","","NaN",""
"","S1","","html-keyboard-response","576","564387","0.0-1.0-857.0","0","0","93422","","null","","","null","95","","","","","","","","","","","","","","","",""
"","ISI","","html-keyboard-response","577","564543","0.0-1.0-858.0","0","0","93422","","null","","","null","95","NaN","","","","","","","","","","","","","","",""
"","S2","","html-keyboard-response","578","564695","0.0-1.0-859.0","0","0","93422","","150","","","68","95","","d","2","95","training","adjacent","BC","2","3","Q.jpg","L.jpg","1","1","1","",""
"","feedback","","html-keyboard-response","579","565700","0.0-1.0-861.0-0.0","0","0","93422","","null","","","null","95","","","","","","","","","","","","","","","",""
"","ITI","","html-keyboard-response","580","566708","0.0-1.0-864.0","0","0","93422","","null","","","null","95","","","","","","","","","","","","","","","NaN",""
"","block_over","","html-keyboard-response","581","603567","0.0-1.0-865.0-0.0","0","0","93422","","36858","","","32","95","","","","","","","","","","","","","","","",""
"","S1","","html-keyboard-response","582","603825","0.0-1.0-866.0","0","0","93422","","null","","","null","96","","","","","","","","","","","","","","","",""
