"success","ttype","start_time","trial_type","trial_index","time_elapsed","internal_node_id","warning","missed_checkup","PID","view_history","rt","responses","repeat_instructions","key_press","index","keypress_isi","keypress_S2","block","trial_num","phase","group_type","pair_type","S1_stim","S2_stim","S1_img","S2_img","S1_chosen","S1_higher","accuracy","keypress_iti","total_bonus_tally"
"true","full_screen","d08042022hr0820","fullscreen","0","112712","0.0-0.0","0","0","85570","","","","","","","","","","","","","","","","","","","","","",""
"","instructions","","instructions","1","153519","0.0-1.0-0.0-0.0","0","0","85570","[{""page_index"":0,""viewing_time"":4716},{""page_index"":1,""viewing_time"":22920},{""page_index"":2,""viewing_time"":8869},{""page_index"":3,""viewing_time"":4301}]","40806","","","","","","","","","","","","","","","","","","","",""
"","comprehension_check","","survey-multi-choice","2","172096","0.0-1.0-0.0-1.0","0","0","85570","","18574","{""Q0"":""True"",""Q1"":""D"",""Q2"":""Only when the screen 'MAKE A CHOICE' is shown"",""Q3"":""Green mark"",""Q4"":""either D or K""}","1","","","","","","","","","","","","","","","","","",""
"","missed_instruction_checkup","","html-keyboard-response","3","173890","0.0-1.0-0.0-2.0-0.0","0","1","85570","","1790","","","32","","","","","","","","","","","","","","","","",""
"","instructions","","instructions","4","186192","0.0-1.0-0.1-0.1","0","0","85570","[{""page_index"":0,""viewing_time"":1479},{""page_index"":1,""viewing_time"":9529},{""page_index"":2,""viewing_time"":762},{""page_index"":3,""viewing_time"":530}]","12300","","","","","","","","","","","","","","","","","","","",""
"","comprehension_check","","survey-multi-choice","5","199555","0.0-1.0-0.1-1.1","0","0","85570","","13360","{""Q0"":""True"",""Q1"":""D"",""Q2"":""Once the second image appears and while the screen 'MAKE A CHOICE' is shown"",""Q3"":""Green mark"",""Q4"":""either D or K""}","0","","","","","","","","","","","","","","","","","",""
"","start_exp","","html-keyboard-response","6","200601","0.0-1.0-1.0","0","0","85570","","1043","","","32","","","","","","","","","","","","","","","","",""
"","S1","","html-keyboard-response","7","200854","0.0-1.0-2.0","0","0","85570","","null","","","null","0","","","","","","","","","","","","","","","",""
"","ISI","","html-keyboard-response","8","202857","0.0-1.0-3.0","0","0","85570","","813","","","68","0","d","","","","","","","","","","","","","","",""
"","S2","","html-keyboard-response","9","203109","0.0-1.0-4.0","0","0","85570","","null","","","null","0","","NaN","","","","","","","","","","","","","",""
"","response","","html-keyboard-response","10","204011","0.0-1.0-5.0-0.0","0","0","85570","","902","","","75","0","","","1","0","training","adjacent","EF","5","6","L.jpg","R.jpg","0","1","0","",""
"","feedback","","html-keyboard-response","11","205014","0.0-1.0-6.0-0.0","0","0","85570","","null","","","null","0","","","","","","","","","","","","","","","",""
"","time_out","","html-keyboard-response","12","207017","0.0-1.0-8.0-0.0","0","0","85570","","null","","","null","0","","","","","","","","","","","","","","","",""
"","ITI","","html-keyboard-response","13","208019","0.0-1.0-9.0","0","0","85570","","null","","","null","0","","","","","","","","","","","","","","","NaN",""
"","S1","","html-keyboard-response","14","208271","0.0-1.0-11.0","0","0","85570","","null","","","null","1","","","","","","","","","","","","","","","",""
"","ISI","","html-keyboard-response","15","210273","0.0-1.0-12.0","0","0","85570","","null","","","null","1","NaN","","","","","","","","","","","","","","",""
"","S2","","html-keyboard-response","16","210525","0.0-1.0-13.0","0","0","85570","","null","","","null","1","","NaN","","","","","","","","","","","","","",""
"","response","","html-keyboard-response","17","210967","0.0-1.0-14.0-0.0","0","0","85570","","441","","","75","1","","","1","1","training","adjacent","DC","4","3","O.jpg","P.jpg","0","0","1","",""
"","feedback","","html-keyboard-response","18","211970","0.0-1.0-15.0-0.0","0","0","85570","","null","","","null","1","","","","","","","","","","","","","","","",""
"","ITI","","html-keyboard-response","19","212973","0.0-1.0-18.0","0","0","85570","","null","","","null","1","","","","","","","","","","","","","","","NaN",""
"","S1","","html-keyboard-response","20","213225","0.0-1.0-20.0","0","0","85570","","null","","","null","2","","","","","","","","","","","","","","","",""
"","ISI","","html-keyboard-response","21","215227","0.0-1.0-21.0","0","0","85570","","null","","","null","2","NaN","","","","","","","","","","","","","","",""
"","S2","","html-keyboard-response","22","215479","0.0-1.0-22.0","0","0","85570","","null","","","null","2","","NaN","","","","","","","","","","","","","",""
"","response","","html-keyboard-response","23","216248","0.0-1.0-23.0-0.0","0","0","85570","","768","","","75","2","","","1","2","training","adjacent","AB","1","2","M.jpg","N.jpg","0","1","0","",""
"","feedback","","html-keyboard-response","24","217250","0.0-1.0-24.0-0.0","0","0","85570","","null","","","null","2","","","","","","","","","","","","","","","",""
"","time_out","","html-keyboard-response","25","219253","0.0-1.0-26.0-0.0","0","0","85570","","null","","","null","2","","","","","","","","","","","","","","","",""
"","ITI","","html-keyboard-response","26","220254","0.0-1.0-27.0","0","0","85570","","null","","","null","2","","","","","","","","","","","","","","","NaN",""
"","S1","","html-keyboard-response","27","220506","0.0-1.0-29.0","0","0","85570","","null","","","null","3","","","","","","","","","","","","","","","",""
"","ISI","","html-keyboard-response","28","222509","0.0-1.0-30.0","0","0","85570","","null","","","null","3","NaN","","","","","","","","","","","","","","",""
"","S2","","html-keyboard-response","29","222761","0.0-1.0-31.0","0","0","85570","","null","","","null","3","","NaN","","","","","","","","","","","","","",""
"","response","","html-keyboard-response","30","222994","0.0-1.0-32.0-0.0","0","0","85570","","231","","","68","3","","","1","3","training","adjacent","FE","6","5","R.jpg","L.jpg","1","0","0","",""
"","feedback","","html-keyboard-response","31","223997","0.0-1.0-33.0-0.0","0","0","85570","","null","","","null","3","","","","","","","","","","","","","","","",""
"","time_out","","html-keyboard-response","32","226000","0.0-1.0-35.0-0.0","0","0","85570","","null","","","null","3","","","","","","","","","","","","","","","",""
"","ITI","","html-keyboard-response","33","227002","0.0-1.0-36.0","0","0","85570","","null","","","null","3","","","","","","","","","","","","","","","NaN",""
"","S1","","html-keyboard-response","34","227255","0.0-1.0-38.0","0","0","85570","","null","","","null","4","","","","","","","","","","","","","","","",""
"","ISI","","html-keyboard-response","35","229256","0.0-1.0-39.0","0","0","85570","","null","","","null","4","NaN","","","","","","","","","","","","","","",""
"","S2","","html-keyboard-response","36","229509","0.0-1.0-40.0","0","0","85570","","null","","","null","4","","NaN","","","","","","","","","","","","","",""
"","response","","html-keyboard-response","37","229718","0.0-1.0-41.0-0.0","0","0","85570","","208","","","75","4","","","1","4","training","adjacent","FG","6","7","R.jpg","Q.jpg","0","1","0","",""
"","feedback","","html-keyboard-response","38","230720","0.0-1.0-42.0-0.0","0","0","85570","","null","","","null","4","","","","","","","","","","","","","","","",""
"","time_out","","html-keyboard-response","39","232723","0.0-1.0-44.0-0.0","0","0","85570","","null","","","null","4","","","","","","","","","","","","","","","",""
"","ITI","","html-keyboard-response","40","233725","0.0-1.0-45.0","0","0","85570","","null","","","null","4","","","","","","","","","","","","","","","NaN",""
"","S1","","html-keyboard-response","41","233978","0.0-1.0-47.0","0","0","85570","","null","","","null","5","","","","","","","","","","","","","","","",""
"","ISI","","html-keyboard-response","42","235980","0.0-1.0-48.0","0","0","85570","","null","","","null","5","NaN","","","","","","","","","","","","","","",""
"","S2","","html-keyboard-response","43","236233","0.0-1.0-49.0","0","0","85570","","null","","","null","5","","NaN","","","","","","","","","","","","","",""
"","response","","html-keyboard-response","44","236423","0.0-1.0-50.0-0.0","0","0","85570","","189","","","75","5","","","1","5","training","adjacent","BA","2","1","N.jpg","M.jpg","0","0","1","",""
"","feedback","","html-keyboard-response","45","237425","0.0-1.0-51.0-0.0","0","0","85570","","null","","","null","5","","","","","","","","","","","","","","","",""
"","ITI","","html-keyboard-response","46","238428","0.0-1.0-54.0","0","0","85570","","null","","","null","5","","","","","","","","","","","","","","","NaN",""
"","S1","","html-keyboard-response","47","238680","0.0-1.0-56.0","0","0","85570","","null","","","null","6","","","","","","","","","","","","","","","",""
"","ISI","","html-keyboard-response","48","240683","0.0-1.0-57.0","0","0","85570","","null","","","null","6","NaN","","","","","","","","","","","","","","",""
"","S2","","html-keyboard-response","49","240935","0.0-1.0-58.0","0","0","85570","","null","","","null","6","","NaN","","","","","","","","","","","","","",""
"","response","","html-keyboard-response","50","242686","0.0-1.0-59.0-0.0","0","0","85570","","null","","","null","6","","","1","6","training","adjacent","DC","4","3","O.jpg","P.jpg","NaN","0","0","",""
"","too_slow_prompt","","html-keyboard-response","51","243689","0.0-1.0-61.0-0.0","1","0","85570","","null","","","null","","","","","","","","","","","","","","","","",""
"","time_out","","html-keyboard-response","52","245691","0.0-1.0-62.0-0.0","0","0","85570","","null","","","null","6","","","","","","","","","","","","","","","",""
"","ITI","","html-keyboard-response","53","246694","0.0-1.0-63.0","0","0","85570","","null","","","null","6","","","","","","","","","","","","","","","NaN",""
"","S1","","html-keyboard-response","54","246946","0.0-1.0-65.0","0","0","85570","","null","","","null","7","","","","","","","","","","","","","","","",""
"","ISI","","html-keyboard-response","55","248948","0.0-1.0-66.0","0","0","85570","","null","","","null","7","NaN","","","","","","","","","","","","","","",""
"","S2","","html-keyboard-response","56","249200","0.0-1.0-67.0","0","0","85570","","null","","","null","7","","NaN","","","","","","","","","","","","","",""
"","response","","html-keyboard-response","57","249344","0.0-1.0-68.0-0.0","0","0","85570","","143","","","75","7","","","1","7","training","adjacent","DE","4","5","O.jpg","L.jpg","0","1","0","",""
"","feedback","","html-keyboard-response","58","250347","0.0-1.0-69.0-0.0","0","0","85570","","null","","","null","7","","","","","","","","","","","","","","","",""
"","time_out","","html-keyboard-response","59","252349","0.0-1.0-71.0-0.0","0","0","85570","","null","","","null","7","","","","","","","","","","","","","","","",""
"","ITI","","html-keyboard-response","60","253352","0.0-1.0-72.0","0","0","85570","","null","","","null","7","","","","","","","","","","","","","","","NaN",""
"","S1","","html-keyboard-response","61","253604","0.0-1.0-74.0","0","0","85570","","null","","","null","8","","","","","","","","","","","","","","","",""
"","ISI","","html-keyboard-response","62","255607","0.0-1.0-75.0","0","0","85570","","null","","","null","8","NaN","","","","","","","","","","","","","","",""
"","S2","","html-keyboard-response","63","255859","0.0-1.0-76.0","0","0","85570","","null","","","null","8","","NaN","","","","","","","","","","","","","",""
"","response","","html-keyboard-response","64","256372","0.0-1.0-77.0-0.0","0","0","85570","","512","","","75","8","","","1","8","training","adjacent","ED","5","4","L.jpg","O.jpg","0","0","1","",""
"","feedback","","html-keyboard-response","65","257375","0.0-1.0-78.0-0.0","0","0","85570","","null","","","null","8","","","","","","","","","","","","","","","",""
"","ITI","","html-keyboard-response","66","258377","0.0-1.0-81.0","0","0","85570","","null","","","null","8","","","","","","","","","","","","","","","NaN",""
"","S1","","html-keyboard-response","67","258629","0.0-1.0-83.0","0","0","85570","","null","","","null","9","","","","","","","","","","","","","","","",""
"","ISI","","html-keyboard-response","68","260630","0.0-1.0-84.0","0","0","85570","","null","","","null","9","NaN","","","","","","","","","","","","","","",""
"","S2","","html-keyboard-response","69","260883","0.0-1.0-85.0","0","0","85570","","null","","","null","9","","NaN","","","","","","","","","","","","","",""
"","response","","html-keyboard-response","70","261124","0.0-1.0-86.0-0.0","0","0","85570","","240","","","68","9","","","1","9","training","adjacent","BC","2","3","N.jpg","P.jpg","1","1","1","",""
"","feedback","","html-keyboard-response","71","262126","0.0-1.0-87.0-0.0","0","0","85570","","null","","","null","9","","","","","","","","","","","","","","","",""
"","ITI","","html-keyboard-response","72","263129","0.0-1.0-90.0","0","0","85570","","null","","","null","9","","","","","","","","","","","","","","","NaN",""
"","S1","","html-keyboard-response","73","263382","0.0-1.0-92.0","0","0","85570","","null","","","null","10","","","","","","","","","","","","","","","",""
"","ISI","","html-keyboard-response","74","265384","0.0-1.0-93.0","0","0","85570","","null","","","null","10","NaN","","","","","","","","","","","","","","",""
"","S2","","html-keyboard-response","75","265636","0.0-1.0-94.0","0","0","85570","","null","","","null","10","","NaN","","","","","","","","","","","","","",""
"","response","","html-keyboard-response","76","265930","0.0-1.0-95.0-0.0","0","0","85570","","293","","","68","10","","","1","10","training","adjacent","BC","2","3","N.jpg","P.jpg","1","1","1","",""
"","feedback","","html-keyboard-response","77","266931","0.0-1.0-96.0-0.0","0","0","85570","","null","","","null","10","","","","","","","","","","","","","","","",""
"","ITI","","html-keyboard-response","78","267934","0.0-1.0-99.0","0","0","85570","","null","","","null","10","","","","","","","","","","","","","","","NaN",""
"","S1","","html-keyboard-response","79","268186","0.0-1.0-101.0","0","0","85570","","null","","","null","11","","","","","","","","","","","","","","","",""
"","ISI","","html-keyboard-response","80","270188","0.0-1.0-102.0","0","0","85570","","null","","","null","11","NaN","","","","","","","","","","","","","","",""
"","S2","","html-keyboard-response","81","270440","0.0-1.0-103.0","0","0","85570","","null","","","null","11","","NaN","","","","","","","","","","","","","",""
"","response","","html-keyboard-response","82","270777","0.0-1.0-104.0-0.0","0","0","85570","","336","","","75","11","","","1","11","training","adjacent","CD","3","4","P.jpg","O.jpg","0","1","0","",""
"","feedback","","html-keyboard-response","83","271780","0.0-1.0-105.0-0.0","0","0","85570","","null","","","null","11","","","","","","","","","","","","","","","",""
"","time_out","","html-keyboard-response","84","273782","0.0-1.0-107.0-0.0","0","0","85570","","null","","","null","11","","","","","","","","","","","","","","","",""
"","ITI","","html-keyboard-response","85","274783","0.0-1.0-108.0","0","0","85570","","null","","","null","11","","","","","","","","","","","","","","","NaN",""
"","S1","","html-keyboard-response","86","275036","0.0-1.0-110.0","0","0","85570","","null","","","null","12","","","","","","","","","","","","","","","",""
"","ISI","","html-keyboard-response","87","277038","0.0-1.0-111.0","0","0","85570","","null","","","null","12","NaN","","","","","","","","","","","","","","",""
"","S2","","html-keyboard-response","88","277291","0.0-1.0-112.0","0","0","85570","","null","","","null","12","","NaN","","","","","","","","","","","","","",""
"","response","","html-keyboard-response","89","277455","0.0-1.0-113.0-0.0","0","0","85570","","163","","","68","12","","","1","12","training","adjacent","FE","6","5","R.jpg","L.jpg","1","0","0","",""
"","feedback","","html-keyboard-response","90","278458","0.0-1.0-114.0-0.0","0","0","85570","","null","","","null","12","","","","","","","","","","","","","","","",""
"","time_out","","html-keyboard-response","91","280460","0.0-1.0-116.0-0.0","0","0","85570","","null","","","null","12","","","","","","","","","","","","","","","",""
"","ITI","","html-keyboard-response","92","281463","0.0-1.0-117.0","0","0","85570","","null","","","null","12","","","","","","","","","","","","","","","NaN",""
"","S1","","html-keyboard-response","93","281715","0.0-1.0-119.0","0","0","85570","","null","","","null","13","","","","","","","","","","","","","","","",""
"","ISI","","html-keyboard-response","94","283717","0.0-1.0-120.0","0","0","85570","","null","","","null","13","NaN","","","","","","","","","","","","","","",""
"","S2","","html-keyboard-response","95","283969","0.0-1.0-121.0","0","0","85570","","null","","","null","13","","NaN","","","","","","","","","","","","","",""
"","response","","html-keyboard-response","96","284277","0.0-1.0-122.0-0.0","0","0","85570","","307","","","75","13","","","1","13","training","adjacent","EF","5","6","L.jpg","R.jpg","0","1","0","",""
"","feedback","","html-keyboard-response","97","285278","0.0-1.0-123.0-0.0","0","0","85570","","null","","","null","13","","","","","","","","","","","","","","","",""
"","time_out","","html-keyboard-response","98","287281","0.0-1.0-125.0-0.0","0","0","85570","","null","","","null","13","","","","","","","","","","","","","","","",""
"","ITI","","html-keyboard-response","99","288283","0.0-1.0-126.0","0","0","85570","","null","","","null","13","","","","","","","","","","","","","","","NaN",""
"","S1","","html-keyboard-response","100","288536","0.0-1.0-128.0","0","0","85570","","null","","","null","14","","","","","","","","","","","","","","","",""
"","ISI","","html-keyboard-response","101","290540","0.0-1.0-129.0","0","0","85570","","null","","","null","14","NaN","","","","","","","","","","","","","","",""
"","S2","","html-keyboard-response","102","290807","0.0-1.0-130.0","0","0","85570","","null","","","null","14","","NaN","","","","","","","","","","","","","",""
"","response","","html-keyboard-response","103","290931","0.0-1.0-131.0-0.0","0","0","85570","","122","","","68","14","","","1","14","training","adjacent","ED","5","4","L.jpg","O.jpg","1","0","0","",""
"","feedback","","html-keyboard-response","104","291934","0.0-1.0-132.0-0.0","0","0","85570","","null","","","null","14","","","","","","","","","","","","","","","",""
"","time_out","","html-keyboard-response","105","293936","0.0-1.0-134.0-0.0","0","0","85570","","null","","","null","14","","","","","","","","","","","","","","","",""
"","ITI","","html-keyboard-response","106","294938","0.0-1.0-135.0","0","0","85570","","null","","","null","14","","","","","","","","","","","","","","","NaN",""
"","S1","","html-keyboard-response","107","295191","0.0-1.0-137.0","0","0","85570","","null","","","null","15","","","","","","","","","","","","","","","",""
"","ISI","","html-keyboard-response","108","297192","0.0-1.0-138.0","0","0","85570","","null","","","null","15","NaN","","","","","","","","","","","","","","",""
"","S2","","html-keyboard-response","109","297444","0.0-1.0-139.0","0","0","85570","","null","","","null","15","","NaN","","","","","","","","","","","","","",""
"","response","","html-keyboard-response","110","297761","0.0-1.0-140.0-0.0","0","0","85570","","315","","","75","15","","","1","15","training","adjacent","CD","3","4","P.jpg","O.jpg","0","1","0","",""
"","feedback","","html-keyboard-response","111","298764","0.0-1.0-141.0-0.0","0","0","85570","","null","","","null","15","","","","","","","","","","","","","","","",""
"","time_out","","html-keyboard-response","112","300767","0.0-1.0-143.0-0.0","0","0","85570","","null","","","null","15","","","","","","","","","","","","","","","",""
"","ITI","","html-keyboard-response","113","301781","0.0-1.0-144.0","0","0","85570","","null","","","null","15","","","","","","","","","","","","","","","NaN",""
"","S1","","html-keyboard-response","114","302033","0.0-1.0-146.0","0","0","85570","","null","","","null","16","","","","","","","","","","","","","","","",""
"","ISI","","html-keyboard-response","115","304036","0.0-1.0-147.0","0","0","85570","","null","","","null","16","NaN","","","","","","","","","","","","","","",""
"","S2","","html-keyboard-response","116","304288","0.0-1.0-148.0","0","0","85570","","null","","","null","16","","NaN","","","","","","","","","","","","","",""
"","response","","html-keyboard-response","117","304534","0.0-1.0-149.0-0.0","0","0","85570","","245","","","75","16","","","1","16","training","adjacent","FG","6","7","R.jpg","Q.jpg","0","1","0","",""
"","feedback","","html-keyboard-response","118","305536","0.0-1.0-150.0-0.0","0","0","85570","","null","","","null","16","","","","","","","","","","","","","","","",""
"","time_out","","html-keyboard-response","119","307539","0.0-1.0-152.0-0.0","0","0","85570","","null","","","null","16","","","","","","","","","","","","","","","",""
"","ITI","","html-keyboard-response","120","308546","0.0-1.0-153.0","0","0","85570","","null","","","null","16","","","","","","","","","","","","","","","NaN",""
"","S1","","html-keyboard-response","121","308798","0.0-1.0-155.0","0","0","85570","","null","","","null","17","","","","","","","","","","","","","","","",""
"","ISI","","html-keyboard-response","122","310801","0.0-1.0-156.0","0","0","85570","","null","","","null","17","NaN","","","","","","","","","","","","","","",""
"","S2","","html-keyboard-response","123","311053","0.0-1.0-157.0","0","0","85570","","null","","","null","17","","NaN","","","","","","","","","","","","","",""
"","response","","html-keyboard-response","124","311435","0.0-1.0-158.0-0.0","0","0","85570","","381","","","75","17","","","1","17","training","adjacent","BC","2","3","N.jpg","P.jpg","0","1","0","",""
"","feedback","","html-keyboard-response","125","312437","0.0-1.0-159.0-0.0","0","0","85570","","null","","","null","17","","","","","","","","","","","","","","","",""
"","time_out","","html-keyboard-response","126","314440","0.0-1.0-161.0-0.0","0","0","85570","","null","","","null","17","","","","","","","","","","","","","","","",""
"","ITI","","html-keyboard-response","127","315441","0.0-1.0-162.0","0","0","85570","","null","","","null","17","","","","","","","","","","","","","","","NaN",""
"","S1","","html-keyboard-response","128","315694","0.0-1.0-164.0","0","0","85570","","null","","","null","18","","","","","","","","","","","","","","","",""
"","ISI","","html-keyboard-response","129","317696","0.0-1.0-165.0","0","0","85570","","null","","","null","18","NaN","","","","","","","","","","","","","","",""
"","S2","","html-keyboard-response","130","317949","0.0-1.0-166.0","0","0","85570","","null","","","null","18","","NaN","","","","","","","","","","","","","",""
"","response","","html-keyboard-response","131","318290","0.0-1.0-167.0-0.0","0","0","85570","","340","","","75","18","","","1","18","training","adjacent","DC","4","3","O.jpg","P.jpg","0","0","1","",""
"","feedback","","html-keyboard-response","132","319293","0.0-1.0-168.0-0.0","0","0","85570","","null","","","null","18","","","","","","","","","","","","","","","",""
"","ITI","","html-keyboard-response","133","320294","0.0-1.0-171.0","0","0","85570","","null","","","null","18","","","","","","","","","","","","","","","NaN",""
"","S1","","html-keyboard-response","134","320547","0.0-1.0-173.0","0","0","85570","","null","","","null","19","","","","","","","","","","","","","","","",""
"","ISI","","html-keyboard-response","135","322549","0.0-1.0-174.0","0","0","85570","","null","","","null","19","NaN","","","","","","","","","","","","","","",""
"","S2","","html-keyboard-response","136","322802","0.0-1.0-175.0","0","0","85570","","null","","","null","19","","NaN","","","","","","","","","","","","","",""
"","response","","html-keyboard-response","137","323124","0.0-1.0-176.0-0.0","0","0","85570","","321","","","68","19","","","1","19","training","adjacent","AB","1","2","M.jpg","N.jpg","1","1","1","",""
"","feedback","","html-keyboard-response","138","324126","0.0-1.0-177.0-0.0","0","0","85570","","null","","","null","19","","","","","","","","","","","","","","","",""
"","ITI","","html-keyboard-response","139","325127","0.0-1.0-180.0","0","0","85570","","null","","","null","19","","","","","","","","","","","","","","","NaN",""
"","S1","","html-keyboard-response","140","325380","0.0-1.0-182.0","0","0","85570","","null","","","null","20","","","","","","","","","","","","","","","",""
"","ISI","","html-keyboard-response","141","327382","0.0-1.0-183.0","0","0","85570","","null","","","null","20","NaN","","","","","","","","","","","","","","",""
"","S2","","html-keyboard-response","142","327635","0.0-1.0-184.0","0","0","85570","","null","","","null","20","","NaN","","","","","","","","","","","","","",""
"","response","","html-keyboard-response","143","328027","0.0-1.0-185.0-0.0","0","0","85570","","391","","","75","20","","","1","20","training","adjacent","CB","3","2","P.jpg","N.jpg","0","0","1","",""
"","feedback","","html-keyboard-response","144","329029","0.0-1.0-186.0-0.0","0","0","85570","","null","","","null","20","","","","","","","","","","","","","","","",""
"","ITI","","html-keyboard-response","145","330031","0.0-1.0-189.0","0","0","85570","","null","","","null","20","","","","","","","","","","","","","","","NaN",""
"","S1","","html-keyboard-response","146","330284","0.0-1.0-191.0","0","0","85570","","null","","","null","21","","","","","","","","","","","","","","","",""
"","ISI","","html-keyboard-response","147","332285","0.0-1.0-192.0","0","0","85570","","null","","","null","21","NaN","","","","","","","","","","","","","","",""
"","S2","","html-keyboard-response","148","332538","0.0-1.0-193.0","0","0","85570","","null","","","null","21","","NaN","","","","","","","","","","","","","",""
"","response","","html-keyboard-response","149","332884","0.0-1.0-194.0-0.0","0","0","85570","","345","","","68","21","","","1","21","training","adjacent","DE","4","5","O.jpg","L.jpg","1","1","1","",""
"","feedback","","html-keyboard-response","150","333886","0.0-1.0-195.0-0.0","0","0","85570","","null","","","null","21","","","","","","","","","","","","","","","",""
"","ITI","","html-keyboard-response","151","334888","0.0-1.0-198.0","0","0","85570","","null","","","null","21","","","","","","","","","","","","","","","NaN",""
"","S1","","html-keyboard-response","152","335141","0.0-1.0-200.0","0","0","85570","","null","","","null","22","","","","","","","","","","","","","","","",""
"","ISI","","html-keyboard-response","153","337142","0.0-1.0-201.0","0","0","85570","","null","","","null","22","NaN","","","","","","","","","","","","","","",""
"","S2","","html-keyboard-response","154","337395","0.0-1.0-202.0","0","0","85570","","null","","","null","22","","NaN","","","","","","","","","","","","","",""
"","response","","html-keyboard-response","155","337881","0.0-1.0-203.0-0.0","0","0","85570","","485","","","75","22","","","1","22","training","adjacent","CB","3","2","P.jpg","N.jpg","0","0","1","",""
"","feedback","","html-keyboard-response","156","338883","0.0-1.0-204.0-0.0","0","0","85570","","null","","","null","22","","","","","","","","","","","","","","","",""
"","ITI","","html-keyboard-response","157","339884","0.0-1.0-207.0","0","0","85570","","null","","","null","22","","","","","","","","","","","","","","","NaN",""
"","S1","","html-keyboard-response","158","340136","0.0-1.0-209.0","0","0","85570","","null","","","null","23","","","","","","","","","","","","","","","",""
"","ISI","","html-keyboard-response","159","342138","0.0-1.0-210.0","0","0","85570","","null","","","null","23","NaN","","","","","","","","","","","","","","",""
"","S2","","html-keyboard-response","160","342390","0.0-1.0-211.0","0","0","85570","","null","","","null","23","","NaN","","","","","","","","","","","","","",""
"","response","","html-keyboard-response","161","342565","0.0-1.0-212.0-0.0","0","0","85570","","174","","","68","23","","","1","23","training","adjacent","GF","7","6","Q.jpg","R.jpg","1","0","0","",""
"","feedback","","html-keyboard-response","162","343567","0.0-1.0-213.0-0.0","0","0","85570","","null","","","null","23","","","","","","","","","","","","","","","",""
"","time_out","","html-keyboard-response","163","345570","0.0-1.0-215.0-0.0","0","0","85570","","null","","","null","23","","","","","","","","","","","","","","","",""
"","ITI","","html-keyboard-response","164","346572","0.0-1.0-216.0","0","0","85570","","null","","","null","23","","","","","","","","","","","","","","","NaN",""
"","S1","","html-keyboard-response","165","346825","0.0-1.0-218.0","0","0","85570","","null","","","null","24","","","","","","","","","","","","","","","",""
"","ISI","","html-keyboard-response","166","348828","0.0-1.0-219.0","0","0","85570","","977","","","75","24","k","","","","","","","","","","","","","","",""
"","S2","","html-keyboard-response","167","349081","0.0-1.0-220.0","0","0","85570","","null","","","null","24","","NaN","","","","","","","","","","","","","",""
"","response","","html-keyboard-response","168","349325","0.0-1.0-221.0-0.0","0","0","85570","","242","","","75","24","","","1","24","training","adjacent","GF","7","6","Q.jpg","R.jpg","0","0","1","",""
"","feedback","","html-keyboard-response","169","350328","0.0-1.0-222.0-0.0","0","0","85570","","null","","","null","24","","","","","","","","","","","","","","","",""
"","ITI","","html-keyboard-response","170","351330","0.0-1.0-225.0","0","0","85570","","null","","","null","24","","","","","","","","","","","","","","","NaN",""
"","S1","","html-keyboard-response","171","351583","0.0-1.0-227.0","0","0","85570","","null","","","null","25","","","","","","","","","","","","","","","",""
"","ISI","","html-keyboard-response","172","353585","0.0-1.0-228.0","0","0","85570","","null","","","null","25","NaN","","","","","","","","","","","","","","",""
"","S2","","html-keyboard-response","173","353838","0.0-1.0-229.0","0","0","85570","","null","","","null","25","","NaN","","","","","","","","","","","","","",""
"","response","","html-keyboard-response","174","354102","0.0-1.0-230.0-0.0","0","0","85570","","263","","","75","25","","","1","25","training","adjacent","FG","6","7","R.jpg","Q.jpg","0","1","0","",""
"","feedback","","html-keyboard-response","175","355104","0.0-1.0-231.0-0.0","0","0","85570","","null","","","null","25","","","","","","","","","","","","","","","",""
"","time_out","","html-keyboard-response","176","357107","0.0-1.0-233.0-0.0","0","0","85570","","null","","","null","25","","","","","","","","","","","","","","","",""
"","ITI","","html-keyboard-response","177","358109","0.0-1.0-234.0","0","0","85570","","null","","","null","25","","","","","","","","","","","","","","","NaN",""
"","S1","","html-keyboard-response","178","358361","0.0-1.0-236.0","0","0","85570","","null","","","null","26","","","","","","","","","","","","","","","",""
"","ISI","","html-keyboard-response","179","360363","0.0-1.0-237.0","0","0","85570","","null","","","null","26","NaN","","","","","","","","","","","","","","",""
"","S2","","html-keyboard-response","180","360615","0.0-1.0-238.0","0","0","85570","","null","","","null","26","","NaN","","","","","","","","","","","","","",""
"","response","","html-keyboard-response","181","361101","0.0-1.0-239.0-0.0","0","0","85570","","484","","","68","26","","","1","26","training","adjacent","DE","4","5","O.jpg","L.jpg","1","1","1","",""
"","feedback","","html-keyboard-response","182","362103","0.0-1.0-240.0-0.0","0","0","85570","","null","","","null","26","","","","","","","","","","","","","","","",""
"","ITI","","html-keyboard-response","183","363106","0.0-1.0-243.0","0","0","85570","","null","","","null","26","","","","","","","","","","","","","","","NaN",""
"","S1","","html-keyboard-response","184","363358","0.0-1.0-245.0","0","0","85570","","null","","","null","27","","","","","","","","","","","","","","","",""
"","ISI","","html-keyboard-response","185","365361","0.0-1.0-246.0","0","0","85570","","null","","","null","27","NaN","","","","","","","","","","","","","","",""
"","S2","","html-keyboard-response","186","365613","0.0-1.0-247.0","0","0","85570","","null","","","null","27","","NaN","","","","","","","","","","","","","",""
"","response","","html-keyboard-response","187","366015","0.0-1.0-248.0-0.0","0","0","85570","","401","","","75","27","","","1","27","training","adjacent","DE","4","5","O.jpg","L.jpg","0","1","0","",""
"","feedback","","html-keyboard-response","188","367017","0.0-1.0-249.0-0.0","0","0","85570","","null","","","null","27","","","","","","","","","","","","","","","",""
"","time_out","","html-keyboard-response","189","369020","0.0-1.0-251.0-0.0","0","0","85570","","null","","","null","27","","","","","","","","","","","","","","","",""
"","ITI","","html-keyboard-response","190","370022","0.0-1.0-252.0","0","0","85570","","null","","","null","27","","","","","","","","","","","","","","","NaN",""
"","S1","","html-keyboard-response","191","370275","0.0-1.0-254.0","0","0","85570","","null","","","null","28","","","","","","","","","","","","","","","",""
"","ISI","","html-keyboard-response","192","372276","0.0-1.0-255.0","0","0","85570","","null","","","null","28","NaN","","","","","","","","","","","","","","",""
"","S2","","html-keyboard-response","193","372529","0.0-1.0-256.0","0","0","85570","","null","","","null","28","","NaN","","","","","","","","","","","","","",""
"","response","","html-keyboard-response","194","372915","0.0-1.0-257.0-0.0","0","0","85570","","385","","","68","28","","","1","28","training","adjacent","AB","1","2","M.jpg","N.jpg","1","1","1","",""
"","feedback","","html-keyboard-response","195","373917","0.0-1.0-258.0-0.0","0","0","85570","","null","","","null","28","","","","","","","","","","","","","","","",""
"","ITI","","html-keyboard-response","196","374919","0.0-1.0-261.0","0","0","85570","","null","","","null","28","","","","","","","","","","","","","","","NaN",""
"","S1","","html-keyboard-response","197","375172","0.0-1.0-263.0","0","0","85570","","null","","","null","29","","","","","","","","","","","","","","","",""
"","ISI","","html-keyboard-response","198","377173","0.0-1.0-264.0","0","0","85570","","null","","","null","29","NaN","","","","","","","","","","","","","","",""
"","S2","","html-keyboard-response","199","377426","0.0-1.0-265.0","0","0","85570","","null","","","null","29","","NaN","","","","","","","","","","","","","",""
"","response","","html-keyboard-response","200","377656","0.0-1.0-266.0-0.0","0","0","85570","","229","","","75","29","","","1","29","training","adjacent","BA","2","1","N.jpg","M.jpg","0","0","1","",""
"","feedback","","html-keyboard-response","201","378658","0.0-1.0-267.0-0.0","0","0","85570","","null","","","null","29","","","","","","","","","","","","","","","",""
"","ITI","","html-keyboard-response","202","379661","0.0-1.0-270.0","0","0","85570","","null","","","null","29","","","","","","","","","","","","","","","NaN",""
"","S1","","html-keyboard-response","203","379913","0.0-1.0-272.0","0","0","85570","","null","","","null","30","","","","","","","","","","","","","","","",""
"","ISI","","html-keyboard-response","204","381915","0.0-1.0-273.0","0","0","85570","","null","","","null","30","NaN","","","","","","","","","","","","","","",""
"","S2","","html-keyboard-response","205","382167","0.0-1.0-274.0","0","0","85570","","null","","","null","30","","NaN","","","","","","","","","","","","","",""
"","response","","html-keyboard-response","206","382529","0.0-1.0-275.0-0.0","0","0","85570","","361","","","75","30","","","1","30","training","adjacent","CD","3","4","P.jpg","O.jpg","0","1","0","",""
"","feedback","","html-keyboard-response","207","383531","0.0-1.0-276.0-0.0","0","0","85570","","null","","","null","30","","","","","","","","","","","","","","","",""
"","time_out","","html-keyboard-response","208","385534","0.0-1.0-278.0-0.0","0","0","85570","","null","","","null","30","","","","","","","","","","","","","","","",""
"","ITI","","html-keyboard-response","209","386537","0.0-1.0-279.0","0","0","85570","","null","","","null","30","","","","","","","","","","","","","","","NaN",""
"","S1","","html-keyboard-response","210","386803","0.0-1.0-281.0","0","0","85570","","null","","","null","31","","","","","","","","","","","","","","","",""
"","ISI","","html-keyboard-response","211","388806","0.0-1.0-282.0","0","0","85570","","null","","","null","31","NaN","","","","","","","","","","","","","","",""
"","S2","","html-keyboard-response","212","389058","0.0-1.0-283.0","0","0","85570","","null","","","null","31","","NaN","","","","","","","","","","","","","",""
"","response","","html-keyboard-response","213","389309","0.0-1.0-284.0-0.0","0","0","85570","","250","","","75","31","","","1","31","training","adjacent","CB","3","2","P.jpg","N.jpg","0","0","1","",""
"","feedback","","html-keyboard-response","214","390311","0.0-1.0-285.0-0.0","0","0","85570","","null","","","null","31","","","","","","","","","","","","","","","",""
"","ITI","","html-keyboard-response","215","391312","0.0-1.0-288.0","0","0","85570","","null","","","null","31","","","","","","","","","","","","","","","NaN",""
"","S1","","html-keyboard-response","216","391565","0.0-1.0-290.0","0","0","85570","","null","","","null","32","","","","","","","","","","","","","","","",""
"","ISI","","html-keyboard-response","217","393566","0.0-1.0-291.0","0","0","85570","","null","","","null","32","NaN","","","","","","","","","","","","","","",""
"","S2","","html-keyboard-response","218","393828","0.0-1.0-292.0","0","0","85570","","null","","","null","32","","NaN","","","","","","","","","","","","","",""
"","response","","html-keyboard-response","219","394191","0.0-1.0-293.0-0.0","0","0","85570","","362","","","75","32","","","1","32","training","adjacent","FE","6","5","R.jpg","L.jpg","0","0","1","",""
"","feedback","","html-keyboard-response","220","395193","0.0-1.0-294.0-0.0","0","0","85570","","null","","","null","32","","","","","","","","","","","","","","","",""
"","ITI","","html-keyboard-response","221","396195","0.0-1.0-297.0","0","0","85570","","null","","","null","32","","","","","","","","","","","","","","","NaN",""
"","S1","","html-keyboard-response","222","396448","0.0-1.0-299.0","0","0","85570","","null","","","null","33","","","","","","","","","","","","","","","",""
"","ISI","","html-keyboard-response","223","398450","0.0-1.0-300.0","0","0","85570","","null","","","null","33","NaN","","","","","","","","","","","","","","",""
"","S2","","html-keyboard-response","224","398703","0.0-1.0-301.0","0","0","85570","","null","","","null","33","","NaN","","","","","","","","","","","","","",""
"","response","","html-keyboard-response","225","398967","0.0-1.0-302.0-0.0","0","0","85570","","263","","","75","33","","","1","33","training","adjacent","CB","3","2","P.jpg","N.jpg","0","0","1","",""
"","feedback","","html-keyboard-response","226","399970","0.0-1.0-303.0-0.0","0","0","85570","","null","","","null","33","","","","","","","","","","","","","","","",""
"","ITI","","html-keyboard-response","227","400972","0.0-1.0-306.0","0","0","85570","","null","","","null","33","","","","","","","","","","","","","","","NaN",""
"","S1","","html-keyboard-response","228","401225","0.0-1.0-308.0","0","0","85570","","null","","","null","34","","","","","","","","","","","","","","","",""
"","ISI","","html-keyboard-response","229","403226","0.0-1.0-309.0","0","0","85570","","null","","","null","34","NaN","","","","","","","","","","","","","","",""
"","S2","","html-keyboard-response","230","403479","0.0-1.0-310.0","0","0","85570","","null","","","null","34","","NaN","","","","","","","","","","","","","",""
"","response","","html-keyboard-response","231","403667","0.0-1.0-311.0-0.0","0","0","85570","","187","","","68","34","","","1","34","training","adjacent","EF","5","6","L.jpg","R.jpg","1","1","1","",""
"","feedback","","html-keyboard-response","232","404669","0.0-1.0-312.0-0.0","0","0","85570","","null","","","null","34","","","","","","","","","","","","","","","",""
"","ITI","","html-keyboard-response","233","405671","0.0-1.0-315.0","0","0","85570","","null","","","null","34","","","","","","","","","","","","","","","NaN",""
"","S1","","html-keyboard-response","234","405923","0.0-1.0-317.0","0","0","85570","","null","","","null","35","","","","","","","","","","","","","","","",""
"","ISI","","html-keyboard-response","235","407925","0.0-1.0-318.0","0","0","85570","","null","","","null","35","NaN","","","","","","","","","","","","","","",""
"","S2","","html-keyboard-response","236","408178","0.0-1.0-319.0","0","0","85570","","null","","","null","35","","NaN","","","","","","","","","","","","","",""
"","response","","html-keyboard-response","237","408257","0.0-1.0-320.0-0.0","0","0","85570","","78","","","68","35","","","1","35","training","adjacent","BA","2","1","N.jpg","M.jpg","1","0","0","",""
"","feedback","","html-keyboard-response","238","409260","0.0-1.0-321.0-0.0","0","0","85570","","null","","","null","35","","","","","","","","","","","","","","","",""
"","time_out","","html-keyboard-response","239","411261","0.0-1.0-323.0-0.0","0","0","85570","","null","","","null","35","","","","","","","","","","","","","","","",""
"","ITI","","html-keyboard-response","240","412264","0.0-1.0-324.0","0","0","85570","","null","","","null","35","","","","","","","","","","","","","","","NaN",""
"","S1","","html-keyboard-response","241","412516","0.0-1.0-326.0","0","0","85570","","null","","","null","36","","","","","","","","","","","","","","","",""
"","ISI","","html-keyboard-response","242","414519","0.0-1.0-327.0","0","0","85570","","null","","","null","36","NaN","","","","","","","","","","","","","","",""
"","S2","","html-keyboard-response","243","414771","0.0-1.0-328.0","0","0","85570","","null","","","null","36","","NaN","","","","","","","","","","","","","",""
"","response","","html-keyboard-response","244","414912","0.0-1.0-329.0-0.0","0","0","85570","","140","","","75","36","","","1","36","training","adjacent","FG","6","7","R.jpg","Q.jpg","0","1","0","",""
"","feedback","","html-keyboard-response","245","415915","0.0-1.0-330.0-0.0","0","0","85570","","null","","","null","36","","","","","","","","","","","","","","","",""
"","time_out","","html-keyboard-response","246","417917","0.0-1.0-332.0-0.0","0","0","85570","","null","","","null","36","","","","","","","","","","","","","","","",""
"","ITI","","html-keyboard-response","247","418920","0.0-1.0-333.0","0","0","85570","","null","","","null","36","","","","","","","","","","","","","","","NaN",""
"","S1","","html-keyboard-response","248","419172","0.0-1.0-335.0","0","0","85570","","null","","","null","37","","","","","","","","","","","","","","","",""
"","ISI","","html-keyboard-response","249","421174","0.0-1.0-336.0","0","0","85570","","null","","","null","37","NaN","","","","","","","","","","","","","","",""
"","S2","","html-keyboard-response","250","421426","0.0-1.0-337.0","0","0","85570","","null","","","null","37","","NaN","","","","","","","","","","","","","",""
"","response","","html-keyboard-response","251","421776","0.0-1.0-338.0-0.0","0","0","85570","","350","","","68","37","","","1","37","training","adjacent","BC","2","3","N.jpg","P.jpg","1","1","1","",""
"","feedback","","html-keyboard-response","252","422780","0.0-1.0-339.0-0.0","0","0","85570","","null","","","null","37","","","","","","","","","","","","","","","",""
"","ITI","","html-keyboard-response","253","423782","0.0-1.0-342.0","0","0","85570","","null","","","null","37","","","","","","","","","","","","","","","NaN",""
"","S1","","html-keyboard-response","254","424034","0.0-1.0-344.0","0","0","85570","","null","","","null","38","","","","","","","","","","","","","","","",""
"","ISI","","html-keyboard-response","255","426037","0.0-1.0-345.0","0","0","85570","","null","","","null","38","NaN","","","","","","","","","","","","","","",""
"","S2","","html-keyboard-response","256","426289","0.0-1.0-346.0","0","0","85570","","null","","","null","38","","NaN","","","","","","","","","","","","","",""
"","response","","html-keyboard-response","257","426555","0.0-1.0-347.0-0.0","0","0","85570","","265","","","75","38","","","1","38","training","adjacent","DC","4","3","O.jpg","P.jpg","0","0","1","",""
"","feedback","","html-keyboard-response","258","427558","0.0-1.0-348.0-0.0","0","0","85570","","null","","","null","38","","","","","","","","","","","","","","","",""
"","ITI","","html-keyboard-response","259","428560","0.0-1.0-351.0","0","0","85570","","null","","","null","38","","","","","","","","","","","","","","","NaN",""
"","S1","","html-keyboard-response","260","428812","0.0-1.0-353.0","0","0","85570","","null","","","null","39","","","","","","","","","","","","","","","",""
"","ISI","","html-keyboard-response","261","430815","0.0-1.0-354.0","0","0","85570","","null","","","null","39","NaN","","","","","","","","","","","","","","",""
"","S2","","html-keyboard-response","262","431067","0.0-1.0-355.0","0","0","85570","","null","","","null","39","","NaN","","","","","","","","","","","","","",""
"","response","","html-keyboard-response","263","431675","0.0-1.0-356.0-0.0","0","0","85570","","606","","","68","39","","","1","39","training","adjacent","ED","5","4","L.jpg","O.jpg","1","0","0","",""
"","feedback","","html-keyboard-response","264","432678","0.0-1.0-357.0-0.0","0","0","85570","","null","","","null","39","","","","","","","","","","","","","","","",""
"","time_out","","html-keyboard-response","265","434680","0.0-1.0-359.0-0.0","0","0","85570","","null","","","null","39","","","","","","","","","","","","","","","",""
"","ITI","","html-keyboard-response","266","435682","0.0-1.0-360.0","0","0","85570","","null","","","null","39","","","","","","","","","","","","","","","NaN",""
"","S1","","html-keyboard-response","267","435934","0.0-1.0-362.0","0","0","85570","","null","","","null","40","","","","","","","","","","","","","","","",""
"","ISI","","html-keyboard-response","268","437936","0.0-1.0-363.0","0","0","85570","","null","","","null","40","NaN","","","","","","","","","","","","","","",""
"","S2","","html-keyboard-response","269","438188","0.0-1.0-364.0","0","0","85570","","null","","","null","40","","NaN","","","","","","","","","","","","","",""
"","response","","html-keyboard-response","270","438433","0.0-1.0-365.0-0.0","0","0","85570","","243","","","75","40","","","1","40","training","adjacent","CD","3","4","P.jpg","O.jpg","0","1","0","",""
"","feedback","","html-keyboard-response","271","439436","0.0-1.0-366.0-0.0","0","0","85570","","null","","","null","40","","","","","","","","","","","","","","","",""
"","time_out","","html-keyboard-response","272","441439","0.0-1.0-368.0-0.0","0","0","85570","","null","","","null","40","","","","","","","","","","","","","","","",""
"","ITI","","html-keyboard-response","273","442441","0.0-1.0-369.0","0","0","85570","","null","","","null","40","","","","","","","","","","","","","","","NaN",""
"","S1","","html-keyboard-response","274","442693","0.0-1.0-371.0","0","0","85570","","null","","","null","41","","","","","","","","","","","","","","","",""
"","ISI","","html-keyboard-response","275","444695","0.0-1.0-372.0","0","0","85570","","null","","","null","41","NaN","","","","","","","","","","","","","","",""
"","S2","","html-keyboard-response","276","444947","0.0-1.0-373.0","0","0","85570","","null","","","null","41","","NaN","","","","","","","","","","","","","",""
"","response","","html-keyboard-response","277","445642","0.0-1.0-374.0-0.0","0","0","85570","","694","","","68","41","","","1","41","training","adjacent","GF","7","6","Q.jpg","R.jpg","1","0","0","",""
"","feedback","","html-keyboard-response","278","446644","0.0-1.0-375.0-0.0","0","0","85570","","null","","","null","41","","","","","","","","","","","","","","","",""
"","time_out","","html-keyboard-response","279","448645","0.0-1.0-377.0-0.0","0","0","85570","","null","","","null","41","","","","","","","","","","","","","","","",""
"","ITI","","html-keyboard-response","280","449648","0.0-1.0-378.0","0","0","85570","","null","","","null","41","","","","","","","","","","","","","","","NaN",""
"","S1","","html-keyboard-response","281","449901","0.0-1.0-380.0","0","0","85570","","null","","","null","42","","","","","","","","","","","","","","","",""
"","ISI","","html-keyboard-response","282","451903","0.0-1.0-381.0","0","0","85570","","null","","","null","42","NaN","","","","","","","","","","","","","","",""
"","S2","","html-keyboard-response","283","452155","0.0-1.0-382.0","0","0","85570","","null","","","null","42","","NaN","","","","","","","","","","","","","",""
"","response","","html-keyboard-response","284","452311","0.0-1.0-383.0-0.0","0","0","85570","","155","","","75","42","","","1","42","training","adjacent","AB","1","2","M.jpg","N.jpg","0","1","0","",""
"","feedback","","html-keyboard-response","285","453313","0.0-1.0-384.0-0.0","0","0","85570","","null","","","null","42","","","","","","","","","","","","","","","",""
"","time_out","","html-keyboard-response","286","455314","0.0-1.0-386.0-0.0","0","0","85570","","null","","","null","42","","","","","","","","","","","","","","","",""
"","ITI","","html-keyboard-response","287","456316","0.0-1.0-387.0","0","0","85570","","null","","","null","42","","","","","","","","","","","","","","","NaN",""
"","S1","","html-keyboard-response","288","456568","0.0-1.0-389.0","0","0","85570","","null","","","null","43","","","","","","","","","","","","","","","",""
"","ISI","","html-keyboard-response","289","458571","0.0-1.0-390.0","0","0","85570","","null","","","null","43","NaN","","","","","","","","","","","","","","",""
"","S2","","html-keyboard-response","290","458823","0.0-1.0-391.0","0","0","85570","","null","","","null","43","","NaN","","","","","","","","","","","","","",""
"","response","","html-keyboard-response","291","458937","0.0-1.0-392.0-0.0","0","0","85570","","113","","","68","43","","","1","43","training","adjacent","BA","2","1","N.jpg","M.jpg","1","0","0","",""
"","feedback","","html-keyboard-response","292","459938","0.0-1.0-393.0-0.0","0","0","85570","","null","","","null","43","","","","","","","","","","","","","","","",""
"","time_out","","html-keyboard-response","293","461940","0.0-1.0-395.0-0.0","0","0","85570","","null","","","null","43","","","","","","","","","","","","","","","",""
"","ITI","","html-keyboard-response","294","462942","0.0-1.0-396.0","0","0","85570","","null","","","null","43","","","","","","","","","","","","","","","NaN",""
"","S1","","html-keyboard-response","295","463194","0.0-1.0-398.0","0","0","85570","","null","","","null","44","","","","","","","","","","","","","","","",""
"","ISI","","html-keyboard-response","296","465196","0.0-1.0-399.0","0","0","85570","","null","","","null","44","NaN","","","","","","","","","","","","","","",""
"","S2","","html-keyboard-response","297","465462","0.0-1.0-400.0","0","0","85570","","null","","","null","44","","NaN","","","","","","","","","","","","","",""
"","response","","html-keyboard-response","298","466016","0.0-1.0-401.0-0.0","0","0","85570","","553","","","75","44","","","1","44","training","adjacent","GF","7","6","Q.jpg","R.jpg","0","0","1","",""
"","feedback","","html-keyboard-response","299","467019","0.0-1.0-402.0-0.0","0","0","85570","","null","","","null","44","","","","","","","","","","","","","","","",""
"","ITI","","html-keyboard-response","300","468022","0.0-1.0-405.0","0","0","85570","","null","","","null","44","","","","","","","","","","","","","","","NaN",""
"","S1","","html-keyboard-response","301","468274","0.0-1.0-407.0","0","0","85570","","null","","","null","45","","","","","","","","","","","","","","","",""
"","ISI","","html-keyboard-response","302","470276","0.0-1.0-408.0","0","0","85570","","null","","","null","45","NaN","","","","","","","","","","","","","","",""
"","S2","","html-keyboard-response","303","470529","0.0-1.0-409.0","0","0","85570","","null","","","null","45","","NaN","","","","","","","","","","","","","",""
"","response","","html-keyboard-response","304","470992","0.0-1.0-410.0-0.0","0","0","85570","","461","","","75","45","","","1","45","training","adjacent","FE","6","5","R.jpg","L.jpg","0","0","1","",""
"","feedback","","html-keyboard-response","305","471995","0.0-1.0-411.0-0.0","0","0","85570","","null","","","null","45","","","","","","","","","","","","","","","",""
"","ITI","","html-keyboard-response","306","472997","0.0-1.0-414.0","0","0","85570","","null","","","null","45","","","","","","","","","","","","","","","NaN",""
"","S1","","html-keyboard-response","307","473250","0.0-1.0-416.0","0","0","85570","","null","","","null","46","","","","","","","","","","","","","","","",""
"","ISI","","html-keyboard-response","308","475251","0.0-1.0-417.0","0","0","85570","","null","","","null","46","NaN","","","","","","","","","","","","","","",""
"","S2","","html-keyboard-response","309","475503","0.0-1.0-418.0","0","0","85570","","null","","","null","46","","NaN","","","","","","","","","","","","","",""
"","response","","html-keyboard-response","310","475843","0.0-1.0-419.0-0.0","0","0","85570","","338","","","68","46","","","1","46","training","adjacent","EF","5","6","L.jpg","R.jpg","1","1","1","",""
"","feedback","","html-keyboard-response","311","476846","0.0-1.0-420.0-0.0","0","0","85570","","null","","","null","46","","","","","","","","","","","","","","","",""
"","ITI","","html-keyboard-response","312","477849","0.0-1.0-423.0","0","0","85570","","null","","","null","46","","","","","","","","","","","","","","","NaN",""
"","S1","","html-keyboard-response","313","478102","0.0-1.0-425.0","0","0","85570","","null","","","null","47","","","","","","","","","","","","","","","",""
"","ISI","","html-keyboard-response","314","480104","0.0-1.0-426.0","0","0","85570","","null","","","null","47","NaN","","","","","","","","","","","","","","",""
"","S2","","html-keyboard-response","315","480357","0.0-1.0-427.0","0","0","85570","","null","","","null","47","","NaN","","","","","","","","","","","","","",""
"","response","","html-keyboard-response","316","481084","0.0-1.0-428.0-0.0","0","0","85570","","725","","","68","47","","","1","47","training","adjacent","ED","5","4","L.jpg","O.jpg","1","0","0","",""
"","feedback","","html-keyboard-response","317","482086","0.0-1.0-429.0-0.0","0","0","85570","","null","","","null","47","","","","","","","","","","","","","","","",""
"","time_out","","html-keyboard-response","318","484089","0.0-1.0-431.0-0.0","0","0","85570","","null","","","null","47","","","","","","","","","","","","","","","",""
"","ITI","","html-keyboard-response","319","485091","0.0-1.0-432.0","0","0","85570","","null","","","null","47","","","","","","","","","","","","","","","NaN",""
"","block_over","","html-keyboard-response","320","488572","0.0-1.0-433.0-0.0","0","0","85570","","3480","","","32","47","","","","","","","","","","","","","","","",""
"","S1","","html-keyboard-response","321","488825","0.0-1.0-434.0","0","0","85570","","null","","","null","48","","","","","","","","","","","","","","","",""
"","ISI","","html-keyboard-response","322","490828","0.0-1.0-435.0","0","0","85570","","null","","","null","48","NaN","","","","","","","","","","","","","","",""
"","S2","","html-keyboard-response","323","491080","0.0-1.0-436.0","0","0","85570","","null","","","null","48","","NaN","","","","","","","","","","","","","",""
"","response","","html-keyboard-response","324","491745","0.0-1.0-437.0-0.0","0","0","85570","","664","","","75","48","","","2","48","training","adjacent","EF","5","6","L.jpg","R.jpg","0","1","0","",""
"","feedback","","html-keyboard-response","325","492747","0.0-1.0-438.0-0.0","0","0","85570","","null","","","null","48","","","","","","","","","","","","","","","",""
"","time_out","","html-keyboard-response","326","494749","0.0-1.0-440.0-0.0","0","0","85570","","null","","","null","48","","","","","","","","","","","","","","","",""
"","ITI","","html-keyboard-response","327","495750","0.0-1.0-441.0","0","0","85570","","null","","","null","48","","","","","","","","","","","","","","","NaN",""
"","S1","","html-keyboard-response","328","496003","0.0-1.0-443.0","0","0","85570","","null","","","null","49","","","","","","","","","","","","","","","",""
"","ISI","","html-keyboard-response","329","498005","0.0-1.0-444.0","0","0","85570","","null","","","null","49","NaN","","","","","","","","","","","","","","",""
"","S2","","html-keyboard-response","330","498273","0.0-1.0-445.0","0","0","85570","","null","","","null","49","","NaN","","","","","","","","","","","","","",""
"","response","","html-keyboard-response","331","498572","0.0-1.0-446.0-0.0","0","0","85570","","298","","","75","49","","","2","49","training","adjacent","CB","3","2","P.jpg","N.jpg","0","0","1","",""
"","feedback","","html-keyboard-response","332","499574","0.0-1.0-447.0-0.0","0","0","85570","","null","","","null","49","","","","","","","","","","","","","","","",""
"","ITI","","html-keyboard-response","333","500577","0.0-1.0-450.0","0","0","85570","","null","","","null","49","","","","","","","","","","","","","","","NaN",""
"","S1","","html-keyboard-response","334","500830","0.0-1.0-452.0","0","0","85570","","null","","","null","50","","","","","","","","","","","","","","","",""
"","ISI","","html-keyboard-response","335","502832","0.0-1.0-453.0","0","0","85570","","null","","","null","50","NaN","","","","","","","","","","","","","","",""
"","S2","","html-keyboard-response","336","503085","0.0-1.0-454.0","0","0","85570","","null","","","null","50","","NaN","","","","","","","","","","","","","",""
"","response","","html-keyboard-response","337","503659","0.0-1.0-455.0-0.0","0","0","85570","","572","","","68","50","","","2","50","training","adjacent","CD","3","4","P.jpg","O.jpg","1","1","1","",""
"","feedback","","html-keyboard-response","338","504662","0.0-1.0-456.0-0.0","0","0","85570","","null","","","null","50","","","","","","","","","","","","","","","",""
"","ITI","","html-keyboard-response","339","505664","0.0-1.0-459.0","0","0","85570","","null","","","null","50","","","","","","","","","","","","","","","NaN",""
"","S1","","html-keyboard-response","340","505916","0.0-1.0-461.0","0","0","85570","","null","","","null","51","","","","","","","","","","","","","","","",""
"","ISI","","html-keyboard-response","341","507919","0.0-1.0-462.0","0","0","85570","","null","","","null","51","NaN","","","","","","","","","","","","","","",""
"","S2","","html-keyboard-response","342","508171","0.0-1.0-463.0","0","0","85570","","null","","","null","51","","NaN","","","","","","","","","","","","","",""
"","response","","html-keyboard-response","343","508495","0.0-1.0-464.0-0.0","0","0","85570","","323","","","75","51","","","2","51","training","adjacent","ED","5","4","L.jpg","O.jpg","0","0","1","",""
"","feedback","","html-keyboard-response","344","509498","0.0-1.0-465.0-0.0","0","0","85570","","null","","","null","51","","","","","","","","","","","","","","","",""
"","ITI","","html-keyboard-response","345","510501","0.0-1.0-468.0","0","0","85570","","null","","","null","51","","","","","","","","","","","","","","","NaN",""
"","S1","","html-keyboard-response","346","510753","0.0-1.0-470.0","0","0","85570","","null","","","null","52","","","","","","","","","","","","","","","",""
"","ISI","","html-keyboard-response","347","512755","0.0-1.0-471.0","0","0","85570","","null","","","null","52","NaN","","","","","","","","","","","","","","",""
"","S2","","html-keyboard-response","348","513007","0.0-1.0-472.0","0","0","85570","","null","","","null","52","","NaN","","","","","","","","","","","","","",""
"","response","","html-keyboard-response","349","513349","0.0-1.0-473.0-0.0","0","0","85570","","342","","","75","52","","","2","52","training","adjacent","CB","3","2","P.jpg","N.jpg","0","0","1","",""
"","feedback","","html-keyboard-response","350","514353","0.0-1.0-474.0-0.0","0","0","85570","","null","","","null","52","","","","","","","","","","","","","","","",""
"","ITI","","html-keyboard-response","351","515355","0.0-1.0-477.0","0","0","85570","","null","","","null","52","","","","","","","","","","","","","","","NaN",""
"","S1","","html-keyboard-response","352","515611","0.0-1.0-479.0","0","0","85570","","null","","","null","53","","","","","","","","","","","","","","","",""
"","ISI","","html-keyboard-response","353","517613","0.0-1.0-480.0","0","0","85570","","null","","","null","53","NaN","","","","","","","","","","","","","","",""
"","S2","","html-keyboard-response","354","517865","0.0-1.0-481.0","0","0","85570","","null","","","null","53","","NaN","","","","","","","","","","","","","",""
"","response","","html-keyboard-response","355","518302","0.0-1.0-482.0-0.0","0","0","85570","","435","","","75","53","","","2","53","training","adjacent","CD","3","4","P.jpg","O.jpg","0","1","0","",""
"","feedback","","html-keyboard-response","356","519303","0.0-1.0-483.0-0.0","0","0","85570","","null","","","null","53","","","","","","","","","","","","","","","",""
"","time_out","","html-keyboard-response","357","521305","0.0-1.0-485.0-0.0","0","0","85570","","null","","","null","53","","","","","","","","","","","","","","","",""
"","ITI","","html-keyboard-response","358","522306","0.0-1.0-486.0","0","0","85570","","null","","","null","53","","","","","","","","","","","","","","","NaN",""
"","S1","","html-keyboard-response","359","522559","0.0-1.0-488.0","0","0","85570","","null","","","null","54","","","","","","","","","","","","","","","",""
"","ISI","","html-keyboard-response","360","524561","0.0-1.0-489.0","0","0","85570","","null","","","null","54","NaN","","","","","","","","","","","","","","",""
"","S2","","html-keyboard-response","361","524814","0.0-1.0-490.0","0","0","85570","","null","","","null","54","","NaN","","","","","","","","","","","","","",""
"","response","","html-keyboard-response","362","525161","0.0-1.0-491.0-0.0","0","0","85570","","347","","","68","54","","","2","54","training","adjacent","BC","2","3","N.jpg","P.jpg","1","1","1","",""
"","feedback","","html-keyboard-response","363","526164","0.0-1.0-492.0-0.0","0","0","85570","","null","","","null","54","","","","","","","","","","","","","","","",""
"","ITI","","html-keyboard-response","364","527166","0.0-1.0-495.0","0","0","85570","","null","","","null","54","","","","","","","","","","","","","","","NaN",""
"","S1","","html-keyboard-response","365","527424","0.0-1.0-497.0","0","0","85570","","null","","","null","55","","","","","","","","","","","","","","","",""
"","ISI","","html-keyboard-response","366","529426","0.0-1.0-498.0","0","0","85570","","null","","","null","55","NaN","","","","","","","","","","","","","","",""
"","S2","","html-keyboard-response","367","529679","0.0-1.0-499.0","0","0","85570","","null","","","null","55","","NaN","","","","","","","","","","","","","",""
"","response","","html-keyboard-response","368","530000","0.0-1.0-500.0-0.0","0","0","85570","","320","","","68","55","","","2","55","training","adjacent","FG","6","7","R.jpg","Q.jpg","1","1","1","",""
"","feedback","","html-keyboard-response","369","531003","0.0-1.0-501.0-0.0","0","0","85570","","null","","","null","55","","","","","","","","","","","","","","","",""
"","ITI","","html-keyboard-response","370","532005","0.0-1.0-504.0","0","0","85570","","null","","","null","55","","","","","","","","","","","","","","","NaN",""
"","S1","","html-keyboard-response","371","532258","0.0-1.0-506.0","0","0","85570","","null","","","null","56","","","","","","","","","","","","","","","",""
"","ISI","","html-keyboard-response","372","534259","0.0-1.0-507.0","0","0","85570","","null","","","null","56","NaN","","","","","","","","","","","","","","",""
"","S2","","html-keyboard-response","373","534513","0.0-1.0-508.0","0","0","85570","","null","","","null","56","","NaN","","","","","","","","","","","","","",""
"","response","","html-keyboard-response","374","534888","0.0-1.0-509.0-0.0","0","0","85570","","374","","","68","56","","","2","56","training","adjacent","EF","5","6","L.jpg","R.jpg","1","1","1","",""
"","feedback","","html-keyboard-response","375","535890","0.0-1.0-510.0-0.0","0","0","85570","","null","","","null","56","","","","","","","","","","","","","","","",""
"","ITI","","html-keyboard-response","376","536893","0.0-1.0-513.0","0","0","85570","","null","","","null","56","","","","","","","","","","","","","","","NaN",""
"","S1","","html-keyboard-response","377","537146","0.0-1.0-515.0","0","0","85570","","null","","","null","57","","","","","","","","","","","","","","","",""
"","ISI","","html-keyboard-response","378","539147","0.0-1.0-516.0","0","0","85570","","null","","","null","57","NaN","","","","","","","","","","","","","","",""
"","S2","","html-keyboard-response","379","539400","0.0-1.0-517.0","0","0","85570","","null","","","null","57","","NaN","","","","","","","","","","","","","",""
"","response","","html-keyboard-response","380","539770","0.0-1.0-518.0-0.0","0","0","85570","","369","","","75","57","","","2","57","training","adjacent","FG","6","7","R.jpg","Q.jpg","0","1","0","",""
"","feedback","","html-keyboard-response","381","540772","0.0-1.0-519.0-0.0","0","0","85570","","null","","","null","57","","","","","","","","","","","","","","","",""
"","time_out","","html-keyboard-response","382","542774","0.0-1.0-521.0-0.0","0","0","85570","","null","","","null","57","","","","","","","","","","","","","","","",""
"","ITI","","html-keyboard-response","383","543776","0.0-1.0-522.0","0","0","85570","","null","","","null","57","","","","","","","","","","","","","","","NaN",""
"","S1","","html-keyboard-response","384","544028","0.0-1.0-524.0","0","0","85570","","null","","","null","58","","","","","","","","","","","","","","","",""
"","ISI","","html-keyboard-response","385","546031","0.0-1.0-525.0","0","0","85570","","null","","","null","58","NaN","","","","","","","","","","","","","","",""
"","S2","","html-keyboard-response","386","546283","0.0-1.0-526.0","0","0","85570","","null","","","null","58","","NaN","","","","","","","","","","","","","",""
"","response","","html-keyboard-response","387","546756","0.0-1.0-527.0-0.0","0","0","85570","","471","","","75","58","","","2","58","training","adjacent","ED","5","4","L.jpg","O.jpg","0","0","1","",""
"","feedback","","html-keyboard-response","388","547757","0.0-1.0-528.0-0.0","0","0","85570","","null","","","null","58","","","","","","","","","","","","","","","",""
"","ITI","","html-keyboard-response","389","548759","0.0-1.0-531.0","0","0","85570","","null","","","null","58","","","","","","","","","","","","","","","NaN",""
"","S1","","html-keyboard-response","390","549011","0.0-1.0-533.0","0","0","85570","","null","","","null","59","","","","","","","","","","","","","","","",""
"","ISI","","html-keyboard-response","391","551014","0.0-1.0-534.0","0","0","85570","","null","","","null","59","NaN","","","","","","","","","","","","","","",""
"","S2","","html-keyboard-response","392","551266","0.0-1.0-535.0","0","0","85570","","null","","","null","59","","NaN","","","","","","","","","","","","","",""
"","response","","html-keyboard-response","393","551449","0.0-1.0-536.0-0.0","0","0","85570","","182","","","75","59","","","2","59","training","adjacent","ED","5","4","L.jpg","O.jpg","0","0","1","",""
"","feedback","","html-keyboard-response","394","552451","0.0-1.0-537.0-0.0","0","0","85570","","null","","","null","59","","","","","","","","","","","","","","","",""
"","ITI","","html-keyboard-response","395","553455","0.0-1.0-540.0","0","0","85570","","null","","","null","59","","","","","","","","","","","","","","","NaN",""
"","S1","","html-keyboard-response","396","553707","0.0-1.0-542.0","0","0","85570","","null","","","null","60","","","","","","","","","","","","","","","",""
"","ISI","","html-keyboard-response","397","555709","0.0-1.0-543.0","0","0","85570","","null","","","null","60","NaN","","","","","","","","","","","","","","",""
"","S2","","html-keyboard-response","398","555961","0.0-1.0-544.0","0","0","85570","","null","","","null","60","","NaN","","","","","","","","","","","","","",""
"","response","","html-keyboard-response","399","556336","0.0-1.0-545.0-0.0","0","0","85570","","373","","","75","60","","","2","60","training","adjacent","FG","6","7","R.jpg","Q.jpg","0","1","0","",""
"","feedback","","html-keyboard-response","400","557338","0.0-1.0-546.0-0.0","0","0","85570","","null","","","null","60","","","","","","","","","","","","","","","",""
"","time_out","","html-keyboard-response","401","559340","0.0-1.0-548.0-0.0","0","0","85570","","null","","","null","60","","","","","","","","","","","","","","","",""
"","ITI","","html-keyboard-response","402","560343","0.0-1.0-549.0","0","0","85570","","null","","","null","60","","","","","","","","","","","","","","","NaN",""
"","S1","","html-keyboard-response","403","560595","0.0-1.0-551.0","0","0","85570","","null","","","null","61","","","","","","","","","","","","","","","",""
"","ISI","","html-keyboard-response","404","562597","0.0-1.0-552.0","0","0","85570","","null","","","null","61","NaN","","","","","","","","","","","","","","",""
"","S2","","html-keyboard-response","405","562850","0.0-1.0-553.0","0","0","85570","","null","","","null","61","","NaN","","","","","","","","","","","","","",""
"","response","","html-keyboard-response","406","563263","0.0-1.0-554.0-0.0","0","0","85570","","412","","","75","61","","","2","61","training","adjacent","GF","7","6","Q.jpg","R.jpg","0","0","1","",""
"","feedback","","html-keyboard-response","407","564265","0.0-1.0-555.0-0.0","0","0","85570","","null","","","null","61","","","","","","","","","","","","","","","",""
"","ITI","","html-keyboard-response","408","565267","0.0-1.0-558.0","0","0","85570","","null","","","null","61","","","","","","","","","","","","","","","NaN",""
"","S1","","html-keyboard-response","409","565520","0.0-1.0-560.0","0","0","85570","","null","","","null","62","","","","","","","","","","","","","","","",""
"","ISI","","html-keyboard-response","410","567522","0.0-1.0-561.0","0","0","85570","","null","","","null","62","NaN","","","","","","","","","","","","","","",""
"","S2","","html-keyboard-response","411","567775","0.0-1.0-562.0","0","0","85570","","null","","","null","62","","NaN","","","","","","","","","","","","","",""
"","response","","html-keyboard-response","412","567944","0.0-1.0-563.0-0.0","0","0","85570","","168","","","68","62","","","2","62","training","adjacent","BA","2","1","N.jpg","M.jpg","1","0","0","",""
"","feedback","","html-keyboard-response","413","568947","0.0-1.0-564.0-0.0","0","0","85570","","null","","","null","62","","","","","","","","","","","","","","","",""
"","time_out","","html-keyboard-response","414","570948","0.0-1.0-566.0-0.0","0","0","85570","","null","","","null","62","","","","","","","","","","","","","","","",""
"","ITI","","html-keyboard-response","415","571950","0.0-1.0-567.0","0","0","85570","","null","","","null","62","","","","","","","","","","","","","","","NaN",""
"","S1","","html-keyboard-response","416","572202","0.0-1.0-569.0","0","0","85570","","null","","","null","63","","","","","","","","","","","","","","","",""
"","ISI","","html-keyboard-response","417","574203","0.0-1.0-570.0","0","0","85570","","null","","","null","63","NaN","","","","","","","","","","","","","","",""
"","S2","","html-keyboard-response","418","574456","0.0-1.0-571.0","0","0","85570","","null","","","null","63","","NaN","","","","","","","","","","","","","",""
"","response","","html-keyboard-response","419","574752","0.0-1.0-572.0-0.0","0","0","85570","","295","","","68","63","","","2","63","training","adjacent","BA","2","1","N.jpg","M.jpg","1","0","0","",""
"","feedback","","html-keyboard-response","420","575754","0.0-1.0-573.0-0.0","0","0","85570","","null","","","null","63","","","","","","","","","","","","","","","",""
"","time_out","","html-keyboard-response","421","577756","0.0-1.0-575.0-0.0","0","0","85570","","null","","","null","63","","","","","","","","","","","","","","","",""
"","ITI","","html-keyboard-response","422","578758","0.0-1.0-576.0","0","0","85570","","null","","","null","63","","","","","","","","","","","","","","","NaN",""
"","S1","","html-keyboard-response","423","579011","0.0-1.0-578.0","0","0","85570","","null","","","null","64","","","","","","","","","","","","","","","",""
"","ISI","","html-keyboard-response","424","581013","0.0-1.0-579.0","0","0","85570","","null","","","null","64","NaN","","","","","","","","","","","","","","",""
"","S2","","html-keyboard-response","425","581266","0.0-1.0-580.0","0","0","85570","","null","","","null","64","","NaN","","","","","","","","","","","","","",""
"","response","","html-keyboard-response","426","581827","0.0-1.0-581.0-0.0","0","0","85570","","560","","","68","64","","","2","64","training","adjacent","FE","6","5","R.jpg","L.jpg","1","0","0","",""
"","feedback","","html-keyboard-response","427","582830","0.0-1.0-582.0-0.0","0","0","85570","","null","","","null","64","","","","","","","","","","","","","","","",""
"","time_out","","html-keyboard-response","428","584848","0.0-1.0-584.0-0.0","0","0","85570","","null","","","null","64","","","","","","","","","","","","","","","",""
"","ITI","","html-keyboard-response","429","585849","0.0-1.0-585.0","0","0","85570","","null","","","null","64","","","","","","","","","","","","","","","NaN",""
"","S1","","html-keyboard-response","430","586102","0.0-1.0-587.0","0","0","85570","","null","","","null","65","","","","","","","","","","","","","","","",""
"","ISI","","html-keyboard-response","431","588104","0.0-1.0-588.0","0","0","85570","","null","","","null","65","NaN","","","","","","","","","","","","","","",""
"","S2","","html-keyboard-response","432","588357","0.0-1.0-589.0","0","0","85570","","null","","","null","65","","NaN","","","","","","","","","","","","","",""
"","response","","html-keyboard-response","433","588689","0.0-1.0-590.0-0.0","0","0","85570","","331","","","68","65","","","2","65","training","adjacent","DC","4","3","O.jpg","P.jpg","1","0","0","",""
"","feedback","","html-keyboard-response","434","589691","0.0-1.0-591.0-0.0","0","0","85570","","null","","","null","65","","","","","","","","","","","","","","","",""
"","time_out","","html-keyboard-response","435","591694","0.0-1.0-593.0-0.0","0","0","85570","","null","","","null","65","","","","","","","","","","","","","","","",""
"","ITI","","html-keyboard-response","436","592695","0.0-1.0-594.0","0","0","85570","","null","","","null","65","","","","","","","","","","","","","","","NaN",""
"","S1","","html-keyboard-response","437","592947","0.0-1.0-596.0","0","0","85570","","null","","","null","66","","","","","","","","","","","","","","","",""
"","ISI","","html-keyboard-response","438","594950","0.0-1.0-597.0","0","0","85570","","null","","","null","66","NaN","","","","","","","","","","","","","","",""
"","S2","","html-keyboard-response","439","595202","0.0-1.0-598.0","0","0","85570","","null","","","null","66","","NaN","","","","","","","","","","","","","",""
"","response","","html-keyboard-response","440","595464","0.0-1.0-599.0-0.0","0","0","85570","","261","","","68","66","","","2","66","training","adjacent","BC","2","3","N.jpg","P.jpg","1","1","1","",""
"","feedback","","html-keyboard-response","441","596467","0.0-1.0-600.0-0.0","0","0","85570","","null","","","null","66","","","","","","","","","","","","","","","",""
"","ITI","","html-keyboard-response","442","597469","0.0-1.0-603.0","0","0","85570","","null","","","null","66","","","","","","","","","","","","","","","NaN",""
"","S1","","html-keyboard-response","443","597722","0.0-1.0-605.0","0","0","85570","","null","","","null","67","","","","","","","","","","","","","","","",""
"","ISI","","html-keyboard-response","444","599723","0.0-1.0-606.0","0","0","85570","","null","","","null","67","NaN","","","","","","","","","","","","","","",""
"","S2","","html-keyboard-response","445","599976","0.0-1.0-607.0","0","0","85570","","null","","","null","67","","NaN","","","","","","","","","","","","","",""
"","response","","html-keyboard-response","446","600376","0.0-1.0-608.0-0.0","0","0","85570","","399","","","68","67","","","2","67","training","adjacent","DE","4","5","O.jpg","L.jpg","1","1","1","",""
"","feedback","","html-keyboard-response","447","601379","0.0-1.0-609.0-0.0","0","0","85570","","null","","","null","67","","","","","","","","","","","","","","","",""
"","ITI","","html-keyboard-response","448","602382","0.0-1.0-612.0","0","0","85570","","null","","","null","67","","","","","","","","","","","","","","","NaN",""
"","S1","","html-keyboard-response","449","602635","0.0-1.0-614.0","0","0","85570","","null","","","null","68","","","","","","","","","","","","","","","",""
"","ISI","","html-keyboard-response","450","604640","0.0-1.0-615.0","0","0","85570","","null","","","null","68","NaN","","","","","","","","","","","","","","",""
"","S2","","html-keyboard-response","451","604892","0.0-1.0-616.0","0","0","85570","","null","","","null","68","","NaN","","","","","","","","","","","","","",""
"","response","","html-keyboard-response","452","605278","0.0-1.0-617.0-0.0","0","0","85570","","384","","","68","68","","","2","68","training","adjacent","GF","7","6","Q.jpg","R.jpg","1","0","0","",""
"","feedback","","html-keyboard-response","453","606281","0.0-1.0-618.0-0.0","0","0","85570","","null","","","null","68","","","","","","","","","","","","","","","",""
"","time_out","","html-keyboard-response","454","608282","0.0-1.0-620.0-0.0","0","0","85570","","null","","","null","68","","","","","","","","","","","","","","","",""
"","ITI","","html-keyboard-response","455","609284","0.0-1.0-621.0","0","0","85570","","null","","","null","68","","","","","","","","","","","","","","","NaN",""
"","S1","","html-keyboard-response","456","609536","0.0-1.0-623.0","0","0","85570","","null","","","null","69","","","","","","","","","","","","","","","",""
"","ISI","","html-keyboard-response","457","611538","0.0-1.0-624.0","0","0","85570","","null","","","null","69","NaN","","","","","","","","","","","","","","",""
"","S2","","html-keyboard-response","458","611791","0.0-1.0-625.0","0","0","85570","","null","","","null","69","","NaN","","","","","","","","","","","","","",""
"","response","","html-keyboard-response","459","611958","0.0-1.0-626.0-0.0","0","0","85570","","166","","","68","69","","","2","69","training","adjacent","AB","1","2","M.jpg","N.jpg","1","1","1","",""
"","feedback","","html-keyboard-response","460","612961","0.0-1.0-627.0-0.0","0","0","85570","","null","","","null","69","","","","","","","","","","","","","","","",""
"","ITI","","html-keyboard-response","461","613963","0.0-1.0-630.0","0","0","85570","","null","","","null","69","","","","","","","","","","","","","","","NaN",""
"","S1","","html-keyboard-response","462","614215","0.0-1.0-632.0","0","0","85570","","null","","","null","70","","","","","","","","","","","","","","","",""
"","ISI","","html-keyboard-response","463","616217","0.0-1.0-633.0","0","0","85570","","null","","","null","70","NaN","","","","","","","","","","","","","","",""
"","S2","","html-keyboard-response","464","616469","0.0-1.0-634.0","0","0","85570","","null","","","null","70","","NaN","","","","","","","","","","","","","",""
"","response","","html-keyboard-response","465","617159","0.0-1.0-635.0-0.0","0","0","85570","","689","","","68","70","","","2","70","training","adjacent","EF","5","6","L.jpg","R.jpg","1","1","1","",""
"","feedback","","html-keyboard-response","466","618162","0.0-1.0-636.0-0.0","0","0","85570","","null","","","null","70","","","","","","","","","","","","","","","",""
"","ITI","","html-keyboard-response","467","619164","0.0-1.0-639.0","0","0","85570","","null","","","null","70","","","","","","","","","","","","","","","NaN",""
"","S1","","html-keyboard-response","468","619416","0.0-1.0-641.0","0","0","85570","","null","","","null","71","","","","","","","","","","","","","","","",""
"","ISI","","html-keyboard-response","469","621418","0.0-1.0-642.0","0","0","85570","","null","","","null","71","NaN","","","","","","","","","","","","","","",""
"","S2","","html-keyboard-response","470","621670","0.0-1.0-643.0","0","0","85570","","null","","","null","71","","NaN","","","","","","","","","","","","","",""
"","response","","html-keyboard-response","471","621991","0.0-1.0-644.0-0.0","0","0","85570","","319","","","75","71","","","2","71","training","adjacent","CD","3","4","P.jpg","O.jpg","0","1","0","",""
"","feedback","","html-keyboard-response","472","622994","0.0-1.0-645.0-0.0","0","0","85570","","null","","","null","71","","","","","","","","","","","","","","","",""
"","time_out","","html-keyboard-response","473","624997","0.0-1.0-647.0-0.0","0","0","85570","","null","","","null","71","","","","","","","","","","","","","","","",""
"","ITI","","html-keyboard-response","474","626000","0.0-1.0-648.0","0","0","85570","","null","","","null","71","","","","","","","","","","","","","","","NaN",""
"","S1","","html-keyboard-response","475","626252","0.0-1.0-650.0","0","0","85570","","null","","","null","72","","","","","","","","","","","","","","","",""
"","ISI","","html-keyboard-response","476","628254","0.0-1.0-651.0","0","0","85570","","null","","","null","72","NaN","","","","","","","","","","","","","","",""
"","S2","","html-keyboard-response","477","628506","0.0-1.0-652.0","0","0","85570","","null","","","null","72","","NaN","","","","","","","","","","","","","",""
"","response","","html-keyboard-response","478","628881","0.0-1.0-653.0-0.0","0","0","85570","","375","","","75","72","","","2","72","training","adjacent","CB","3","2","P.jpg","N.jpg","0","0","1","",""
"","feedback","","html-keyboard-response","479","629885","0.0-1.0-654.0-0.0","0","0","85570","","null","","","null","72","","","","","","","","","","","","","","","",""
"","ITI","","html-keyboard-response","480","630887","0.0-1.0-657.0","0","0","85570","","null","","","null","72","","","","","","","","","","","","","","","NaN",""
"","S1","","html-keyboard-response","481","631139","0.0-1.0-659.0","0","0","85570","","null","","","null","73","","","","","","","","","","","","","","","",""
"","ISI","","html-keyboard-response","482","633141","0.0-1.0-660.0","0","0","85570","","null","","","null","73","NaN","","","","","","","","","","","","","","",""
"","S2","","html-keyboard-response","483","633393","0.0-1.0-661.0","0","0","85570","","null","","","null","73","","NaN","","","","","","","","","","","","","",""
"","response","","html-keyboard-response","484","633803","0.0-1.0-662.0-0.0","0","0","85570","","409","","","68","73","","","2","73","training","adjacent","FG","6","7","R.jpg","Q.jpg","1","1","1","",""
"","feedback","","html-keyboard-response","485","634805","0.0-1.0-663.0-0.0","0","0","85570","","null","","","null","73","","","","","","","","","","","","","","","",""
"","ITI","","html-keyboard-response","486","635808","0.0-1.0-666.0","0","0","85570","","null","","","null","73","","","","","","","","","","","","","","","NaN",""
"","S1","","html-keyboard-response","487","636060","0.0-1.0-668.0","0","0","85570","","null","","","null","74","","","","","","","","","","","","","","","",""
"","ISI","","html-keyboard-response","488","638063","0.0-1.0-669.0","0","0","85570","","null","","","null","74","NaN","","","","","","","","","","","","","","",""
"","S2","","html-keyboard-response","489","638315","0.0-1.0-670.0","0","0","85570","","null","","","null","74","","NaN","","","","","","","","","","","","","",""
"","response","","html-keyboard-response","490","638703","0.0-1.0-671.0-0.0","0","0","85570","","387","","","68","74","","","2","74","training","adjacent","AB","1","2","M.jpg","N.jpg","1","1","1","",""
"","feedback","","html-keyboard-response","491","639705","0.0-1.0-672.0-0.0","0","0","85570","","null","","","null","74","","","","","","","","","","","","","","","",""
"","ITI","","html-keyboard-response","492","640707","0.0-1.0-675.0","0","0","85570","","null","","","null","74","","","","","","","","","","","","","","","NaN",""
"","S1","","html-keyboard-response","493","640959","0.0-1.0-677.0","0","0","85570","","null","","","null","75","","","","","","","","","","","","","","","",""
"","ISI","","html-keyboard-response","494","642962","0.0-1.0-678.0","0","0","85570","","null","","","null","75","NaN","","","","","","","","","","","","","","",""
"","S2","","html-keyboard-response","495","643214","0.0-1.0-679.0","0","0","85570","","null","","","null","75","","NaN","","","","","","","","","","","","","",""
"","response","","html-keyboard-response","496","643595","0.0-1.0-680.0-0.0","0","0","85570","","380","","","68","75","","","2","75","training","adjacent","DC","4","3","O.jpg","P.jpg","1","0","0","",""
"","feedback","","html-keyboard-response","497","644597","0.0-1.0-681.0-0.0","0","0","85570","","null","","","null","75","","","","","","","","","","","","","","","",""
"","time_out","","html-keyboard-response","498","646600","0.0-1.0-683.0-0.0","0","0","85570","","null","","","null","75","","","","","","","","","","","","","","","",""
"","ITI","","html-keyboard-response","499","647602","0.0-1.0-684.0","0","0","85570","","null","","","null","75","","","","","","","","","","","","","","","NaN",""
"","S1","","html-keyboard-response","500","647854","0.0-1.0-686.0","0","0","85570","","null","","","null","76","","","","","","","","","","","","","","","",""
"","ISI","","html-keyboard-response","501","649856","0.0-1.0-687.0","0","0","85570","","null","","","null","76","NaN","","","","","","","","","","","","","","",""
"","S2","","html-keyboard-response","502","650108","0.0-1.0-688.0","0","0","85570","","null","","","null","76","","NaN","","","","","","","","","","","","","",""
"","response","","html-keyboard-response","503","650302","0.0-1.0-689.0-0.0","0","0","85570","","192","","","75","76","","","2","76","training","adjacent","ED","5","4","L.jpg","O.jpg","0","0","1","",""
"","feedback","","html-keyboard-response","504","651303","0.0-1.0-690.0-0.0","0","0","85570","","null","","","null","76","","","","","","","","","","","","","","","",""
"","ITI","","html-keyboard-response","505","652305","0.0-1.0-693.0","0","0","85570","","null","","","null","76","","","","","","","","","","","","","","","NaN",""
"","S1","","html-keyboard-response","506","652557","0.0-1.0-695.0","0","0","85570","","null","","","null","77","","","","","","","","","","","","","","","",""
"","ISI","","html-keyboard-response","507","654560","0.0-1.0-696.0","0","0","85570","","null","","","null","77","NaN","","","","","","","","","","","","","","",""
"","S2","","html-keyboard-response","508","654814","0.0-1.0-697.0","0","0","85570","","null","","","null","77","","NaN","","","","","","","","","","","","","",""
"","response","","html-keyboard-response","509","655255","0.0-1.0-698.0-0.0","0","0","85570","","439","","","75","77","","","2","77","training","adjacent","DC","4","3","O.jpg","P.jpg","0","0","1","",""
"","feedback","","html-keyboard-response","510","656257","0.0-1.0-699.0-0.0","0","0","85570","","null","","","null","77","","","","","","","","","","","","","","","",""
"","ITI","","html-keyboard-response","511","657259","0.0-1.0-702.0","0","0","85570","","null","","","null","77","","","","","","","","","","","","","","","NaN",""
"","S1","","html-keyboard-response","512","657512","0.0-1.0-704.0","0","0","85570","","null","","","null","78","","","","","","","","","","","","","","","",""
"","ISI","","html-keyboard-response","513","659514","0.0-1.0-705.0","0","0","85570","","null","","","null","78","NaN","","","","","","","","","","","","","","",""
"","S2","","html-keyboard-response","514","659767","0.0-1.0-706.0","0","0","85570","","null","","","null","78","","NaN","","","","","","","","","","","","","",""
"","response","","html-keyboard-response","515","659980","0.0-1.0-707.0-0.0","0","0","85570","","212","","","75","78","","","2","78","training","adjacent","CD","3","4","P.jpg","O.jpg","0","1","0","",""
"","feedback","","html-keyboard-response","516","660982","0.0-1.0-708.0-0.0","0","0","85570","","null","","","null","78","","","","","","","","","","","","","","","",""
"","time_out","","html-keyboard-response","517","662985","0.0-1.0-710.0-0.0","0","0","85570","","null","","","null","78","","","","","","","","","","","","","","","",""
"","ITI","","html-keyboard-response","518","663987","0.0-1.0-711.0","0","0","85570","","null","","","null","78","","","","","","","","","","","","","","","NaN",""
"","S1","","html-keyboard-response","519","664240","0.0-1.0-713.0","0","0","85570","","null","","","null","79","","","","","","","","","","","","","","","",""
"","ISI","","html-keyboard-response","520","666241","0.0-1.0-714.0","0","0","85570","","null","","","null","79","NaN","","","","","","","","","","","","","","",""
"","S2","","html-keyboard-response","521","666494","0.0-1.0-715.0","0","0","85570","","null","","","null","79","","NaN","","","","","","","","","","","","","",""
"","response","","html-keyboard-response","522","666729","0.0-1.0-716.0-0.0","0","0","85570","","234","","","75","79","","","2","79","training","adjacent","CB","3","2","P.jpg","N.jpg","0","0","1","",""
"","feedback","","html-keyboard-response","523","667730","0.0-1.0-717.0-0.0","0","0","85570","","null","","","null","79","","","","","","","","","","","","","","","",""
"","ITI","","html-keyboard-response","524","668732","0.0-1.0-720.0","0","0","85570","","null","","","null","79","","","","","","","","","","","","","","","NaN",""
"","S1","","html-keyboard-response","525","668984","0.0-1.0-722.0","0","0","85570","","null","","","null","80","","","","","","","","","","","","","","","",""
"","ISI","","html-keyboard-response","526","670987","0.0-1.0-723.0","0","0","85570","","null","","","null","80","NaN","","","","","","","","","","","","","","",""
"","S2","","html-keyboard-response","527","671239","0.0-1.0-724.0","0","0","85570","","null","","","null","80","","NaN","","","","","","","","","","","","","",""
"","response","","html-keyboard-response","528","671637","0.0-1.0-725.0-0.0","0","0","85570","","397","","","68","80","","","2","80","training","adjacent","FE","6","5","R.jpg","L.jpg","1","0","0","",""
"","feedback","","html-keyboard-response","529","672640","0.0-1.0-726.0-0.0","0","0","85570","","null","","","null","80","","","","","","","","","","","","","","","",""
"","time_out","","html-keyboard-response","530","674643","0.0-1.0-728.0-0.0","0","0","85570","","null","","","null","80","","","","","","","","","","","","","","","",""
"","ITI","","html-keyboard-response","531","675644","0.0-1.0-729.0","0","0","85570","","null","","","null","80","","","","","","","","","","","","","","","NaN",""
"","S1","","html-keyboard-response","532","675897","0.0-1.0-731.0","0","0","85570","","null","","","null","81","","","","","","","","","","","","","","","",""
"","ISI","","html-keyboard-response","533","677898","0.0-1.0-732.0","0","0","85570","","null","","","null","81","NaN","","","","","","","","","","","","","","",""
"","S2","","html-keyboard-response","534","678150","0.0-1.0-733.0","0","0","85570","","null","","","null","81","","NaN","","","","","","","","","","","","","",""
"","response","","html-keyboard-response","535","678578","0.0-1.0-734.0-0.0","0","0","85570","","426","","","68","81","","","2","81","training","adjacent","AB","1","2","M.jpg","N.jpg","1","1","1","",""
"","feedback","","html-keyboard-response","536","679596","0.0-1.0-735.0-0.0","0","0","85570","","null","","","null","81","","","","","","","","","","","","","","","",""
"","ITI","","html-keyboard-response","537","680598","0.0-1.0-738.0","0","0","85570","","null","","","null","81","","","","","","","","","","","","","","","NaN",""
"","S1","","html-keyboard-response","538","680850","0.0-1.0-740.0","0","0","85570","","null","","","null","82","","","","","","","","","","","","","","","",""
"","ISI","","html-keyboard-response","539","682852","0.0-1.0-741.0","0","0","85570","","null","","","null","82","NaN","","","","","","","","","","","","","","",""
"","S2","","html-keyboard-response","540","683104","0.0-1.0-742.0","0","0","85570","","null","","","null","82","","NaN","","","","","","","","","","","","","",""
"","response","","html-keyboard-response","541","683223","0.0-1.0-743.0-0.0","0","0","85570","","117","","","75","82","","","2","82","training","adjacent","GF","7","6","Q.jpg","R.jpg","0","0","1","",""
"","feedback","","html-keyboard-response","542","684225","0.0-1.0-744.0-0.0","0","0","85570","","null","","","null","82","","","","","","","","","","","","","","","",""
"","ITI","","html-keyboard-response","543","685228","0.0-1.0-747.0","0","0","85570","","null","","","null","82","","","","","","","","","","","","","","","NaN",""
"","S1","","html-keyboard-response","544","685480","0.0-1.0-749.0","0","0","85570","","null","","","null","83","","","","","","","","","","","","","","","",""
"","ISI","","html-keyboard-response","545","687482","0.0-1.0-750.0","0","0","85570","","null","","","null","83","NaN","","","","","","","","","","","","","","",""
"","S2","","html-keyboard-response","546","687735","0.0-1.0-751.0","0","0","85570","","null","","","null","83","","NaN","","","","","","","","","","","","","",""
"","response","","html-keyboard-response","547","688303","0.0-1.0-752.0-0.0","0","0","85570","","567","","","68","83","","","2","83","training","adjacent","FE","6","5","R.jpg","L.jpg","1","0","0","",""
"","feedback","","html-keyboard-response","548","689305","0.0-1.0-753.0-0.0","0","0","85570","","null","","","null","83","","","","","","","","","","","","","","","",""
"","time_out","","html-keyboard-response","549","691306","0.0-1.0-755.0-0.0","0","0","85570","","null","","","null","83","","","","","","","","","","","","","","","",""
"","ITI","","html-keyboard-response","550","692308","0.0-1.0-756.0","0","0","85570","","null","","","null","83","","","","","","","","","","","","","","","NaN",""
"","S1","","html-keyboard-response","551","692560","0.0-1.0-758.0","0","0","85570","","null","","","null","84","","","","","","","","","","","","","","","",""
"","ISI","","html-keyboard-response","552","694563","0.0-1.0-759.0","0","0","85570","","null","","","null","84","NaN","","","","","","","","","","","","","","",""
"","S2","","html-keyboard-response","553","694815","0.0-1.0-760.0","0","0","85570","","null","","","null","84","","NaN","","","","","","","","","","","","","",""
"","response","","html-keyboard-response","554","695057","0.0-1.0-761.0-0.0","0","0","85570","","242","","","75","84","","","2","84","training","adjacent","FE","6","5","R.jpg","L.jpg","0","0","1","",""
"","feedback","","html-keyboard-response","555","696060","0.0-1.0-762.0-0.0","0","0","85570","","null","","","null","84","","","","","","","","","","","","","","","",""
"","ITI","","html-keyboard-response","556","697063","0.0-1.0-765.0","0","0","85570","","null","","","null","84","","","","","","","","","","","","","","","NaN",""
"","S1","","html-keyboard-response","557","697315","0.0-1.0-767.0","0","0","85570","","null","","","null","85","","","","","","","","","","","","","","","",""
"","ISI","","html-keyboard-response","558","699317","0.0-1.0-768.0","0","0","85570","","null","","","null","85","NaN","","","","","","","","","","","","","","",""
"","S2","","html-keyboard-response","559","699569","0.0-1.0-769.0","0","0","85570","","null","","","null","85","","NaN","","","","","","","","","","","","","",""
"","response","","html-keyboard-response","560","700098","0.0-1.0-770.0-0.0","0","0","85570","","527","","","75","85","","","2","85","training","adjacent","DC","4","3","O.jpg","P.jpg","0","0","1","",""
"","feedback","","html-keyboard-response","561","701100","0.0-1.0-771.0-0.0","0","0","85570","","null","","","null","85","","","","","","","","","","","","","","","",""
"","ITI","","html-keyboard-response","562","702103","0.0-1.0-774.0","0","0","85570","","null","","","null","85","","","","","","","","","","","","","","","NaN",""
"","S1","","html-keyboard-response","563","702355","0.0-1.0-776.0","0","0","85570","","null","","","null","86","","","","","","","","","","","","","","","",""
"","ISI","","html-keyboard-response","564","704357","0.0-1.0-777.0","0","0","85570","","null","","","null","86","NaN","","","","","","","","","","","","","","",""
"","S2","","html-keyboard-response","565","704610","0.0-1.0-778.0","0","0","85570","","null","","","null","86","","NaN","","","","","","","","","","","","","",""
"","response","","html-keyboard-response","566","704923","0.0-1.0-779.0-0.0","0","0","85570","","312","","","68","86","","","2","86","training","adjacent","BA","2","1","N.jpg","M.jpg","1","0","0","",""
"","feedback","","html-keyboard-response","567","705925","0.0-1.0-780.0-0.0","0","0","85570","","null","","","null","86","","","","","","","","","","","","","","","",""
"","time_out","","html-keyboard-response","568","707927","0.0-1.0-782.0-0.0","0","0","85570","","null","","","null","86","","","","","","","","","","","","","","","",""
"","ITI","","html-keyboard-response","569","708929","0.0-1.0-783.0","0","0","85570","","null","","","null","86","","","","","","","","","","","","","","","NaN",""
"","S1","","html-keyboard-response","570","709181","0.0-1.0-785.0","0","0","85570","","null","","","null","87","","","","","","","","","","","","","","","",""
"","ISI","","html-keyboard-response","571","711184","0.0-1.0-786.0","0","0","85570","","null","","","null","87","NaN","","","","","","","","","","","","","","",""
"","S2","","html-keyboard-response","572","711436","0.0-1.0-787.0","0","0","85570","","null","","","null","87","","NaN","","","","","","","","","","","","","",""
"","response","","html-keyboard-response","573","711800","0.0-1.0-788.0-0.0","0","0","85570","","362","","","68","87","","","2","87","training","adjacent","DE","4","5","O.jpg","L.jpg","1","1","1","",""
"","feedback","","html-keyboard-response","574","712802","0.0-1.0-789.0-0.0","0","0","85570","","null","","","null","87","","","","","","","","","","","","","","","",""
"","ITI","","html-keyboard-response","575","713804","0.0-1.0-792.0","0","0","85570","","null","","","null","87","","","","","","","","","","","","","","","NaN",""
"","S1","","html-keyboard-response","576","714056","0.0-1.0-794.0","0","0","85570","","null","","","null","88","","","","","","","","","","","","","","","",""
"","ISI","","html-keyboard-response","577","716059","0.0-1.0-795.0","0","0","85570","","null","","","null","88","NaN","","","","","","","","","","","","","","",""
"","S2","","html-keyboard-response","578","716311","0.0-1.0-796.0","0","0","85570","","null","","","null","88","","NaN","","","","","","","","","","","","","",""
"","response","","html-keyboard-response","579","716895","0.0-1.0-797.0-0.0","0","0","85570","","582","","","75","88","","","2","88","training","adjacent","BC","2","3","N.jpg","P.jpg","0","1","0","",""
"","feedback","","html-keyboard-response","580","717897","0.0-1.0-798.0-0.0","0","0","85570","","null","","","null","88","","","","","","","","","","","","","","","",""
