"success","ttype","start_time","trial_type","trial_index","time_elapsed","internal_node_id","warning","missed_checkup","PID","view_history","rt","responses","repeat_instructions","key_press","index","keypress_isi","keypress_S2","block","trial_num","phase","group_type","pair_type","S1_stim","S2_stim","S1_img","S2_img","S1_chosen","S1_higher","accuracy","keypress_iti","total_bonus_tally"
"true","full_screen","d07282022hr1655","fullscreen","0","4311718","0.0-0.0","0","0","11946","","","","","","","","","","","","","","","","","","","","","",""
"","instructions","","instructions","1","4397144","0.0-1.0-0.0-0.0","0","0","11946","[{""page_index"":0,""viewing_time"":6209},{""page_index"":1,""viewing_time"":35317},{""page_index"":2,""viewing_time"":21383},{""page_index"":3,""viewing_time"":22515}]","85424","","","","","","","","","","","","","","","","","","","",""
"","comprehension_check","","survey-multi-choice","2","4420990","0.0-1.0-0.0-1.0","0","0","11946","","23843","{""Q0"":""True"",""Q1"":""True"",""Q2"":""When you see the prompt 'MAKE A CHOICE' after the second image was presented"",""Q3"":""Green mark"",""Q4"":""either D or K""}","0","","","","","","","","","","","","","","","","","",""
"","start_exp","","html-keyboard-response","3","4441432","0.0-1.0-1.0","0","0","11946","","20440","","","32","","","","","","","","","","","","","","","","",""
"","S1","","html-keyboard-response","4","4441684","0.0-1.0-2.0","0","0","11946","","null","","","null","0","","","","","","","","","","","","","","","",""
"","ISI","","html-keyboard-response","5","4443687","0.0-1.0-3.0","0","0","11946","","null","","","null","0","NaN","","","","","","","","","","","","","","",""
"","S2","","html-keyboard-response","6","4443939","0.0-1.0-4.0","0","0","11946","","null","","","null","0","","NaN","","","","","","","","","","","","","",""
"","response","","html-keyboard-response","7","4444650","0.0-1.0-5.0","0","0","11946","","708","","","75","0","","","1","0","training","adjacent","ED","5","4","N.jpg","P.jpg","0","0","1","",""
"","feedback","","html-keyboard-response","8","4445652","0.0-1.0-6.0-0.0","0","0","11946","","null","","","null","0","","","","","","","","","","","","","","","",""
"","ITI","","html-keyboard-response","9","4446657","0.0-1.0-9.0","0","0","11946","","null","","","null","0","","","","","","","","","","","","","","","NaN",""
"","S1","","html-keyboard-response","10","4446909","0.0-1.0-11.0","0","0","11946","","null","","","null","1","","","","","","","","","","","","","","","",""
"","ISI","","html-keyboard-response","11","4448911","0.0-1.0-12.0","0","0","11946","","null","","","null","1","NaN","","","","","","","","","","","","","","",""
"","S2","","html-keyboard-response","12","4449165","0.0-1.0-13.0","0","0","11946","","null","","","null","1","","NaN","","","","","","","","","","","","","",""
"","response","","html-keyboard-response","13","4449792","0.0-1.0-14.0","0","0","11946","","626","","","68","1","","","1","1","training","adjacent","GF","7","6","L.jpg","R.jpg","1","0","0","",""
"","feedback","","html-keyboard-response","14","4450794","0.0-1.0-15.0-0.0","0","0","11946","","null","","","null","1","","","","","","","","","","","","","","","",""
"","time_out","","html-keyboard-response","15","4452796","0.0-1.0-17.0-0.0","0","0","11946","","null","","","null","1","","","","","","","","","","","","","","","",""
"","ITI","","html-keyboard-response","16","4453797","0.0-1.0-18.0","0","0","11946","","null","","","null","1","","","","","","","","","","","","","","","NaN",""
"","S1","","html-keyboard-response","17","4454049","0.0-1.0-20.0","0","0","11946","","null","","","null","2","","","","","","","","","","","","","","","",""
"","ISI","","html-keyboard-response","18","4456050","0.0-1.0-21.0","0","0","11946","","null","","","null","2","NaN","","","","","","","","","","","","","","",""
"","S2","","html-keyboard-response","19","4456302","0.0-1.0-22.0","0","0","11946","","null","","","null","2","","NaN","","","","","","","","","","","","","",""
"","response","","html-keyboard-response","20","4456953","0.0-1.0-23.0","0","0","11946","","649","","","75","2","","","1","2","training","adjacent","DC","4","3","P.jpg","O.jpg","0","0","1","",""
"","feedback","","html-keyboard-response","21","4457956","0.0-1.0-24.0-0.0","0","0","11946","","null","","","null","2","","","","","","","","","","","","","","","",""
"","ITI","","html-keyboard-response","22","4458957","0.0-1.0-27.0","0","0","11946","","null","","","null","2","","","","","","","","","","","","","","","NaN",""
"","S1","","html-keyboard-response","23","4459210","0.0-1.0-29.0","0","0","11946","","null","","","null","3","","","","","","","","","","","","","","","",""
"","ISI","","html-keyboard-response","24","4461211","0.0-1.0-30.0","0","0","11946","","null","","","null","3","NaN","","","","","","","","","","","","","","",""
"","S2","","html-keyboard-response","25","4461464","0.0-1.0-31.0","0","0","11946","","null","","","null","3","","NaN","","","","","","","","","","","","","",""
"","response","","html-keyboard-response","26","4462277","0.0-1.0-32.0","0","0","11946","","812","","","75","3","","","1","3","training","adjacent","CD","3","4","O.jpg","P.jpg","0","1","0","",""
"","feedback","","html-keyboard-response","27","4463280","0.0-1.0-33.0-0.0","0","0","11946","","null","","","null","3","","","","","","","","","","","","","","","",""
"","time_out","","html-keyboard-response","28","4465282","0.0-1.0-35.0-0.0","0","0","11946","","null","","","null","3","","","","","","","","","","","","","","","",""
"","ITI","","html-keyboard-response","29","4466285","0.0-1.0-36.0","0","0","11946","","null","","","null","3","","","","","","","","","","","","","","","NaN",""
"","S1","","html-keyboard-response","30","4466537","0.0-1.0-38.0","0","0","11946","","null","","","null","4","","","","","","","","","","","","","","","",""
"","ISI","","html-keyboard-response","31","4468539","0.0-1.0-39.0","0","0","11946","","null","","","null","4","NaN","","","","","","","","","","","","","","",""
"","S2","","html-keyboard-response","32","4468792","0.0-1.0-40.0","0","0","11946","","null","","","null","4","","NaN","","","","","","","","","","","","","",""
"","response","","html-keyboard-response","33","4469524","0.0-1.0-41.0","0","0","11946","","731","","","68","4","","","1","4","training","adjacent","FG","6","7","R.jpg","L.jpg","1","1","1","",""
"","feedback","","html-keyboard-response","34","4470527","0.0-1.0-42.0-0.0","0","0","11946","","null","","","null","4","","","","","","","","","","","","","","","",""
"","ITI","","html-keyboard-response","35","4471534","0.0-1.0-45.0","0","0","11946","","null","","","null","4","","","","","","","","","","","","","","","NaN",""
"","S1","","html-keyboard-response","36","4471788","0.0-1.0-47.0","0","0","11946","","null","","","null","5","","","","","","","","","","","","","","","",""
"","ISI","","html-keyboard-response","37","4473790","0.0-1.0-48.0","0","0","11946","","null","","","null","5","NaN","","","","","","","","","","","","","","",""
"","S2","","html-keyboard-response","38","4474044","0.0-1.0-49.0","0","0","11946","","null","","","null","5","","NaN","","","","","","","","","","","","","",""
"","response","","html-keyboard-response","39","4474423","0.0-1.0-50.0","0","0","11946","","378","","","68","5","","","1","5","training","adjacent","BA","2","1","M.jpg","Q.jpg","1","0","0","",""
"","feedback","","html-keyboard-response","40","4475426","0.0-1.0-51.0-0.0","0","0","11946","","null","","","null","5","","","","","","","","","","","","","","","",""
"","time_out","","html-keyboard-response","41","4477428","0.0-1.0-53.0-0.0","0","0","11946","","null","","","null","5","","","","","","","","","","","","","","","",""
"","ITI","","html-keyboard-response","42","4478429","0.0-1.0-54.0","0","0","11946","","null","","","null","5","","","","","","","","","","","","","","","NaN",""
"","S1","","html-keyboard-response","43","4478682","0.0-1.0-56.0","0","0","11946","","null","","","null","6","","","","","","","","","","","","","","","",""
"","ISI","","html-keyboard-response","44","4480686","0.0-1.0-57.0","0","0","11946","","null","","","null","6","NaN","","","","","","","","","","","","","","",""
"","S2","","html-keyboard-response","45","4480945","0.0-1.0-58.0","0","0","11946","","null","","","null","6","","NaN","","","","","","","","","","","","","",""
"","response","","html-keyboard-response","46","4481688","0.0-1.0-59.0","0","0","11946","","741","","","75","6","","","1","6","training","adjacent","BC","2","3","M.jpg","O.jpg","0","1","0","",""
"","feedback","","html-keyboard-response","47","4482690","0.0-1.0-60.0-0.0","0","0","11946","","null","","","null","6","","","","","","","","","","","","","","","",""
"","time_out","","html-keyboard-response","48","4484693","0.0-1.0-62.0-0.0","0","0","11946","","null","","","null","6","","","","","","","","","","","","","","","",""
"","ITI","","html-keyboard-response","49","4485694","0.0-1.0-63.0","0","0","11946","","null","","","null","6","","","","","","","","","","","","","","","NaN",""
"","S1","","html-keyboard-response","50","4485947","0.0-1.0-65.0","0","0","11946","","null","","","null","7","","","","","","","","","","","","","","","",""
"","ISI","","html-keyboard-response","51","4487949","0.0-1.0-66.0","0","0","11946","","null","","","null","7","NaN","","","","","","","","","","","","","","",""
"","S2","","html-keyboard-response","52","4488201","0.0-1.0-67.0","0","0","11946","","null","","","null","7","","NaN","","","","","","","","","","","","","",""
"","response","","html-keyboard-response","53","4488874","0.0-1.0-68.0","0","0","11946","","672","","","68","7","","","1","7","training","adjacent","CB","3","2","O.jpg","M.jpg","1","0","0","",""
"","feedback","","html-keyboard-response","54","4489876","0.0-1.0-69.0-0.0","0","0","11946","","null","","","null","7","","","","","","","","","","","","","","","",""
"","time_out","","html-keyboard-response","55","4491878","0.0-1.0-71.0-0.0","0","0","11946","","null","","","null","7","","","","","","","","","","","","","","","",""
"","ITI","","html-keyboard-response","56","4492879","0.0-1.0-72.0","0","0","11946","","null","","","null","7","","","","","","","","","","","","","","","NaN",""
"","S1","","html-keyboard-response","57","4493131","0.0-1.0-74.0","0","0","11946","","null","","","null","8","","","","","","","","","","","","","","","",""
"","ISI","","html-keyboard-response","58","4495133","0.0-1.0-75.0","0","0","11946","","null","","","null","8","NaN","","","","","","","","","","","","","","",""
"","S2","","html-keyboard-response","59","4495386","0.0-1.0-76.0","0","0","11946","","null","","","null","8","","NaN","","","","","","","","","","","","","",""
"","response","","html-keyboard-response","60","4496123","0.0-1.0-77.0","0","0","11946","","736","","","68","8","","","1","8","training","adjacent","CB","3","2","O.jpg","M.jpg","1","0","0","",""
"","feedback","","html-keyboard-response","61","4497125","0.0-1.0-78.0-0.0","0","0","11946","","null","","","null","8","","","","","","","","","","","","","","","",""
"","time_out","","html-keyboard-response","62","4499127","0.0-1.0-80.0-0.0","0","0","11946","","null","","","null","8","","","","","","","","","","","","","","","",""
"","ITI","","html-keyboard-response","63","4500129","0.0-1.0-81.0","0","0","11946","","null","","","null","8","","","","","","","","","","","","","","","NaN",""
"","S1","","html-keyboard-response","64","4500381","0.0-1.0-83.0","0","0","11946","","null","","","null","9","","","","","","","","","","","","","","","",""
"","ISI","","html-keyboard-response","65","4502383","0.0-1.0-84.0","0","0","11946","","null","","","null","9","NaN","","","","","","","","","","","","","","",""
"","S2","","html-keyboard-response","66","4502635","0.0-1.0-85.0","0","0","11946","","null","","","null","9","","NaN","","","","","","","","","","","","","",""
"","response","","html-keyboard-response","67","4503194","0.0-1.0-86.0","0","0","11946","","559","","","75","9","","","1","9","training","adjacent","EF","5","6","N.jpg","R.jpg","0","1","0","",""
"","feedback","","html-keyboard-response","68","4504196","0.0-1.0-87.0-0.0","0","0","11946","","null","","","null","9","","","","","","","","","","","","","","","",""
"","time_out","","html-keyboard-response","69","4506198","0.0-1.0-89.0-0.0","0","0","11946","","null","","","null","9","","","","","","","","","","","","","","","",""
"","ITI","","html-keyboard-response","70","4507200","0.0-1.0-90.0","0","0","11946","","null","","","null","9","","","","","","","","","","","","","","","NaN",""
"","S1","","html-keyboard-response","71","4507453","0.0-1.0-92.0","0","0","11946","","null","","","null","10","","","","","","","","","","","","","","","",""
"","ISI","","html-keyboard-response","72","4509455","0.0-1.0-93.0","0","0","11946","","null","","","null","10","NaN","","","","","","","","","","","","","","",""
"","S2","","html-keyboard-response","73","4509706","0.0-1.0-94.0","0","0","11946","","null","","","null","10","","NaN","","","","","","","","","","","","","",""
"","response","","html-keyboard-response","74","4510909","0.0-1.0-95.0","0","0","11946","","1203","","","75","10","","","1","10","training","adjacent","DC","4","3","P.jpg","O.jpg","0","0","1","",""
"","feedback","","html-keyboard-response","75","4511911","0.0-1.0-96.0-0.0","0","0","11946","","null","","","null","10","","","","","","","","","","","","","","","",""
"","ITI","","html-keyboard-response","76","4512914","0.0-1.0-99.0","0","0","11946","","null","","","null","10","","","","","","","","","","","","","","","NaN",""
"","S1","","html-keyboard-response","77","4513165","0.0-1.0-101.0","0","0","11946","","null","","","null","11","","","","","","","","","","","","","","","",""
"","ISI","","html-keyboard-response","78","4515167","0.0-1.0-102.0","0","0","11946","","null","","","null","11","NaN","","","","","","","","","","","","","","",""
"","S2","","html-keyboard-response","79","4515419","0.0-1.0-103.0","0","0","11946","","null","","","null","11","","NaN","","","","","","","","","","","","","",""
"","response","","html-keyboard-response","80","4517107","0.0-1.0-104.0","0","0","11946","","1687","","","75","11","","","1","11","training","adjacent","DC","4","3","P.jpg","O.jpg","0","0","1","",""
"","feedback","","html-keyboard-response","81","4518109","0.0-1.0-105.0-0.0","0","0","11946","","null","","","null","11","","","","","","","","","","","","","","","",""
"","ITI","","html-keyboard-response","82","4519110","0.0-1.0-108.0","0","0","11946","","null","","","null","11","","","","","","","","","","","","","","","NaN",""
"","S1","","html-keyboard-response","83","4519362","0.0-1.0-110.0","0","0","11946","","null","","","null","12","","","","","","","","","","","","","","","",""
"","ISI","","html-keyboard-response","84","4521364","0.0-1.0-111.0","0","0","11946","","null","","","null","12","NaN","","","","","","","","","","","","","","",""
"","S2","","html-keyboard-response","85","4521620","0.0-1.0-112.0","0","0","11946","","null","","","null","12","","NaN","","","","","","","","","","","","","",""
"","response","","html-keyboard-response","86","4522196","0.0-1.0-113.0","0","0","11946","","576","","","68","12","","","1","12","training","adjacent","GF","7","6","L.jpg","R.jpg","1","0","0","",""
"","feedback","","html-keyboard-response","87","4523198","0.0-1.0-114.0-0.0","0","0","11946","","null","","","null","12","","","","","","","","","","","","","","","",""
"","time_out","","html-keyboard-response","88","4525200","0.0-1.0-116.0-0.0","0","0","11946","","null","","","null","12","","","","","","","","","","","","","","","",""
"","ITI","","html-keyboard-response","89","4526202","0.0-1.0-117.0","0","0","11946","","null","","","null","12","","","","","","","","","","","","","","","NaN",""
"","S1","","html-keyboard-response","90","4526454","0.0-1.0-119.0","0","0","11946","","null","","","null","13","","","","","","","","","","","","","","","",""
"","ISI","","html-keyboard-response","91","4528457","0.0-1.0-120.0","0","0","11946","","null","","","null","13","NaN","","","","","","","","","","","","","","",""
"","S2","","html-keyboard-response","92","4528708","0.0-1.0-121.0","0","0","11946","","null","","","null","13","","NaN","","","","","","","","","","","","","",""
"","response","","html-keyboard-response","93","4528924","0.0-1.0-122.0","0","0","11946","","216","","","75","13","","","1","13","training","adjacent","ED","5","4","N.jpg","P.jpg","0","0","1","",""
"","feedback","","html-keyboard-response","94","4529927","0.0-1.0-123.0-0.0","0","0","11946","","null","","","null","13","","","","","","","","","","","","","","","",""
"","ITI","","html-keyboard-response","95","4530928","0.0-1.0-126.0","0","0","11946","","null","","","null","13","","","","","","","","","","","","","","","NaN",""
"","S1","","html-keyboard-response","96","4531182","0.0-1.0-128.0","0","0","11946","","null","","","null","14","","","","","","","","","","","","","","","",""
"","ISI","","html-keyboard-response","97","4533185","0.0-1.0-129.0","0","0","11946","","null","","","null","14","NaN","","","","","","","","","","","","","","",""
"","S2","","html-keyboard-response","98","4533437","0.0-1.0-130.0","0","0","11946","","null","","","null","14","","NaN","","","","","","","","","","","","","",""
"","response","","html-keyboard-response","99","4533800","0.0-1.0-131.0","0","0","11946","","361","","","75","14","","","1","14","training","adjacent","CD","3","4","O.jpg","P.jpg","0","1","0","",""
"","feedback","","html-keyboard-response","100","4534801","0.0-1.0-132.0-0.0","0","0","11946","","null","","","null","14","","","","","","","","","","","","","","","",""
"","time_out","","html-keyboard-response","101","4536802","0.0-1.0-134.0-0.0","0","0","11946","","null","","","null","14","","","","","","","","","","","","","","","",""
"","ITI","","html-keyboard-response","102","4537803","0.0-1.0-135.0","0","0","11946","","null","","","null","14","","","","","","","","","","","","","","","NaN",""
"","S1","","html-keyboard-response","103","4538057","0.0-1.0-137.0","0","0","11946","","null","","","null","15","","","","","","","","","","","","","","","",""
"","ISI","","html-keyboard-response","104","4540058","0.0-1.0-138.0","0","0","11946","","null","","","null","15","NaN","","","","","","","","","","","","","","",""
"","S2","","html-keyboard-response","105","4540309","0.0-1.0-139.0","0","0","11946","","null","","","null","15","","NaN","","","","","","","","","","","","","",""
"","response","","html-keyboard-response","106","4542312","0.0-1.0-140.0","0","0","11946","","null","","","null","15","","","1","15","training","adjacent","BC","2","3","M.jpg","O.jpg","NaN","1","0","",""
"","too_slow_prompt","","html-keyboard-response","107","4543314","0.0-1.0-142.0-0.0","1","0","11946","","null","","","null","","","","","","","","","","","","","","","","",""
"","time_out","","html-keyboard-response","108","4545315","0.0-1.0-143.0-0.0","0","0","11946","","null","","","null","15","","","","","","","","","","","","","","","",""
"","ITI","","html-keyboard-response","109","4546318","0.0-1.0-144.0","0","0","11946","","null","","","null","15","","","","","","","","","","","","","","","NaN",""
"","S1","","html-keyboard-response","110","4546570","0.0-1.0-146.0","0","0","11946","","null","","","null","16","","","","","","","","","","","","","","","",""
"","ISI","","html-keyboard-response","111","4548572","0.0-1.0-147.0","0","0","11946","","null","","","null","16","NaN","","","","","","","","","","","","","","",""
"","S2","","html-keyboard-response","112","4548824","0.0-1.0-148.0","0","0","11946","","null","","","null","16","","NaN","","","","","","","","","","","","","",""
"","response","","html-keyboard-response","113","4549138","0.0-1.0-149.0","0","0","11946","","313","","","75","16","","","1","16","training","adjacent","DE","4","5","P.jpg","N.jpg","0","1","0","",""
"","feedback","","html-keyboard-response","114","4550140","0.0-1.0-150.0-0.0","0","0","11946","","null","","","null","16","","","","","","","","","","","","","","","",""
"","time_out","","html-keyboard-response","115","4552142","0.0-1.0-152.0-0.0","0","0","11946","","null","","","null","16","","","","","","","","","","","","","","","",""
"","ITI","","html-keyboard-response","116","4553143","0.0-1.0-153.0","0","0","11946","","null","","","null","16","","","","","","","","","","","","","","","NaN",""
"","S1","","html-keyboard-response","117","4553397","0.0-1.0-155.0","0","0","11946","","null","","","null","17","","","","","","","","","","","","","","","",""
"","ISI","","html-keyboard-response","118","4555399","0.0-1.0-156.0","0","0","11946","","null","","","null","17","NaN","","","","","","","","","","","","","","",""
"","S2","","html-keyboard-response","119","4555652","0.0-1.0-157.0","0","0","11946","","null","","","null","17","","NaN","","","","","","","","","","","","","",""
"","response","","html-keyboard-response","120","4556126","0.0-1.0-158.0","0","0","11946","","473","","","75","17","","","1","17","training","adjacent","AB","1","2","Q.jpg","M.jpg","0","1","0","",""
"","feedback","","html-keyboard-response","121","4557128","0.0-1.0-159.0-0.0","0","0","11946","","null","","","null","17","","","","","","","","","","","","","","","",""
"","time_out","","html-keyboard-response","122","4559131","0.0-1.0-161.0-0.0","0","0","11946","","null","","","null","17","","","","","","","","","","","","","","","",""
"","ITI","","html-keyboard-response","123","4560133","0.0-1.0-162.0","0","0","11946","","null","","","null","17","","","","","","","","","","","","","","","NaN",""
"","S1","","html-keyboard-response","124","4560385","0.0-1.0-164.0","0","0","11946","","null","","","null","18","","","","","","","","","","","","","","","",""
"","ISI","","html-keyboard-response","125","4562387","0.0-1.0-165.0","0","0","11946","","null","","","null","18","NaN","","","","","","","","","","","","","","",""
"","S2","","html-keyboard-response","126","4562645","0.0-1.0-166.0","0","0","11946","","null","","","null","18","","NaN","","","","","","","","","","","","","",""
"","response","","html-keyboard-response","127","4563038","0.0-1.0-167.0","0","0","11946","","393","","","68","18","","","1","18","training","adjacent","CD","3","4","O.jpg","P.jpg","1","1","1","",""
"","feedback","","html-keyboard-response","128","4564041","0.0-1.0-168.0-0.0","0","0","11946","","null","","","null","18","","","","","","","","","","","","","","","",""
"","ITI","","html-keyboard-response","129","4565044","0.0-1.0-171.0","0","0","11946","","null","","","null","18","","","","","","","","","","","","","","","NaN",""
"","S1","","html-keyboard-response","130","4565297","0.0-1.0-173.0","0","0","11946","","null","","","null","19","","","","","","","","","","","","","","","",""
"","ISI","","html-keyboard-response","131","4567299","0.0-1.0-174.0","0","0","11946","","null","","","null","19","NaN","","","","","","","","","","","","","","",""
"","S2","","html-keyboard-response","132","4567551","0.0-1.0-175.0","0","0","11946","","null","","","null","19","","NaN","","","","","","","","","","","","","",""
"","response","","html-keyboard-response","133","4568071","0.0-1.0-176.0","0","0","11946","","520","","","75","19","","","1","19","training","adjacent","BC","2","3","M.jpg","O.jpg","0","1","0","",""
"","feedback","","html-keyboard-response","134","4569074","0.0-1.0-177.0-0.0","0","0","11946","","null","","","null","19","","","","","","","","","","","","","","","",""
"","time_out","","html-keyboard-response","135","4571077","0.0-1.0-179.0-0.0","0","0","11946","","null","","","null","19","","","","","","","","","","","","","","","",""
"","ITI","","html-keyboard-response","136","4572079","0.0-1.0-180.0","0","0","11946","","null","","","null","19","","","","","","","","","","","","","","","NaN",""
"","S1","","html-keyboard-response","137","4572330","0.0-1.0-182.0","0","0","11946","","null","","","null","20","","","","","","","","","","","","","","","",""
"","ISI","","html-keyboard-response","138","4574331","0.0-1.0-183.0","0","0","11946","","null","","","null","20","NaN","","","","","","","","","","","","","","",""
"","S2","","html-keyboard-response","139","4574584","0.0-1.0-184.0","0","0","11946","","null","","","null","20","","NaN","","","","","","","","","","","","","",""
"","response","","html-keyboard-response","140","4574699","0.0-1.0-185.0","0","0","11946","","115","","","75","20","","","1","20","training","adjacent","BA","2","1","M.jpg","Q.jpg","0","0","1","",""
"","feedback","","html-keyboard-response","141","4575701","0.0-1.0-186.0-0.0","0","0","11946","","null","","","null","20","","","","","","","","","","","","","","","",""
"","ITI","","html-keyboard-response","142","4576703","0.0-1.0-189.0","0","0","11946","","null","","","null","20","","","","","","","","","","","","","","","NaN",""
"","S1","","html-keyboard-response","143","4576956","0.0-1.0-191.0","0","0","11946","","null","","","null","21","","","","","","","","","","","","","","","",""
"","ISI","","html-keyboard-response","144","4578957","0.0-1.0-192.0","0","0","11946","","827","","","75","21","k","","","","","","","","","","","","","","",""
"","S2","","html-keyboard-response","145","4579210","0.0-1.0-193.0","0","0","11946","","null","","","null","21","","NaN","","","","","","","","","","","","","",""
"","response","","html-keyboard-response","146","4579234","0.0-1.0-194.0","0","0","11946","","23","","","68","21","","","1","21","training","adjacent","AB","1","2","Q.jpg","M.jpg","1","1","1","",""
"","feedback","","html-keyboard-response","147","4580235","0.0-1.0-195.0-0.0","0","0","11946","","null","","","null","21","","","","","","","","","","","","","","","",""
"","ITI","","html-keyboard-response","148","4581237","0.0-1.0-198.0","0","0","11946","","null","","","null","21","","","","","","","","","","","","","","","NaN",""
"","S1","","html-keyboard-response","149","4581489","0.0-1.0-200.0","0","0","11946","","null","","","null","22","","","","","","","","","","","","","","","",""
"","ISI","","html-keyboard-response","150","4583490","0.0-1.0-201.0","0","0","11946","","null","","","null","22","NaN","","","","","","","","","","","","","","",""
"","S2","","html-keyboard-response","151","4583743","0.0-1.0-202.0","0","0","11946","","null","","","null","22","","NaN","","","","","","","","","","","","","",""
"","response","","html-keyboard-response","152","4584693","0.0-1.0-203.0","0","0","11946","","949","","","75","22","","","1","22","training","adjacent","CB","3","2","O.jpg","M.jpg","0","0","1","",""
"","feedback","","html-keyboard-response","153","4585695","0.0-1.0-204.0-0.0","0","0","11946","","null","","","null","22","","","","","","","","","","","","","","","",""
"","ITI","","html-keyboard-response","154","4586696","0.0-1.0-207.0","0","0","11946","","null","","","null","22","","","","","","","","","","","","","","","NaN",""
"","S1","","html-keyboard-response","155","4586948","0.0-1.0-209.0","0","0","11946","","null","","","null","23","","","","","","","","","","","","","","","",""
"","ISI","","html-keyboard-response","156","4588950","0.0-1.0-210.0","0","0","11946","","null","","","null","23","NaN","","","","","","","","","","","","","","",""
"","S2","","html-keyboard-response","157","4589203","0.0-1.0-211.0","0","0","11946","","null","","","null","23","","NaN","","","","","","","","","","","","","",""
"","response","","html-keyboard-response","158","4589373","0.0-1.0-212.0","0","0","11946","","170","","","75","23","","","1","23","training","adjacent","BA","2","1","M.jpg","Q.jpg","0","0","1","",""
"","feedback","","html-keyboard-response","159","4590376","0.0-1.0-213.0-0.0","0","0","11946","","null","","","null","23","","","","","","","","","","","","","","","",""
"","ITI","","html-keyboard-response","160","4591378","0.0-1.0-216.0","0","0","11946","","null","","","null","23","","","","","","","","","","","","","","","NaN",""
"","S1","","html-keyboard-response","161","4591630","0.0-1.0-218.0","0","0","11946","","null","","","null","24","","","","","","","","","","","","","","","",""
"","ISI","","html-keyboard-response","162","4593632","0.0-1.0-219.0","0","0","11946","","null","","","null","24","NaN","","","","","","","","","","","","","","",""
"","S2","","html-keyboard-response","163","4593888","0.0-1.0-220.0","0","0","11946","","null","","","null","24","","NaN","","","","","","","","","","","","","",""
"","response","","html-keyboard-response","164","4594315","0.0-1.0-221.0","0","0","11946","","426","","","75","24","","","1","24","training","adjacent","FE","6","5","R.jpg","N.jpg","0","0","1","",""
"","feedback","","html-keyboard-response","165","4595322","0.0-1.0-222.0-0.0","0","0","11946","","null","","","null","24","","","","","","","","","","","","","","","",""
"","ITI","","html-keyboard-response","166","4596325","0.0-1.0-225.0","0","0","11946","","null","","","null","24","","","","","","","","","","","","","","","NaN",""
"","S1","","html-keyboard-response","167","4596578","0.0-1.0-227.0","0","0","11946","","null","","","null","25","","","","","","","","","","","","","","","",""
"","ISI","","html-keyboard-response","168","4598579","0.0-1.0-228.0","0","0","11946","","1094","","","68","25","d","","","","","","","","","","","","","","",""
"","S2","","html-keyboard-response","169","4598831","0.0-1.0-229.0","0","0","11946","","null","","","null","25","","NaN","","","","","","","","","","","","","",""
"","response","","html-keyboard-response","170","4599105","0.0-1.0-230.0","0","0","11946","","273","","","68","25","","","1","25","training","adjacent","GF","7","6","L.jpg","R.jpg","1","0","0","",""
"","feedback","","html-keyboard-response","171","4600108","0.0-1.0-231.0-0.0","0","0","11946","","null","","","null","25","","","","","","","","","","","","","","","",""
"","time_out","","html-keyboard-response","172","4602109","0.0-1.0-233.0-0.0","0","0","11946","","null","","","null","25","","","","","","","","","","","","","","","",""
"","ITI","","html-keyboard-response","173","4603112","0.0-1.0-234.0","0","0","11946","","156","","","68","25","","","","","","","","","","","","","","","d",""
"","S1","","html-keyboard-response","174","4603364","0.0-1.0-236.0","0","0","11946","","null","","","null","26","","","","","","","","","","","","","","","",""
"","ISI","","html-keyboard-response","175","4605366","0.0-1.0-237.0","0","0","11946","","null","","","null","26","NaN","","","","","","","","","","","","","","",""
"","S2","","html-keyboard-response","176","4605627","0.0-1.0-238.0","0","0","11946","","null","","","null","26","","NaN","","","","","","","","","","","","","",""
"","response","","html-keyboard-response","177","4605841","0.0-1.0-239.0","0","0","11946","","213","","","75","26","","","1","26","training","adjacent","ED","5","4","N.jpg","P.jpg","0","0","1","",""
"","feedback","","html-keyboard-response","178","4606848","0.0-1.0-240.0-0.0","0","0","11946","","null","","","null","26","","","","","","","","","","","","","","","",""
"","ITI","","html-keyboard-response","179","4607850","0.0-1.0-243.0","0","0","11946","","null","","","null","26","","","","","","","","","","","","","","","NaN",""
"","S1","","html-keyboard-response","180","4608103","0.0-1.0-245.0","0","0","11946","","null","","","null","27","","","","","","","","","","","","","","","",""
"","ISI","","html-keyboard-response","181","4610105","0.0-1.0-246.0","0","0","11946","","null","","","null","27","NaN","","","","","","","","","","","","","","",""
"","S2","","html-keyboard-response","182","4610358","0.0-1.0-247.0","0","0","11946","","null","","","null","27","","NaN","","","","","","","","","","","","","",""
"","response","","html-keyboard-response","183","4610876","0.0-1.0-248.0","0","0","11946","","517","","","68","27","","","1","27","training","adjacent","CB","3","2","O.jpg","M.jpg","1","0","0","",""
"","feedback","","html-keyboard-response","184","4611880","0.0-1.0-249.0-0.0","0","0","11946","","null","","","null","27","","","","","","","","","","","","","","","",""
"","time_out","","html-keyboard-response","185","4613883","0.0-1.0-251.0-0.0","0","0","11946","","null","","","null","27","","","","","","","","","","","","","","","",""
"","ITI","","html-keyboard-response","186","4614885","0.0-1.0-252.0","0","0","11946","","null","","","null","27","","","","","","","","","","","","","","","NaN",""
"","S1","","html-keyboard-response","187","4615136","0.0-1.0-254.0","0","0","11946","","null","","","null","28","","","","","","","","","","","","","","","",""
"","ISI","","html-keyboard-response","188","4617138","0.0-1.0-255.0","0","0","11946","","null","","","null","28","NaN","","","","","","","","","","","","","","",""
"","S2","","html-keyboard-response","189","4617390","0.0-1.0-256.0","0","0","11946","","null","","","null","28","","NaN","","","","","","","","","","","","","",""
"","response","","html-keyboard-response","190","4618488","0.0-1.0-257.0","0","0","11946","","1097","","","75","28","","","1","28","training","adjacent","DE","4","5","P.jpg","N.jpg","0","1","0","",""
"","feedback","","html-keyboard-response","191","4619490","0.0-1.0-258.0-0.0","0","0","11946","","null","","","null","28","","","","","","","","","","","","","","","",""
"","time_out","","html-keyboard-response","192","4621493","0.0-1.0-260.0-0.0","0","0","11946","","null","","","null","28","","","","","","","","","","","","","","","",""
"","ITI","","html-keyboard-response","193","4622494","0.0-1.0-261.0","0","0","11946","","null","","","null","28","","","","","","","","","","","","","","","NaN",""
"","S1","","html-keyboard-response","194","4622745","0.0-1.0-263.0","0","0","11946","","null","","","null","29","","","","","","","","","","","","","","","",""
"","ISI","","html-keyboard-response","195","4624747","0.0-1.0-264.0","0","0","11946","","null","","","null","29","NaN","","","","","","","","","","","","","","",""
"","S2","","html-keyboard-response","196","4624998","0.0-1.0-265.0","0","0","11946","","null","","","null","29","","NaN","","","","","","","","","","","","","",""
"","response","","html-keyboard-response","197","4625293","0.0-1.0-266.0","0","0","11946","","294","","","68","29","","","1","29","training","adjacent","EF","5","6","N.jpg","R.jpg","1","1","1","",""
"","feedback","","html-keyboard-response","198","4626298","0.0-1.0-267.0-0.0","0","0","11946","","null","","","null","29","","","","","","","","","","","","","","","",""
"","ITI","","html-keyboard-response","199","4627300","0.0-1.0-270.0","0","0","11946","","null","","","null","29","","","","","","","","","","","","","","","NaN",""
"","S1","","html-keyboard-response","200","4627556","0.0-1.0-272.0","0","0","11946","","null","","","null","30","","","","","","","","","","","","","","","",""
"","ISI","","html-keyboard-response","201","4629558","0.0-1.0-273.0","0","0","11946","","null","","","null","30","NaN","","","","","","","","","","","","","","",""
"","S2","","html-keyboard-response","202","4629815","0.0-1.0-274.0","0","0","11946","","null","","","null","30","","NaN","","","","","","","","","","","","","",""
"","response","","html-keyboard-response","203","4631347","0.0-1.0-275.0","0","0","11946","","1530","","","68","30","","","1","30","training","adjacent","DE","4","5","P.jpg","N.jpg","1","1","1","",""
"","feedback","","html-keyboard-response","204","4632348","0.0-1.0-276.0-0.0","0","0","11946","","null","","","null","30","","","","","","","","","","","","","","","",""
"","ITI","","html-keyboard-response","205","4633350","0.0-1.0-279.0","0","0","11946","","null","","","null","30","","","","","","","","","","","","","","","NaN",""
"","S1","","html-keyboard-response","206","4633602","0.0-1.0-281.0","0","0","11946","","null","","","null","31","","","","","","","","","","","","","","","",""
"","ISI","","html-keyboard-response","207","4635608","0.0-1.0-282.0","0","0","11946","","387","","","75","31","k","","","","","","","","","","","","","","",""
"","S2","","html-keyboard-response","208","4635868","0.0-1.0-283.0","0","0","11946","","null","","","null","31","","NaN","","","","","","","","","","","","","",""
"","response","","html-keyboard-response","209","4636512","0.0-1.0-284.0","0","0","11946","","642","","","75","31","","","1","31","training","adjacent","AB","1","2","Q.jpg","M.jpg","0","1","0","",""
"","feedback","","html-keyboard-response","210","4637513","0.0-1.0-285.0-0.0","0","0","11946","","null","","","null","31","","","","","","","","","","","","","","","",""
"","time_out","","html-keyboard-response","211","4639515","0.0-1.0-287.0-0.0","0","0","11946","","null","","","null","31","","","","","","","","","","","","","","","",""
"","ITI","","html-keyboard-response","212","4640517","0.0-1.0-288.0","0","0","11946","","null","","","null","31","","","","","","","","","","","","","","","NaN",""
"","S1","","html-keyboard-response","213","4640769","0.0-1.0-290.0","0","0","11946","","null","","","null","32","","","","","","","","","","","","","","","",""
"","ISI","","html-keyboard-response","214","4642770","0.0-1.0-291.0","0","0","11946","","1599","","","68","32","d","","","","","","","","","","","","","","",""
"","S2","","html-keyboard-response","215","4643032","0.0-1.0-292.0","0","0","11946","","null","","","null","32","","NaN","","","","","","","","","","","","","",""
"","response","","html-keyboard-response","216","4643377","0.0-1.0-293.0","0","0","11946","","344","","","68","32","","","1","32","training","adjacent","FE","6","5","R.jpg","N.jpg","1","0","0","",""
"","feedback","","html-keyboard-response","217","4644379","0.0-1.0-294.0-0.0","0","0","11946","","null","","","null","32","","","","","","","","","","","","","","","",""
"","time_out","","html-keyboard-response","218","4646382","0.0-1.0-296.0-0.0","0","0","11946","","null","","","null","32","","","","","","","","","","","","","","","",""
"","ITI","","html-keyboard-response","219","4647385","0.0-1.0-297.0","0","0","11946","","null","","","null","32","","","","","","","","","","","","","","","NaN",""
"","S1","","html-keyboard-response","220","4647637","0.0-1.0-299.0","0","0","11946","","null","","","null","33","","","","","","","","","","","","","","","",""
"","ISI","","html-keyboard-response","221","4649639","0.0-1.0-300.0","0","0","11946","","null","","","null","33","NaN","","","","","","","","","","","","","","",""
"","S2","","html-keyboard-response","222","4649891","0.0-1.0-301.0","0","0","11946","","null","","","null","33","","NaN","","","","","","","","","","","","","",""
"","response","","html-keyboard-response","223","4650066","0.0-1.0-302.0","0","0","11946","","173","","","75","33","","","1","33","training","adjacent","FE","6","5","R.jpg","N.jpg","0","0","1","",""
"","feedback","","html-keyboard-response","224","4651073","0.0-1.0-303.0-0.0","0","0","11946","","null","","","null","33","","","","","","","","","","","","","","","",""
"","ITI","","html-keyboard-response","225","4652075","0.0-1.0-306.0","0","0","11946","","null","","","null","33","","","","","","","","","","","","","","","NaN",""
"","S1","","html-keyboard-response","226","4652326","0.0-1.0-308.0","0","0","11946","","null","","","null","34","","","","","","","","","","","","","","","",""
"","ISI","","html-keyboard-response","227","4654328","0.0-1.0-309.0","0","0","11946","","575","","","68","34","d","","","","","","","","","","","","","","",""
"","S2","","html-keyboard-response","228","4654580","0.0-1.0-310.0","0","0","11946","","null","","","null","34","","NaN","","","","","","","","","","","","","",""
"","response","","html-keyboard-response","229","4654892","0.0-1.0-311.0","0","0","11946","","311","","","75","34","","","1","34","training","adjacent","AB","1","2","Q.jpg","M.jpg","0","1","0","",""
"","feedback","","html-keyboard-response","230","4655896","0.0-1.0-312.0-0.0","0","0","11946","","null","","","null","34","","","","","","","","","","","","","","","",""
"","time_out","","html-keyboard-response","231","4657899","0.0-1.0-314.0-0.0","0","0","11946","","null","","","null","34","","","","","","","","","","","","","","","",""
"","ITI","","html-keyboard-response","232","4658900","0.0-1.0-315.0","0","0","11946","","null","","","null","34","","","","","","","","","","","","","","","NaN",""
"","S1","","html-keyboard-response","233","4659152","0.0-1.0-317.0","0","0","11946","","null","","","null","35","","","","","","","","","","","","","","","",""
"","ISI","","html-keyboard-response","234","4661155","0.0-1.0-318.0","0","0","11946","","null","","","null","35","NaN","","","","","","","","","","","","","","",""
"","S2","","html-keyboard-response","235","4661407","0.0-1.0-319.0","0","0","11946","","null","","","null","35","","NaN","","","","","","","","","","","","","",""
"","response","","html-keyboard-response","236","4661522","0.0-1.0-320.0","0","0","11946","","114","","","68","35","","","1","35","training","adjacent","FG","6","7","R.jpg","L.jpg","1","1","1","",""
"","feedback","","html-keyboard-response","237","4662525","0.0-1.0-321.0-0.0","0","0","11946","","null","","","null","35","","","","","","","","","","","","","","","",""
"","ITI","","html-keyboard-response","238","4663526","0.0-1.0-324.0","0","0","11946","","null","","","null","35","","","","","","","","","","","","","","","NaN",""
"","S1","","html-keyboard-response","239","4663779","0.0-1.0-326.0","0","0","11946","","null","","","null","36","","","","","","","","","","","","","","","",""
"","ISI","","html-keyboard-response","240","4665782","0.0-1.0-327.0","0","0","11946","","null","","","null","36","NaN","","","","","","","","","","","","","","",""
"","S2","","html-keyboard-response","241","4666039","0.0-1.0-328.0","0","0","11946","","null","","","null","36","","NaN","","","","","","","","","","","","","",""
"","response","","html-keyboard-response","242","4666369","0.0-1.0-329.0","0","0","11946","","329","","","75","36","","","1","36","training","adjacent","BC","2","3","M.jpg","O.jpg","0","1","0","",""
"","feedback","","html-keyboard-response","243","4667371","0.0-1.0-330.0-0.0","0","0","11946","","null","","","null","36","","","","","","","","","","","","","","","",""
"","time_out","","html-keyboard-response","244","4669374","0.0-1.0-332.0-0.0","0","0","11946","","null","","","null","36","","","","","","","","","","","","","","","",""
"","ITI","","html-keyboard-response","245","4670376","0.0-1.0-333.0","0","0","11946","","null","","","null","36","","","","","","","","","","","","","","","NaN",""
"","S1","","html-keyboard-response","246","4670628","0.0-1.0-335.0","0","0","11946","","null","","","null","37","","","","","","","","","","","","","","","",""
"","ISI","","html-keyboard-response","247","4672630","0.0-1.0-336.0","0","0","11946","","null","","","null","37","NaN","","","","","","","","","","","","","","",""
"","S2","","html-keyboard-response","248","4672883","0.0-1.0-337.0","0","0","11946","","null","","","null","37","","NaN","","","","","","","","","","","","","",""
"","response","","html-keyboard-response","249","4673256","0.0-1.0-338.0","0","0","11946","","373","","","75","37","","","1","37","training","adjacent","BA","2","1","M.jpg","Q.jpg","0","0","1","",""
"","feedback","","html-keyboard-response","250","4674258","0.0-1.0-339.0-0.0","0","0","11946","","null","","","null","37","","","","","","","","","","","","","","","",""
"","ITI","","html-keyboard-response","251","4675260","0.0-1.0-342.0","0","0","11946","","null","","","null","37","","","","","","","","","","","","","","","NaN",""
"","S1","","html-keyboard-response","252","4675512","0.0-1.0-344.0","0","0","11946","","null","","","null","38","","","","","","","","","","","","","","","",""
"","ISI","","html-keyboard-response","253","4677513","0.0-1.0-345.0","0","0","11946","","null","","","null","38","NaN","","","","","","","","","","","","","","",""
"","S2","","html-keyboard-response","254","4677764","0.0-1.0-346.0","0","0","11946","","null","","","null","38","","NaN","","","","","","","","","","","","","",""
"","response","","html-keyboard-response","255","4678126","0.0-1.0-347.0","0","0","11946","","361","","","68","38","","","1","38","training","adjacent","FG","6","7","R.jpg","L.jpg","1","1","1","",""
"","feedback","","html-keyboard-response","256","4679128","0.0-1.0-348.0-0.0","0","0","11946","","null","","","null","38","","","","","","","","","","","","","","","",""
"","ITI","","html-keyboard-response","257","4680130","0.0-1.0-351.0","0","0","11946","","null","","","null","38","","","","","","","","","","","","","","","NaN",""
"","S1","","html-keyboard-response","258","4680381","0.0-1.0-353.0","0","0","11946","","null","","","null","39","","","","","","","","","","","","","","","",""
"","ISI","","html-keyboard-response","259","4682384","0.0-1.0-354.0","0","0","11946","","null","","","null","39","NaN","","","","","","","","","","","","","","",""
"","S2","","html-keyboard-response","260","4682639","0.0-1.0-355.0","0","0","11946","","null","","","null","39","","NaN","","","","","","","","","","","","","",""
"","response","","html-keyboard-response","261","4683504","0.0-1.0-356.0","0","0","11946","","862","","","75","39","","","1","39","training","adjacent","EF","5","6","N.jpg","R.jpg","0","1","0","",""
"","feedback","","html-keyboard-response","262","4684508","0.0-1.0-357.0-0.0","0","0","11946","","null","","","null","39","","","","","","","","","","","","","","","",""
"","time_out","","html-keyboard-response","263","4686511","0.0-1.0-359.0-0.0","0","0","11946","","null","","","null","39","","","","","","","","","","","","","","","",""
"","ITI","","html-keyboard-response","264","4687514","0.0-1.0-360.0","0","0","11946","","null","","","null","39","","","","","","","","","","","","","","","NaN",""
"","block_over","","html-keyboard-response","265","5007294","0.0-1.0-361.0-0.0","0","0","11946","","319779","","","32","39","","","","","","","","","","","","","","","",""
"","S1","","html-keyboard-response","266","5007547","0.0-1.0-362.0","0","0","11946","","null","","","null","40","","","","","","","","","","","","","","","",""
"","ISI","","html-keyboard-response","267","5009548","0.0-1.0-363.0","0","0","11946","","null","","","null","40","NaN","","","","","","","","","","","","","","",""
"","S2","","html-keyboard-response","268","5009800","0.0-1.0-364.0","0","0","11946","","null","","","null","40","","NaN","","","","","","","","","","","","","",""
"","response","","html-keyboard-response","269","5009978","0.0-1.0-365.0","0","0","11946","","178","","","75","40","","","2","40","training","adjacent","FE","6","5","R.jpg","N.jpg","0","0","1","",""
"","feedback","","html-keyboard-response","270","5010986","0.0-1.0-366.0-0.0","0","0","11946","","null","","","null","40","","","","","","","","","","","","","","","",""
"","ITI","","html-keyboard-response","271","5012000","0.0-1.0-369.0","0","0","11946","","null","","","null","40","","","","","","","","","","","","","","","NaN",""
"","S1","","html-keyboard-response","272","5012252","0.0-1.0-371.0","0","0","11946","","null","","","null","41","","","","","","","","","","","","","","","",""
"","ISI","","html-keyboard-response","273","5014254","0.0-1.0-372.0","0","0","11946","","null","","","null","41","NaN","","","","","","","","","","","","","","",""
"","S2","","html-keyboard-response","274","5014506","0.0-1.0-373.0","0","0","11946","","null","","","null","41","","NaN","","","","","","","","","","","","","",""
"","response","","html-keyboard-response","275","5015061","0.0-1.0-374.0","0","0","11946","","553","","","75","41","","","2","41","training","adjacent","GF","7","6","L.jpg","R.jpg","0","0","1","",""
"","feedback","","html-keyboard-response","276","5016063","0.0-1.0-375.0-0.0","0","0","11946","","null","","","null","41","","","","","","","","","","","","","","","",""
"","ITI","","html-keyboard-response","277","5017068","0.0-1.0-378.0","0","0","11946","","null","","","null","41","","","","","","","","","","","","","","","NaN",""
"","S1","","html-keyboard-response","278","5017320","0.0-1.0-380.0","0","0","11946","","null","","","null","42","","","","","","","","","","","","","","","",""
"","ISI","","html-keyboard-response","279","5019321","0.0-1.0-381.0","0","0","11946","","null","","","null","42","NaN","","","","","","","","","","","","","","",""
"","S2","","html-keyboard-response","280","5019573","0.0-1.0-382.0","0","0","11946","","null","","","null","42","","NaN","","","","","","","","","","","","","",""
"","response","","html-keyboard-response","281","5019841","0.0-1.0-383.0","0","0","11946","","266","","","68","42","","","2","42","training","adjacent","CD","3","4","O.jpg","P.jpg","1","1","1","",""
"","feedback","","html-keyboard-response","282","5020843","0.0-1.0-384.0-0.0","0","0","11946","","null","","","null","42","","","","","","","","","","","","","","","",""
"","ITI","","html-keyboard-response","283","5021845","0.0-1.0-387.0","0","0","11946","","null","","","null","42","","","","","","","","","","","","","","","NaN",""
"","S1","","html-keyboard-response","284","5022097","0.0-1.0-389.0","0","0","11946","","null","","","null","43","","","","","","","","","","","","","","","",""
"","ISI","","html-keyboard-response","285","5024099","0.0-1.0-390.0","0","0","11946","","null","","","null","43","NaN","","","","","","","","","","","","","","",""
"","S2","","html-keyboard-response","286","5024351","0.0-1.0-391.0","0","0","11946","","null","","","null","43","","NaN","","","","","","","","","","","","","",""
"","response","","html-keyboard-response","287","5024827","0.0-1.0-392.0","0","0","11946","","475","","","75","43","","","2","43","training","adjacent","AB","1","2","Q.jpg","M.jpg","0","1","0","",""
"","feedback","","html-keyboard-response","288","5025830","0.0-1.0-393.0-0.0","0","0","11946","","null","","","null","43","","","","","","","","","","","","","","","",""
"","time_out","","html-keyboard-response","289","5027832","0.0-1.0-395.0-0.0","0","0","11946","","null","","","null","43","","","","","","","","","","","","","","","",""
"","ITI","","html-keyboard-response","290","5028833","0.0-1.0-396.0","0","0","11946","","null","","","null","43","","","","","","","","","","","","","","","NaN",""
"","S1","","html-keyboard-response","291","5029086","0.0-1.0-398.0","0","0","11946","","null","","","null","44","","","","","","","","","","","","","","","",""
"","ISI","","html-keyboard-response","292","5031087","0.0-1.0-399.0","0","0","11946","","null","","","null","44","NaN","","","","","","","","","","","","","","",""
"","S2","","html-keyboard-response","293","5031338","0.0-1.0-400.0","0","0","11946","","null","","","null","44","","NaN","","","","","","","","","","","","","",""
"","response","","html-keyboard-response","294","5031740","0.0-1.0-401.0","0","0","11946","","400","","","75","44","","","2","44","training","adjacent","EF","5","6","N.jpg","R.jpg","0","1","0","",""
"","feedback","","html-keyboard-response","295","5032743","0.0-1.0-402.0-0.0","0","0","11946","","null","","","null","44","","","","","","","","","","","","","","","",""
"","time_out","","html-keyboard-response","296","5034745","0.0-1.0-404.0-0.0","0","0","11946","","null","","","null","44","","","","","","","","","","","","","","","",""
"","ITI","","html-keyboard-response","297","5035748","0.0-1.0-405.0","0","0","11946","","null","","","null","44","","","","","","","","","","","","","","","NaN",""
"","S1","","html-keyboard-response","298","5036000","0.0-1.0-407.0","0","0","11946","","null","","","null","45","","","","","","","","","","","","","","","",""
"","ISI","","html-keyboard-response","299","5038002","0.0-1.0-408.0","0","0","11946","","null","","","null","45","NaN","","","","","","","","","","","","","","",""
"","S2","","html-keyboard-response","300","5038254","0.0-1.0-409.0","0","0","11946","","null","","","null","45","","NaN","","","","","","","","","","","","","",""
"","response","","html-keyboard-response","301","5038595","0.0-1.0-410.0","0","0","11946","","340","","","75","45","","","2","45","training","adjacent","CD","3","4","O.jpg","P.jpg","0","1","0","",""
"","feedback","","html-keyboard-response","302","5039597","0.0-1.0-411.0-0.0","0","0","11946","","null","","","null","45","","","","","","","","","","","","","","","",""
"","time_out","","html-keyboard-response","303","5041599","0.0-1.0-413.0-0.0","0","0","11946","","null","","","null","45","","","","","","","","","","","","","","","",""
"","ITI","","html-keyboard-response","304","5042602","0.0-1.0-414.0","0","0","11946","","null","","","null","45","","","","","","","","","","","","","","","NaN",""
"","S1","","html-keyboard-response","305","5042855","0.0-1.0-416.0","0","0","11946","","null","","","null","46","","","","","","","","","","","","","","","",""
"","ISI","","html-keyboard-response","306","5044856","0.0-1.0-417.0","0","0","11946","","null","","","null","46","NaN","","","","","","","","","","","","","","",""
"","S2","","html-keyboard-response","307","5045108","0.0-1.0-418.0","0","0","11946","","null","","","null","46","","NaN","","","","","","","","","","","","","",""
"","response","","html-keyboard-response","308","5045568","0.0-1.0-419.0","0","0","11946","","459","","","68","46","","","2","46","training","adjacent","ED","5","4","N.jpg","P.jpg","1","0","0","",""
"","feedback","","html-keyboard-response","309","5046570","0.0-1.0-420.0-0.0","0","0","11946","","null","","","null","46","","","","","","","","","","","","","","","",""
"","time_out","","html-keyboard-response","310","5048572","0.0-1.0-422.0-0.0","0","0","11946","","null","","","null","46","","","","","","","","","","","","","","","",""
"","ITI","","html-keyboard-response","311","5049574","0.0-1.0-423.0","0","0","11946","","null","","","null","46","","","","","","","","","","","","","","","NaN",""
"","S1","","html-keyboard-response","312","5049826","0.0-1.0-425.0","0","0","11946","","null","","","null","47","","","","","","","","","","","","","","","",""
"","ISI","","html-keyboard-response","313","5051829","0.0-1.0-426.0","0","0","11946","","null","","","null","47","NaN","","","","","","","","","","","","","","",""
"","S2","","html-keyboard-response","314","5052081","0.0-1.0-427.0","0","0","11946","","null","","","null","47","","NaN","","","","","","","","","","","","","",""
"","response","","html-keyboard-response","315","5052435","0.0-1.0-428.0","0","0","11946","","353","","","68","47","","","2","47","training","adjacent","AB","1","2","Q.jpg","M.jpg","1","1","1","",""
"","feedback","","html-keyboard-response","316","5053436","0.0-1.0-429.0-0.0","0","0","11946","","null","","","null","47","","","","","","","","","","","","","","","",""
"","ITI","","html-keyboard-response","317","5054439","0.0-1.0-432.0","0","0","11946","","null","","","null","47","","","","","","","","","","","","","","","NaN",""
"","S1","","html-keyboard-response","318","5054696","0.0-1.0-434.0","0","0","11946","","null","","","null","48","","","","","","","","","","","","","","","",""
"","ISI","","html-keyboard-response","319","5056703","0.0-1.0-435.0","0","0","11946","","null","","","null","48","NaN","","","","","","","","","","","","","","",""
"","S2","","html-keyboard-response","320","5056959","0.0-1.0-436.0","0","0","11946","","null","","","null","48","","NaN","","","","","","","","","","","","","",""
"","response","","html-keyboard-response","321","5057212","0.0-1.0-437.0","0","0","11946","","250","","","75","48","","","2","48","training","adjacent","EF","5","6","N.jpg","R.jpg","0","1","0","",""
"","feedback","","html-keyboard-response","322","5058228","0.0-1.0-438.0-0.0","0","0","11946","","null","","","null","48","","","","","","","","","","","","","","","",""
"","time_out","","html-keyboard-response","323","5060231","0.0-1.0-440.0-0.0","0","0","11946","","null","","","null","48","","","","","","","","","","","","","","","",""
"","ITI","","html-keyboard-response","324","5061232","0.0-1.0-441.0","0","0","11946","","null","","","null","48","","","","","","","","","","","","","","","NaN",""
"","S1","","html-keyboard-response","325","5061484","0.0-1.0-443.0","0","0","11946","","null","","","null","49","","","","","","","","","","","","","","","",""
"","ISI","","html-keyboard-response","326","5063486","0.0-1.0-444.0","0","0","11946","","null","","","null","49","NaN","","","","","","","","","","","","","","",""
"","S2","","html-keyboard-response","327","5063738","0.0-1.0-445.0","0","0","11946","","null","","","null","49","","NaN","","","","","","","","","","","","","",""
"","response","","html-keyboard-response","328","5064051","0.0-1.0-446.0","0","0","11946","","311","","","75","49","","","2","49","training","adjacent","GF","7","6","L.jpg","R.jpg","0","0","1","",""
"","feedback","","html-keyboard-response","329","5065053","0.0-1.0-447.0-0.0","0","0","11946","","null","","","null","49","","","","","","","","","","","","","","","",""
"","ITI","","html-keyboard-response","330","5066055","0.0-1.0-450.0","0","0","11946","","null","","","null","49","","","","","","","","","","","","","","","NaN",""
"","S1","","html-keyboard-response","331","5066306","0.0-1.0-452.0","0","0","11946","","null","","","null","50","","","","","","","","","","","","","","","",""
"","ISI","","html-keyboard-response","332","5068310","0.0-1.0-453.0","0","0","11946","","null","","","null","50","NaN","","","","","","","","","","","","","","",""
"","S2","","html-keyboard-response","333","5068563","0.0-1.0-454.0","0","0","11946","","null","","","null","50","","NaN","","","","","","","","","","","","","",""
"","response","","html-keyboard-response","334","5068881","0.0-1.0-455.0","0","0","11946","","315","","","75","50","","","2","50","training","adjacent","BC","2","3","M.jpg","O.jpg","0","1","0","",""
"","feedback","","html-keyboard-response","335","5069883","0.0-1.0-456.0-0.0","0","0","11946","","null","","","null","50","","","","","","","","","","","","","","","",""
"","time_out","","html-keyboard-response","336","5071885","0.0-1.0-458.0-0.0","0","0","11946","","null","","","null","50","","","","","","","","","","","","","","","",""
"","ITI","","html-keyboard-response","337","5072887","0.0-1.0-459.0","0","0","11946","","null","","","null","50","","","","","","","","","","","","","","","NaN",""
"","S1","","html-keyboard-response","338","5073139","0.0-1.0-461.0","0","0","11946","","null","","","null","51","","","","","","","","","","","","","","","",""
"","ISI","","html-keyboard-response","339","5075140","0.0-1.0-462.0","0","0","11946","","null","","","null","51","NaN","","","","","","","","","","","","","","",""
"","S2","","html-keyboard-response","340","5075393","0.0-1.0-463.0","0","0","11946","","null","","","null","51","","NaN","","","","","","","","","","","","","",""
"","response","","html-keyboard-response","341","5075750","0.0-1.0-464.0","0","0","11946","","356","","","68","51","","","2","51","training","adjacent","ED","5","4","N.jpg","P.jpg","1","0","0","",""
"","feedback","","html-keyboard-response","342","5076754","0.0-1.0-465.0-0.0","0","0","11946","","null","","","null","51","","","","","","","","","","","","","","","",""
"","time_out","","html-keyboard-response","343","5078757","0.0-1.0-467.0-0.0","0","0","11946","","null","","","null","51","","","","","","","","","","","","","","","",""
"","ITI","","html-keyboard-response","344","5079759","0.0-1.0-468.0","0","0","11946","","null","","","null","51","","","","","","","","","","","","","","","NaN",""
"","S1","","html-keyboard-response","345","5080011","0.0-1.0-470.0","0","0","11946","","null","","","null","52","","","","","","","","","","","","","","","",""
"","ISI","","html-keyboard-response","346","5082013","0.0-1.0-471.0","0","0","11946","","null","","","null","52","NaN","","","","","","","","","","","","","","",""
"","S2","","html-keyboard-response","347","5082264","0.0-1.0-472.0","0","0","11946","","null","","","null","52","","NaN","","","","","","","","","","","","","",""
"","response","","html-keyboard-response","348","5083198","0.0-1.0-473.0","0","0","11946","","933","","","68","52","","","2","52","training","adjacent","DE","4","5","P.jpg","N.jpg","1","1","1","",""
"","feedback","","html-keyboard-response","349","5084200","0.0-1.0-474.0-0.0","0","0","11946","","null","","","null","52","","","","","","","","","","","","","","","",""
"","ITI","","html-keyboard-response","350","5085203","0.0-1.0-477.0","0","0","11946","","null","","","null","52","","","","","","","","","","","","","","","NaN",""
"","S1","","html-keyboard-response","351","5085459","0.0-1.0-479.0","0","0","11946","","null","","","null","53","","","","","","","","","","","","","","","",""
"","ISI","","html-keyboard-response","352","5087462","0.0-1.0-480.0","0","0","11946","","null","","","null","53","NaN","","","","","","","","","","","","","","",""
"","S2","","html-keyboard-response","353","5087713","0.0-1.0-481.0","0","0","11946","","null","","","null","53","","NaN","","","","","","","","","","","","","",""
"","response","","html-keyboard-response","354","5088605","0.0-1.0-482.0","0","0","11946","","890","","","75","53","","","2","53","training","adjacent","FE","6","5","R.jpg","N.jpg","0","0","1","",""
"","feedback","","html-keyboard-response","355","5089607","0.0-1.0-483.0-0.0","0","0","11946","","null","","","null","53","","","","","","","","","","","","","","","",""
"","ITI","","html-keyboard-response","356","5090609","0.0-1.0-486.0","0","0","11946","","null","","","null","53","","","","","","","","","","","","","","","NaN",""
"","S1","","html-keyboard-response","357","5090861","0.0-1.0-488.0","0","0","11946","","null","","","null","54","","","","","","","","","","","","","","","",""
"","ISI","","html-keyboard-response","358","5092869","0.0-1.0-489.0","0","0","11946","","null","","","null","54","NaN","","","","","","","","","","","","","","",""
"","S2","","html-keyboard-response","359","5093121","0.0-1.0-490.0","0","0","11946","","null","","","null","54","","NaN","","","","","","","","","","","","","",""
"","response","","html-keyboard-response","360","5093853","0.0-1.0-491.0","0","0","11946","","730","","","75","54","","","2","54","training","adjacent","FE","6","5","R.jpg","N.jpg","0","0","1","",""
"","feedback","","html-keyboard-response","361","5094855","0.0-1.0-492.0-0.0","0","0","11946","","null","","","null","54","","","","","","","","","","","","","","","",""
"","ITI","","html-keyboard-response","362","5095857","0.0-1.0-495.0","0","0","11946","","null","","","null","54","","","","","","","","","","","","","","","NaN",""
"","S1","","html-keyboard-response","363","5096113","0.0-1.0-497.0","0","0","11946","","null","","","null","55","","","","","","","","","","","","","","","",""
"","ISI","","html-keyboard-response","364","5098114","0.0-1.0-498.0","0","0","11946","","null","","","null","55","NaN","","","","","","","","","","","","","","",""
"","S2","","html-keyboard-response","365","5098366","0.0-1.0-499.0","0","0","11946","","null","","","null","55","","NaN","","","","","","","","","","","","","",""
"","response","","html-keyboard-response","366","5098982","0.0-1.0-500.0","0","0","11946","","613","","","75","55","","","2","55","training","adjacent","ED","5","4","N.jpg","P.jpg","0","0","1","",""
"","feedback","","html-keyboard-response","367","5099984","0.0-1.0-501.0-0.0","0","0","11946","","null","","","null","55","","","","","","","","","","","","","","","",""
"","ITI","","html-keyboard-response","368","5100987","0.0-1.0-504.0","0","0","11946","","null","","","null","55","","","","","","","","","","","","","","","NaN",""
"","S1","","html-keyboard-response","369","5101239","0.0-1.0-506.0","0","0","11946","","null","","","null","56","","","","","","","","","","","","","","","",""
"","ISI","","html-keyboard-response","370","5103241","0.0-1.0-507.0","0","0","11946","","null","","","null","56","NaN","","","","","","","","","","","","","","",""
"","S2","","html-keyboard-response","371","5103496","0.0-1.0-508.0","0","0","11946","","null","","","null","56","","NaN","","","","","","","","","","","","","",""
"","response","","html-keyboard-response","372","5103896","0.0-1.0-509.0","0","0","11946","","396","","","68","56","","","2","56","training","adjacent","DC","4","3","P.jpg","O.jpg","1","0","0","",""
"","feedback","","html-keyboard-response","373","5104898","0.0-1.0-510.0-0.0","0","0","11946","","null","","","null","56","","","","","","","","","","","","","","","",""
"","time_out","","html-keyboard-response","374","5106899","0.0-1.0-512.0-0.0","0","0","11946","","null","","","null","56","","","","","","","","","","","","","","","",""
"","ITI","","html-keyboard-response","375","5107914","0.0-1.0-513.0","0","0","11946","","null","","","null","56","","","","","","","","","","","","","","","NaN",""
"","S1","","html-keyboard-response","376","5108167","0.0-1.0-515.0","0","0","11946","","null","","","null","57","","","","","","","","","","","","","","","",""
"","ISI","","html-keyboard-response","377","5110169","0.0-1.0-516.0","0","0","11946","","null","","","null","57","NaN","","","","","","","","","","","","","","",""
"","S2","","html-keyboard-response","378","5110420","0.0-1.0-517.0","0","0","11946","","null","","","null","57","","NaN","","","","","","","","","","","","","",""
"","response","","html-keyboard-response","379","5110863","0.0-1.0-518.0","0","0","11946","","441","","","75","57","","","2","57","training","adjacent","DE","4","5","P.jpg","N.jpg","0","1","0","",""
"","feedback","","html-keyboard-response","380","5111865","0.0-1.0-519.0-0.0","0","0","11946","","null","","","null","57","","","","","","","","","","","","","","","",""
"","time_out","","html-keyboard-response","381","5113867","0.0-1.0-521.0-0.0","0","0","11946","","null","","","null","57","","","","","","","","","","","","","","","",""
"","ITI","","html-keyboard-response","382","5114868","0.0-1.0-522.0","0","0","11946","","null","","","null","57","","","","","","","","","","","","","","","NaN",""
"","S1","","html-keyboard-response","383","5115120","0.0-1.0-524.0","0","0","11946","","null","","","null","58","","","","","","","","","","","","","","","",""
"","ISI","","html-keyboard-response","384","5117121","0.0-1.0-525.0","0","0","11946","","null","","","null","58","NaN","","","","","","","","","","","","","","",""
"","S2","","html-keyboard-response","385","5117374","0.0-1.0-526.0","0","0","11946","","null","","","null","58","","NaN","","","","","","","","","","","","","",""
"","response","","html-keyboard-response","386","5118027","0.0-1.0-527.0","0","0","11946","","652","","","75","58","","","2","58","training","adjacent","DC","4","3","P.jpg","O.jpg","0","0","1","",""
"","feedback","","html-keyboard-response","387","5119031","0.0-1.0-528.0-0.0","0","0","11946","","null","","","null","58","","","","","","","","","","","","","","","",""
"","ITI","","html-keyboard-response","388","5120034","0.0-1.0-531.0","0","0","11946","","null","","","null","58","","","","","","","","","","","","","","","NaN",""
"","S1","","html-keyboard-response","389","5120287","0.0-1.0-533.0","0","0","11946","","null","","","null","59","","","","","","","","","","","","","","","",""
"","ISI","","html-keyboard-response","390","5122288","0.0-1.0-534.0","0","0","11946","","null","","","null","59","NaN","","","","","","","","","","","","","","",""
"","S2","","html-keyboard-response","391","5122542","0.0-1.0-535.0","0","0","11946","","null","","","null","59","","NaN","","","","","","","","","","","","","",""
"","response","","html-keyboard-response","392","5122930","0.0-1.0-536.0","0","0","11946","","386","","","68","59","","","2","59","training","adjacent","DC","4","3","P.jpg","O.jpg","1","0","0","",""
"","feedback","","html-keyboard-response","393","5123932","0.0-1.0-537.0-0.0","0","0","11946","","null","","","null","59","","","","","","","","","","","","","","","",""
"","time_out","","html-keyboard-response","394","5125933","0.0-1.0-539.0-0.0","0","0","11946","","null","","","null","59","","","","","","","","","","","","","","","",""
"","ITI","","html-keyboard-response","395","5126936","0.0-1.0-540.0","0","0","11946","","null","","","null","59","","","","","","","","","","","","","","","NaN",""
"","S1","","html-keyboard-response","396","5127188","0.0-1.0-542.0","0","0","11946","","null","","","null","60","","","","","","","","","","","","","","","",""
"","ISI","","html-keyboard-response","397","5129189","0.0-1.0-543.0","0","0","11946","","null","","","null","60","NaN","","","","","","","","","","","","","","",""
"","S2","","html-keyboard-response","398","5129442","0.0-1.0-544.0","0","0","11946","","null","","","null","60","","NaN","","","","","","","","","","","","","",""
"","response","","html-keyboard-response","399","5130240","0.0-1.0-545.0","0","0","11946","","796","","","68","60","","","2","60","training","adjacent","BA","2","1","M.jpg","Q.jpg","1","0","0","",""
"","feedback","","html-keyboard-response","400","5131241","0.0-1.0-546.0-0.0","0","0","11946","","null","","","null","60","","","","","","","","","","","","","","","",""
"","time_out","","html-keyboard-response","401","5133243","0.0-1.0-548.0-0.0","0","0","11946","","null","","","null","60","","","","","","","","","","","","","","","",""
"","ITI","","html-keyboard-response","402","5134245","0.0-1.0-549.0","0","0","11946","","null","","","null","60","","","","","","","","","","","","","","","NaN",""
"","S1","","html-keyboard-response","403","5134499","0.0-1.0-551.0","0","0","11946","","null","","","null","61","","","","","","","","","","","","","","","",""
"","ISI","","html-keyboard-response","404","5136501","0.0-1.0-552.0","0","0","11946","","null","","","null","61","NaN","","","","","","","","","","","","","","",""
"","S2","","html-keyboard-response","405","5136754","0.0-1.0-553.0","0","0","11946","","null","","","null","61","","NaN","","","","","","","","","","","","","",""
"","response","","html-keyboard-response","406","5137140","0.0-1.0-554.0","0","0","11946","","386","","","75","61","","","2","61","training","adjacent","CD","3","4","O.jpg","P.jpg","0","1","0","",""
"","feedback","","html-keyboard-response","407","5138168","0.0-1.0-555.0-0.0","0","0","11946","","null","","","null","61","","","","","","","","","","","","","","","",""
"","time_out","","html-keyboard-response","408","5140171","0.0-1.0-557.0-0.0","0","0","11946","","null","","","null","61","","","","","","","","","","","","","","","",""
"","ITI","","html-keyboard-response","409","5141173","0.0-1.0-558.0","0","0","11946","","null","","","null","61","","","","","","","","","","","","","","","NaN",""
"","S1","","html-keyboard-response","410","5141426","0.0-1.0-560.0","0","0","11946","","null","","","null","62","","","","","","","","","","","","","","","",""
"","ISI","","html-keyboard-response","411","5143428","0.0-1.0-561.0","0","0","11946","","196","","","68","62","d","","","","","","","","","","","","","","",""
"","S2","","html-keyboard-response","412","5143682","0.0-1.0-562.0","0","0","11946","","null","","","null","62","","NaN","","","","","","","","","","","","","",""
"","response","","html-keyboard-response","413","5143919","0.0-1.0-563.0","0","0","11946","","237","","","75","62","","","2","62","training","adjacent","FG","6","7","R.jpg","L.jpg","0","1","0","",""
"","feedback","","html-keyboard-response","414","5144922","0.0-1.0-564.0-0.0","0","0","11946","","null","","","null","62","","","","","","","","","","","","","","","",""
"","time_out","","html-keyboard-response","415","5146924","0.0-1.0-566.0-0.0","0","0","11946","","null","","","null","62","","","","","","","","","","","","","","","",""
"","ITI","","html-keyboard-response","416","5147926","0.0-1.0-567.0","0","0","11946","","null","","","null","62","","","","","","","","","","","","","","","NaN",""
"","S1","","html-keyboard-response","417","5148186","0.0-1.0-569.0","0","0","11946","","null","","","null","63","","","","","","","","","","","","","","","",""
"","ISI","","html-keyboard-response","418","5150191","0.0-1.0-570.0","0","0","11946","","null","","","null","63","NaN","","","","","","","","","","","","","","",""
"","S2","","html-keyboard-response","419","5150445","0.0-1.0-571.0","0","0","11946","","null","","","null","63","","NaN","","","","","","","","","","","","","",""
"","response","","html-keyboard-response","420","5150730","0.0-1.0-572.0","0","0","11946","","284","","","75","63","","","2","63","training","adjacent","BA","2","1","M.jpg","Q.jpg","0","0","1","",""
"","feedback","","html-keyboard-response","421","5151731","0.0-1.0-573.0-0.0","0","0","11946","","null","","","null","63","","","","","","","","","","","","","","","",""
"","ITI","","html-keyboard-response","422","5152733","0.0-1.0-576.0","0","0","11946","","null","","","null","63","","","","","","","","","","","","","","","NaN",""
"","S1","","html-keyboard-response","423","5152985","0.0-1.0-578.0","0","0","11946","","null","","","null","64","","","","","","","","","","","","","","","",""
"","ISI","","html-keyboard-response","424","5154987","0.0-1.0-579.0","0","0","11946","","null","","","null","64","NaN","","","","","","","","","","","","","","",""
"","S2","","html-keyboard-response","425","5155238","0.0-1.0-580.0","0","0","11946","","null","","","null","64","","NaN","","","","","","","","","","","","","",""
"","response","","html-keyboard-response","426","5155733","0.0-1.0-581.0","0","0","11946","","492","","","75","64","","","2","64","training","adjacent","BC","2","3","M.jpg","O.jpg","0","1","0","",""
"","feedback","","html-keyboard-response","427","5156736","0.0-1.0-582.0-0.0","0","0","11946","","null","","","null","64","","","","","","","","","","","","","","","",""
"","time_out","","html-keyboard-response","428","5158739","0.0-1.0-584.0-0.0","0","0","11946","","null","","","null","64","","","","","","","","","","","","","","","",""
"","ITI","","html-keyboard-response","429","5159741","0.0-1.0-585.0","0","0","11946","","null","","","null","64","","","","","","","","","","","","","","","NaN",""
"","S1","","html-keyboard-response","430","5159993","0.0-1.0-587.0","0","0","11946","","null","","","null","65","","","","","","","","","","","","","","","",""
"","ISI","","html-keyboard-response","431","5161995","0.0-1.0-588.0","0","0","11946","","231","","","68","65","d","","","","","","","","","","","","","","",""
"","S2","","html-keyboard-response","432","5162247","0.0-1.0-589.0","0","0","11946","","null","","","null","65","","NaN","","","","","","","","","","","","","",""
"","response","","html-keyboard-response","433","5162877","0.0-1.0-590.0","0","0","11946","","628","","","75","65","","","2","65","training","adjacent","FG","6","7","R.jpg","L.jpg","0","1","0","",""
"","feedback","","html-keyboard-response","434","5163879","0.0-1.0-591.0-0.0","0","0","11946","","null","","","null","65","","","","","","","","","","","","","","","",""
"","time_out","","html-keyboard-response","435","5165881","0.0-1.0-593.0-0.0","0","0","11946","","null","","","null","65","","","","","","","","","","","","","","","",""
"","ITI","","html-keyboard-response","436","5166886","0.0-1.0-594.0","0","0","11946","","null","","","null","65","","","","","","","","","","","","","","","NaN",""
"","S1","","html-keyboard-response","437","5167139","0.0-1.0-596.0","0","0","11946","","null","","","null","66","","","","","","","","","","","","","","","",""
"","ISI","","html-keyboard-response","438","5169142","0.0-1.0-597.0","0","0","11946","","null","","","null","66","NaN","","","","","","","","","","","","","","",""
"","S2","","html-keyboard-response","439","5169394","0.0-1.0-598.0","0","0","11946","","null","","","null","66","","NaN","","","","","","","","","","","","","",""
"","response","","html-keyboard-response","440","5169781","0.0-1.0-599.0","0","0","11946","","387","","","68","66","","","2","66","training","adjacent","CB","3","2","O.jpg","M.jpg","1","0","0","",""
"","feedback","","html-keyboard-response","441","5170783","0.0-1.0-600.0-0.0","0","0","11946","","null","","","null","66","","","","","","","","","","","","","","","",""
"","time_out","","html-keyboard-response","442","5172785","0.0-1.0-602.0-0.0","0","0","11946","","null","","","null","66","","","","","","","","","","","","","","","",""
"","ITI","","html-keyboard-response","443","5173789","0.0-1.0-603.0","0","0","11946","","null","","","null","66","","","","","","","","","","","","","","","NaN",""
"","S1","","html-keyboard-response","444","5174042","0.0-1.0-605.0","0","0","11946","","null","","","null","67","","","","","","","","","","","","","","","",""
"","ISI","","html-keyboard-response","445","5176043","0.0-1.0-606.0","0","0","11946","","null","","","null","67","NaN","","","","","","","","","","","","","","",""
"","S2","","html-keyboard-response","446","5176295","0.0-1.0-607.0","0","0","11946","","null","","","null","67","","NaN","","","","","","","","","","","","","",""
"","response","","html-keyboard-response","447","5177046","0.0-1.0-608.0","0","0","11946","","750","","","68","67","","","2","67","training","adjacent","ED","5","4","N.jpg","P.jpg","1","0","0","",""
"","feedback","","html-keyboard-response","448","5178048","0.0-1.0-609.0-0.0","0","0","11946","","null","","","null","67","","","","","","","","","","","","","","","",""
"","time_out","","html-keyboard-response","449","5180052","0.0-1.0-611.0-0.0","0","0","11946","","null","","","null","67","","","","","","","","","","","","","","","",""
"","ITI","","html-keyboard-response","450","5181055","0.0-1.0-612.0","0","0","11946","","null","","","null","67","","","","","","","","","","","","","","","NaN",""
"","S1","","html-keyboard-response","451","5181307","0.0-1.0-614.0","0","0","11946","","null","","","null","68","","","","","","","","","","","","","","","",""
"","ISI","","html-keyboard-response","452","5183310","0.0-1.0-615.0","0","0","11946","","null","","","null","68","NaN","","","","","","","","","","","","","","",""
"","S2","","html-keyboard-response","453","5183569","0.0-1.0-616.0","0","0","11946","","null","","","null","68","","NaN","","","","","","","","","","","","","",""
"","response","","html-keyboard-response","454","5184187","0.0-1.0-617.0","0","0","11946","","617","","","75","68","","","2","68","training","adjacent","EF","5","6","N.jpg","R.jpg","0","1","0","",""
"","feedback","","html-keyboard-response","455","5185189","0.0-1.0-618.0-0.0","0","0","11946","","null","","","null","68","","","","","","","","","","","","","","","",""
"","time_out","","html-keyboard-response","456","5187192","0.0-1.0-620.0-0.0","0","0","11946","","null","","","null","68","","","","","","","","","","","","","","","",""
"","ITI","","html-keyboard-response","457","5188194","0.0-1.0-621.0","0","0","11946","","null","","","null","68","","","","","","","","","","","","","","","NaN",""
"","S1","","html-keyboard-response","458","5188446","0.0-1.0-623.0","0","0","11946","","null","","","null","69","","","","","","","","","","","","","","","",""
"","ISI","","html-keyboard-response","459","5190448","0.0-1.0-624.0","0","0","11946","","null","","","null","69","NaN","","","","","","","","","","","","","","",""
"","S2","","html-keyboard-response","460","5190701","0.0-1.0-625.0","0","0","11946","","null","","","null","69","","NaN","","","","","","","","","","","","","",""
"","response","","html-keyboard-response","461","5191206","0.0-1.0-626.0","0","0","11946","","504","","","68","69","","","2","69","training","adjacent","BC","2","3","M.jpg","O.jpg","1","1","1","",""
"","feedback","","html-keyboard-response","462","5192208","0.0-1.0-627.0-0.0","0","0","11946","","null","","","null","69","","","","","","","","","","","","","","","",""
"","ITI","","html-keyboard-response","463","5193210","0.0-1.0-630.0","0","0","11946","","null","","","null","69","","","","","","","","","","","","","","","NaN",""
"","S1","","html-keyboard-response","464","5193467","0.0-1.0-632.0","0","0","11946","","null","","","null","70","","","","","","","","","","","","","","","",""
"","ISI","","html-keyboard-response","465","5195468","0.0-1.0-633.0","0","0","11946","","null","","","null","70","NaN","","","","","","","","","","","","","","",""
"","S2","","html-keyboard-response","466","5195720","0.0-1.0-634.0","0","0","11946","","null","","","null","70","","NaN","","","","","","","","","","","","","",""
"","response","","html-keyboard-response","467","5196300","0.0-1.0-635.0","0","0","11946","","579","","","75","70","","","2","70","training","adjacent","BA","2","1","M.jpg","Q.jpg","0","0","1","",""
"","feedback","","html-keyboard-response","468","5197317","0.0-1.0-636.0-0.0","0","0","11946","","null","","","null","70","","","","","","","","","","","","","","","",""
"","ITI","","html-keyboard-response","469","5198320","0.0-1.0-639.0","0","0","11946","","null","","","null","70","","","","","","","","","","","","","","","NaN",""
"","S1","","html-keyboard-response","470","5198573","0.0-1.0-641.0","0","0","11946","","null","","","null","71","","","","","","","","","","","","","","","",""
"","ISI","","html-keyboard-response","471","5200575","0.0-1.0-642.0","0","0","11946","","null","","","null","71","NaN","","","","","","","","","","","","","","",""
"","S2","","html-keyboard-response","472","5200828","0.0-1.0-643.0","0","0","11946","","null","","","null","71","","NaN","","","","","","","","","","","","","",""
"","response","","html-keyboard-response","473","5201567","0.0-1.0-644.0","0","0","11946","","738","","","68","71","","","2","71","training","adjacent","GF","7","6","L.jpg","R.jpg","1","0","0","",""
"","feedback","","html-keyboard-response","474","5202569","0.0-1.0-645.0-0.0","0","0","11946","","null","","","null","71","","","","","","","","","","","","","","","",""
"","time_out","","html-keyboard-response","475","5204571","0.0-1.0-647.0-0.0","0","0","11946","","null","","","null","71","","","","","","","","","","","","","","","",""
"","ITI","","html-keyboard-response","476","5205573","0.0-1.0-648.0","0","0","11946","","null","","","null","71","","","","","","","","","","","","","","","NaN",""
"","S1","","html-keyboard-response","477","5205825","0.0-1.0-650.0","0","0","11946","","null","","","null","72","","","","","","","","","","","","","","","",""
"","ISI","","html-keyboard-response","478","5207828","0.0-1.0-651.0","0","0","11946","","null","","","null","72","NaN","","","","","","","","","","","","","","",""
"","S2","","html-keyboard-response","479","5208080","0.0-1.0-652.0","0","0","11946","","null","","","null","72","","NaN","","","","","","","","","","","","","",""
"","response","","html-keyboard-response","480","5208118","0.0-1.0-653.0","0","0","11946","","36","","","75","72","","","2","72","training","adjacent","FG","6","7","R.jpg","L.jpg","0","1","0","",""
"","feedback","","html-keyboard-response","481","5209120","0.0-1.0-654.0-0.0","0","0","11946","","null","","","null","72","","","","","","","","","","","","","","","",""
"","time_out","","html-keyboard-response","482","5211122","0.0-1.0-656.0-0.0","0","0","11946","","null","","","null","72","","","","","","","","","","","","","","","",""
"","ITI","","html-keyboard-response","483","5212125","0.0-1.0-657.0","0","0","11946","","null","","","null","72","","","","","","","","","","","","","","","NaN",""
"","S1","","html-keyboard-response","484","5212377","0.0-1.0-659.0","0","0","11946","","null","","","null","73","","","","","","","","","","","","","","","",""
"","ISI","","html-keyboard-response","485","5214380","0.0-1.0-660.0","0","0","11946","","null","","","null","73","NaN","","","","","","","","","","","","","","",""
"","S2","","html-keyboard-response","486","5214632","0.0-1.0-661.0","0","0","11946","","null","","","null","73","","NaN","","","","","","","","","","","","","",""
"","response","","html-keyboard-response","487","5214688","0.0-1.0-662.0","0","0","11946","","54","","","68","73","","","2","73","training","adjacent","CB","3","2","O.jpg","M.jpg","1","0","0","",""
"","feedback","","html-keyboard-response","488","5215690","0.0-1.0-663.0-0.0","0","0","11946","","null","","","null","73","","","","","","","","","","","","","","","",""
"","time_out","","html-keyboard-response","489","5217693","0.0-1.0-665.0-0.0","0","0","11946","","null","","","null","73","","","","","","","","","","","","","","","",""
"","ITI","","html-keyboard-response","490","5218696","0.0-1.0-666.0","0","0","11946","","null","","","null","73","","","","","","","","","","","","","","","NaN",""
"","S1","","html-keyboard-response","491","5218947","0.0-1.0-668.0","0","0","11946","","null","","","null","74","","","","","","","","","","","","","","","",""
"","ISI","","html-keyboard-response","492","5220951","0.0-1.0-669.0","0","0","11946","","null","","","null","74","NaN","","","","","","","","","","","","","","",""
"","S2","","html-keyboard-response","493","5221202","0.0-1.0-670.0","0","0","11946","","null","","","null","74","","NaN","","","","","","","","","","","","","",""
"","response","","html-keyboard-response","494","5221415","0.0-1.0-671.0","0","0","11946","","211","","","75","74","","","2","74","training","adjacent","DE","4","5","P.jpg","N.jpg","0","1","0","",""
"","feedback","","html-keyboard-response","495","5222425","0.0-1.0-672.0-0.0","0","0","11946","","null","","","null","74","","","","","","","","","","","","","","","",""
"","time_out","","html-keyboard-response","496","5224428","0.0-1.0-674.0-0.0","0","0","11946","","null","","","null","74","","","","","","","","","","","","","","","",""
"","ITI","","html-keyboard-response","497","5225430","0.0-1.0-675.0","0","0","11946","","null","","","null","74","","","","","","","","","","","","","","","NaN",""
"","S1","","html-keyboard-response","498","5225682","0.0-1.0-677.0","0","0","11946","","null","","","null","75","","","","","","","","","","","","","","","",""
"","ISI","","html-keyboard-response","499","5227684","0.0-1.0-678.0","0","0","11946","","null","","","null","75","NaN","","","","","","","","","","","","","","",""
"","S2","","html-keyboard-response","500","5227937","0.0-1.0-679.0","0","0","11946","","null","","","null","75","","NaN","","","","","","","","","","","","","",""
"","response","","html-keyboard-response","501","5228252","0.0-1.0-680.0","0","0","11946","","314","","","68","75","","","2","75","training","adjacent","DC","4","3","P.jpg","O.jpg","1","0","0","",""
"","feedback","","html-keyboard-response","502","5229253","0.0-1.0-681.0-0.0","0","0","11946","","null","","","null","75","","","","","","","","","","","","","","","",""
"","time_out","","html-keyboard-response","503","5231255","0.0-1.0-683.0-0.0","0","0","11946","","null","","","null","75","","","","","","","","","","","","","","","",""
"","ITI","","html-keyboard-response","504","5232256","0.0-1.0-684.0","0","0","11946","","null","","","null","75","","","","","","","","","","","","","","","NaN",""
"","S1","","html-keyboard-response","505","5232509","0.0-1.0-686.0","0","0","11946","","null","","","null","76","","","","","","","","","","","","","","","",""
"","ISI","","html-keyboard-response","506","5234512","0.0-1.0-687.0","0","0","11946","","null","","","null","76","NaN","","","","","","","","","","","","","","",""
"","S2","","html-keyboard-response","507","5234764","0.0-1.0-688.0","0","0","11946","","null","","","null","76","","NaN","","","","","","","","","","","","","",""
"","response","","html-keyboard-response","508","5236767","0.0-1.0-689.0","0","0","11946","","null","","","null","76","","","2","76","training","adjacent","AB","1","2","Q.jpg","M.jpg","NaN","1","0","",""
"","too_slow_prompt","","html-keyboard-response","509","5237768","0.0-1.0-691.0-0.0","1","0","11946","","null","","","null","","","","","","","","","","","","","","","","",""
"","time_out","","html-keyboard-response","510","5239771","0.0-1.0-692.0-0.0","0","0","11946","","null","","","null","76","","","","","","","","","","","","","","","",""
"","ITI","","html-keyboard-response","511","5240774","0.0-1.0-693.0","0","0","11946","","null","","","null","76","","","","","","","","","","","","","","","NaN",""
"","S1","","html-keyboard-response","512","5241028","0.0-1.0-695.0","0","0","11946","","null","","","null","77","","","","","","","","","","","","","","","",""
"","ISI","","html-keyboard-response","513","5243030","0.0-1.0-696.0","0","0","11946","","null","","","null","77","NaN","","","","","","","","","","","","","","",""
"","S2","","html-keyboard-response","514","5243282","0.0-1.0-697.0","0","0","11946","","null","","","null","77","","NaN","","","","","","","","","","","","","",""
"","response","","html-keyboard-response","515","5243855","0.0-1.0-698.0","0","0","11946","","572","","","68","77","","","2","77","training","adjacent","CB","3","2","O.jpg","M.jpg","1","0","0","",""
"","feedback","","html-keyboard-response","516","5244857","0.0-1.0-699.0-0.0","0","0","11946","","null","","","null","77","","","","","","","","","","","","","","","",""
"","time_out","","html-keyboard-response","517","5246859","0.0-1.0-701.0-0.0","0","0","11946","","null","","","null","77","","","","","","","","","","","","","","","",""
"","ITI","","html-keyboard-response","518","5247861","0.0-1.0-702.0","0","0","11946","","null","","","null","77","","","","","","","","","","","","","","","NaN",""
"","S1","","html-keyboard-response","519","5248113","0.0-1.0-704.0","0","0","11946","","null","","","null","78","","","","","","","","","","","","","","","",""
"","ISI","","html-keyboard-response","520","5250116","0.0-1.0-705.0","0","0","11946","","null","","","null","78","NaN","","","","","","","","","","","","","","",""
"","S2","","html-keyboard-response","521","5250369","0.0-1.0-706.0","0","0","11946","","null","","","null","78","","NaN","","","","","","","","","","","","","",""
"","response","","html-keyboard-response","522","5250681","0.0-1.0-707.0","0","0","11946","","310","","","68","78","","","2","78","training","adjacent","CD","3","4","O.jpg","P.jpg","1","1","1","",""
"","feedback","","html-keyboard-response","523","5251683","0.0-1.0-708.0-0.0","0","0","11946","","null","","","null","78","","","","","","","","","","","","","","","",""
"","ITI","","html-keyboard-response","524","5252686","0.0-1.0-711.0","0","0","11946","","null","","","null","78","","","","","","","","","","","","","","","NaN",""
"","S1","","html-keyboard-response","525","5252944","0.0-1.0-713.0","0","0","11946","","null","","","null","79","","","","","","","","","","","","","","","",""
"","ISI","","html-keyboard-response","526","5254946","0.0-1.0-714.0","0","0","11946","","null","","","null","79","NaN","","","","","","","","","","","","","","",""
"","S2","","html-keyboard-response","527","5255198","0.0-1.0-715.0","0","0","11946","","null","","","null","79","","NaN","","","","","","","","","","","","","",""
"","response","","html-keyboard-response","528","5256622","0.0-1.0-716.0","0","0","11946","","1423","","","75","79","","","2","79","training","adjacent","DE","4","5","P.jpg","N.jpg","0","1","0","",""
"","feedback","","html-keyboard-response","529","5257624","0.0-1.0-717.0-0.0","0","0","11946","","null","","","null","79","","","","","","","","","","","","","","","",""
"","time_out","","html-keyboard-response","530","5259627","0.0-1.0-719.0-0.0","0","0","11946","","null","","","null","79","","","","","","","","","","","","","","","",""
"","ITI","","html-keyboard-response","531","5260629","0.0-1.0-720.0","0","0","11946","","null","","","null","79","","","","","","","","","","","","","","","NaN",""
"","block_over","","html-keyboard-response","532","5565124","0.0-1.0-721.0-0.0","0","0","11946","","304492","","","32","79","","","","","","","","","","","","","","","",""
"","S1","","html-keyboard-response","533","5565377","0.0-1.0-722.0","0","0","11946","","null","","","null","80","","","","","","","","","","","","","","","",""
"","ISI","","html-keyboard-response","534","5567379","0.0-1.0-723.0","0","0","11946","","null","","","null","80","NaN","","","","","","","","","","","","","","",""
"","S2","","html-keyboard-response","535","5567631","0.0-1.0-724.0","0","0","11946","","null","","","null","80","","NaN","","","","","","","","","","","","","",""
"","response","","html-keyboard-response","536","5567915","0.0-1.0-725.0","0","0","11946","","282","","","75","80","","","3","80","training","adjacent","DE","4","5","P.jpg","N.jpg","0","1","0","",""
"","feedback","","html-keyboard-response","537","5568917","0.0-1.0-726.0-0.0","0","0","11946","","null","","","null","80","","","","","","","","","","","","","","","",""
"","time_out","","html-keyboard-response","538","5570920","0.0-1.0-728.0-0.0","0","0","11946","","null","","","null","80","","","","","","","","","","","","","","","",""
"","ITI","","html-keyboard-response","539","5571921","0.0-1.0-729.0","0","0","11946","","null","","","null","80","","","","","","","","","","","","","","","NaN",""
"","S1","","html-keyboard-response","540","5572173","0.0-1.0-731.0","0","0","11946","","null","","","null","81","","","","","","","","","","","","","","","",""
"","ISI","","html-keyboard-response","541","5574177","0.0-1.0-732.0","0","0","11946","","null","","","null","81","NaN","","","","","","","","","","","","","","",""
"","S2","","html-keyboard-response","542","5574428","0.0-1.0-733.0","0","0","11946","","null","","","null","81","","NaN","","","","","","","","","","","","","",""
"","response","","html-keyboard-response","543","5574767","0.0-1.0-734.0","0","0","11946","","337","","","75","81","","","3","81","training","adjacent","FG","6","7","R.jpg","L.jpg","0","1","0","",""
"","feedback","","html-keyboard-response","544","5575768","0.0-1.0-735.0-0.0","0","0","11946","","null","","","null","81","","","","","","","","","","","","","","","",""
"","time_out","","html-keyboard-response","545","5577770","0.0-1.0-737.0-0.0","0","0","11946","","null","","","null","81","","","","","","","","","","","","","","","",""
"","ITI","","html-keyboard-response","546","5578776","0.0-1.0-738.0","0","0","11946","","null","","","null","81","","","","","","","","","","","","","","","NaN",""
"","S1","","html-keyboard-response","547","5579028","0.0-1.0-740.0","0","0","11946","","null","","","null","82","","","","","","","","","","","","","","","",""
"","ISI","","html-keyboard-response","548","5581030","0.0-1.0-741.0","0","0","11946","","null","","","null","82","NaN","","","","","","","","","","","","","","",""
"","S2","","html-keyboard-response","549","5581283","0.0-1.0-742.0","0","0","11946","","null","","","null","82","","NaN","","","","","","","","","","","","","",""
"","response","","html-keyboard-response","550","5581390","0.0-1.0-743.0","0","0","11946","","106","","","68","82","","","3","82","training","adjacent","FE","6","5","R.jpg","N.jpg","1","0","0","",""
"","feedback","","html-keyboard-response","551","5582391","0.0-1.0-744.0-0.0","0","0","11946","","null","","","null","82","","","","","","","","","","","","","","","",""
"","time_out","","html-keyboard-response","552","5584393","0.0-1.0-746.0-0.0","0","0","11946","","null","","","null","82","","","","","","","","","","","","","","","",""
"","ITI","","html-keyboard-response","553","5585394","0.0-1.0-747.0","0","0","11946","","null","","","null","82","","","","","","","","","","","","","","","NaN",""
"","S1","","html-keyboard-response","554","5585650","0.0-1.0-749.0","0","0","11946","","null","","","null","83","","","","","","","","","","","","","","","",""
"","ISI","","html-keyboard-response","555","5587652","0.0-1.0-750.0","0","0","11946","","204","","","75","83","k","","","","","","","","","","","","","","",""
"","S2","","html-keyboard-response","556","5587903","0.0-1.0-751.0","0","0","11946","","null","","","null","83","","NaN","","","","","","","","","","","","","",""
"","response","","html-keyboard-response","557","5588239","0.0-1.0-752.0","0","0","11946","","334","","","75","83","","","3","83","training","adjacent","ED","5","4","N.jpg","P.jpg","0","0","1","",""
"","feedback","","html-keyboard-response","558","5589241","0.0-1.0-753.0-0.0","0","0","11946","","null","","","null","83","","","","","","","","","","","","","","","",""
"","ITI","","html-keyboard-response","559","5590245","0.0-1.0-756.0","0","0","11946","","null","","","null","83","","","","","","","","","","","","","","","NaN",""
"","S1","","html-keyboard-response","560","5590497","0.0-1.0-758.0","0","0","11946","","null","","","null","84","","","","","","","","","","","","","","","",""
"","ISI","","html-keyboard-response","561","5592501","0.0-1.0-759.0","0","0","11946","","null","","","null","84","NaN","","","","","","","","","","","","","","",""
"","S2","","html-keyboard-response","562","5592754","0.0-1.0-760.0","0","0","11946","","null","","","null","84","","NaN","","","","","","","","","","","","","",""
"","response","","html-keyboard-response","563","5593285","0.0-1.0-761.0","0","0","11946","","530","","","75","84","","","3","84","training","adjacent","CB","3","2","O.jpg","M.jpg","0","0","1","",""
"","feedback","","html-keyboard-response","564","5594288","0.0-1.0-762.0-0.0","0","0","11946","","null","","","null","84","","","","","","","","","","","","","","","",""
"","ITI","","html-keyboard-response","565","5595289","0.0-1.0-765.0","0","0","11946","","null","","","null","84","","","","","","","","","","","","","","","NaN",""
"","S1","","html-keyboard-response","566","5595541","0.0-1.0-767.0","0","0","11946","","null","","","null","85","","","","","","","","","","","","","","","",""
"","ISI","","html-keyboard-response","567","5597544","0.0-1.0-768.0","0","0","11946","","null","","","null","85","NaN","","","","","","","","","","","","","","",""
"","S2","","html-keyboard-response","568","5597797","0.0-1.0-769.0","0","0","11946","","null","","","null","85","","NaN","","","","","","","","","","","","","",""
"","response","","html-keyboard-response","569","5597892","0.0-1.0-770.0","0","0","11946","","95","","","75","85","","","3","85","training","adjacent","BC","2","3","M.jpg","O.jpg","0","1","0","",""
"","feedback","","html-keyboard-response","570","5598895","0.0-1.0-771.0-0.0","0","0","11946","","null","","","null","85","","","","","","","","","","","","","","","",""
"","time_out","","html-keyboard-response","571","5600897","0.0-1.0-773.0-0.0","0","0","11946","","null","","","null","85","","","","","","","","","","","","","","","",""
"","ITI","","html-keyboard-response","572","5601899","0.0-1.0-774.0","0","0","11946","","null","","","null","85","","","","","","","","","","","","","","","NaN",""
"","S1","","html-keyboard-response","573","5602165","0.0-1.0-776.0","0","0","11946","","null","","","null","86","","","","","","","","","","","","","","","",""
"","ISI","","html-keyboard-response","574","5604166","0.0-1.0-777.0","0","0","11946","","null","","","null","86","NaN","","","","","","","","","","","","","","",""
"","S2","","html-keyboard-response","575","5604418","0.0-1.0-778.0","0","0","11946","","null","","","null","86","","NaN","","","","","","","","","","","","","",""
"","response","","html-keyboard-response","576","5604704","0.0-1.0-779.0","0","0","11946","","286","","","68","86","","","3","86","training","adjacent","BC","2","3","M.jpg","O.jpg","1","1","1","",""
"","feedback","","html-keyboard-response","577","5605706","0.0-1.0-780.0-0.0","0","0","11946","","null","","","null","86","","","","","","","","","","","","","","","",""
"","ITI","","html-keyboard-response","578","5606708","0.0-1.0-783.0","0","0","11946","","null","","","null","86","","","","","","","","","","","","","","","NaN",""
"","S1","","html-keyboard-response","579","5606961","0.0-1.0-785.0","0","0","11946","","null","","","null","87","","","","","","","","","","","","","","","",""
"","ISI","","html-keyboard-response","580","5608964","0.0-1.0-786.0","0","0","11946","","null","","","null","87","NaN","","","","","","","","","","","","","","",""
"","S2","","html-keyboard-response","581","5609217","0.0-1.0-787.0","0","0","11946","","null","","","null","87","","NaN","","","","","","","","","","","","","",""
