"success","ttype","start_time","trial_type","trial_index","time_elapsed","internal_node_id","warning","missed_checkup","PID","view_history","rt","responses","repeat_instructions","key_press","index","keypress_isi","keypress_S2","block","trial_num","phase","group_type","pair_type","S1_stim","S2_stim","S1_img","S2_img","S1_chosen","S1_higher","accuracy","keypress_iti","total_bonus_tally"
"true","full_screen","d04132023hr1738","fullscreen","0","52660","0.0-0.0","0","0","12772","","","","","","","","","","","","","","","","","","","","","",""
"","instructions","","instructions","1","333824","0.0-1.0-0.0-0.0","0","0","12772","[{""page_index"":0,""viewing_time"":4162},{""page_index"":1,""viewing_time"":166820},{""page_index"":2,""viewing_time"":108718},{""page_index"":3,""viewing_time"":1459}]","281160","","","","","","","","","","","","","","","","","","","",""
"","comprehension_check","","survey-multi-choice","2","360275","0.0-1.0-0.0-1.0","0","0","12772","","26441","{""Q0"":""True"",""Q1"":""D"",""Q2"":""Once the second image appears and while the screen 'MAKE A CHOICE' is shown"",""Q3"":""Green mark"",""Q4"":""either D or K""}","0","","","","","","","","","","","","","","","","","",""
"","start_exp","","html-keyboard-response","3","362503","0.0-1.0-1.0","0","0","12772","","2220","","","32","","","","","","","","","","","","","","","","",""
"","S1","","html-keyboard-response","4","362763","0.0-1.0-2.0","0","0","12772","","null","","","null","0","","","","","","","","","","","","","","","",""
"","ISI","","html-keyboard-response","5","363767","0.0-1.0-3.0","0","0","12772","","null","","","null","0","NaN","","","","","","","","","","","","","","",""
"","S2","","html-keyboard-response","6","364024","0.0-1.0-4.0","0","0","12772","","null","","","null","0","","NaN","","","","","","","","","","","","","",""
"","response","","html-keyboard-response","7","364409","0.0-1.0-5.0-0.0","0","0","12772","","379","","","75","0","","","1","0","training","adjacent","BA","2","1","M.jpg","N.jpg","0","0","1","",""
"","feedback","","html-keyboard-response","8","365415","0.0-1.0-6.0-0.0","0","0","12772","","null","","","null","0","","","","","","","","","","","","","","","",""
"","ITI","","html-keyboard-response","9","366421","0.0-1.0-9.0","0","0","12772","","null","","","null","0","","","","","","","","","","","","","","","NaN",""
"","S1","","html-keyboard-response","10","366677","0.0-1.0-11.0","0","0","12772","","null","","","null","1","","","","","","","","","","","","","","","",""
"","ISI","","html-keyboard-response","11","367681","0.0-1.0-12.0","0","0","12772","","null","","","null","1","NaN","","","","","","","","","","","","","","",""
"","S2","","html-keyboard-response","12","367938","0.0-1.0-13.0","0","0","12772","","null","","","null","1","","NaN","","","","","","","","","","","","","",""
"","response","","html-keyboard-response","13","368341","0.0-1.0-14.0-0.0","0","0","12772","","397","","","68","1","","","1","1","training","adjacent","DE","4","5","R.jpg","L.jpg","1","1","1","",""
"","feedback","","html-keyboard-response","14","369346","0.0-1.0-15.0-0.0","0","0","12772","","null","","","null","1","","","","","","","","","","","","","","","",""
"","ITI","","html-keyboard-response","15","370351","0.0-1.0-18.0","0","0","12772","","null","","","null","1","","","","","","","","","","","","","","","NaN",""
"","S1","","html-keyboard-response","16","370606","0.0-1.0-20.0","0","0","12772","","null","","","null","2","","","","","","","","","","","","","","","",""
"","ISI","","html-keyboard-response","17","371611","0.0-1.0-21.0","0","0","12772","","null","","","null","2","NaN","","","","","","","","","","","","","","",""
"","S2","","html-keyboard-response","18","371865","0.0-1.0-22.0","0","0","12772","","null","","","null","2","","NaN","","","","","","","","","","","","","",""
"","response","","html-keyboard-response","19","372272","0.0-1.0-23.0-0.0","0","0","12772","","402","","","75","2","","","1","2","training","adjacent","DC","4","3","R.jpg","Q.jpg","0","0","1","",""
"","feedback","","html-keyboard-response","20","373278","0.0-1.0-24.0-0.0","0","0","12772","","null","","","null","2","","","","","","","","","","","","","","","",""
"","ITI","","html-keyboard-response","21","374282","0.0-1.0-27.0","0","0","12772","","null","","","null","2","","","","","","","","","","","","","","","NaN",""
"","S1","","html-keyboard-response","22","374537","0.0-1.0-29.0","0","0","12772","","null","","","null","3","","","","","","","","","","","","","","","",""
"","ISI","","html-keyboard-response","23","375541","0.0-1.0-30.0","0","0","12772","","null","","","null","3","NaN","","","","","","","","","","","","","","",""
"","S2","","html-keyboard-response","24","375797","0.0-1.0-31.0","0","0","12772","","null","","","null","3","","NaN","","","","","","","","","","","","","",""
"","response","","html-keyboard-response","25","376108","0.0-1.0-32.0-0.0","0","0","12772","","306","","","75","3","","","1","3","training","adjacent","DC","4","3","R.jpg","Q.jpg","0","0","1","",""
"","feedback","","html-keyboard-response","26","377113","0.0-1.0-33.0-0.0","0","0","12772","","null","","","null","3","","","","","","","","","","","","","","","",""
"","ITI","","html-keyboard-response","27","378117","0.0-1.0-36.0","0","0","12772","","null","","","null","3","","","","","","","","","","","","","","","NaN",""
"","S1","","html-keyboard-response","28","378373","0.0-1.0-38.0","0","0","12772","","null","","","null","4","","","","","","","","","","","","","","","",""
"","ISI","","html-keyboard-response","29","379376","0.0-1.0-39.0","0","0","12772","","null","","","null","4","NaN","","","","","","","","","","","","","","",""
"","S2","","html-keyboard-response","30","379632","0.0-1.0-40.0","0","0","12772","","null","","","null","4","","NaN","","","","","","","","","","","","","",""
"","response","","html-keyboard-response","31","380118","0.0-1.0-41.0-0.0","0","0","12772","","481","","","75","4","","","1","4","training","adjacent","AB","1","2","N.jpg","M.jpg","0","1","0","",""
"","feedback","","html-keyboard-response","32","381123","0.0-1.0-42.0-0.0","0","0","12772","","null","","","null","4","","","","","","","","","","","","","","","",""
"","time_out","","html-keyboard-response","33","383128","0.0-1.0-44.0-0.0","0","0","12772","","null","","","null","4","","","","","","","","","","","","","","","",""
"","ITI","","html-keyboard-response","34","384132","0.0-1.0-45.0","0","0","12772","","null","","","null","4","","","","","","","","","","","","","","","NaN",""
"","S1","","html-keyboard-response","35","384387","0.0-1.0-47.0","0","0","12772","","null","","","null","5","","","","","","","","","","","","","","","",""
"","ISI","","html-keyboard-response","36","385392","0.0-1.0-48.0","0","0","12772","","null","","","null","5","NaN","","","","","","","","","","","","","","",""
"","S2","","html-keyboard-response","37","385646","0.0-1.0-49.0","0","0","12772","","null","","","null","5","","NaN","","","","","","","","","","","","","",""
"","response","","html-keyboard-response","38","386039","0.0-1.0-50.0-0.0","0","0","12772","","387","","","68","5","","","1","5","training","adjacent","GF","7","6","O.jpg","P.jpg","1","0","0","",""
"","feedback","","html-keyboard-response","39","387044","0.0-1.0-51.0-0.0","0","0","12772","","null","","","null","5","","","","","","","","","","","","","","","",""
"","time_out","","html-keyboard-response","40","389048","0.0-1.0-53.0-0.0","0","0","12772","","null","","","null","5","","","","","","","","","","","","","","","",""
"","ITI","","html-keyboard-response","41","390053","0.0-1.0-54.0","0","0","12772","","null","","","null","5","","","","","","","","","","","","","","","NaN",""
"","S1","","html-keyboard-response","42","390308","0.0-1.0-56.0","0","0","12772","","null","","","null","6","","","","","","","","","","","","","","","",""
"","ISI","","html-keyboard-response","43","391312","0.0-1.0-57.0","0","0","12772","","null","","","null","6","NaN","","","","","","","","","","","","","","",""
"","S2","","html-keyboard-response","44","391568","0.0-1.0-58.0","0","0","12772","","null","","","null","6","","NaN","","","","","","","","","","","","","",""
"","response","","html-keyboard-response","45","391845","0.0-1.0-59.0-0.0","0","0","12772","","273","","","68","6","","","1","6","training","adjacent","EF","5","6","L.jpg","P.jpg","1","1","1","",""
"","feedback","","html-keyboard-response","46","392851","0.0-1.0-60.0-0.0","0","0","12772","","null","","","null","6","","","","","","","","","","","","","","","",""
"","ITI","","html-keyboard-response","47","393856","0.0-1.0-63.0","0","0","12772","","null","","","null","6","","","","","","","","","","","","","","","NaN",""
"","S1","","html-keyboard-response","48","394111","0.0-1.0-65.0","0","0","12772","","null","","","null","7","","","","","","","","","","","","","","","",""
"","ISI","","html-keyboard-response","49","395116","0.0-1.0-66.0","0","0","12772","","null","","","null","7","NaN","","","","","","","","","","","","","","",""
"","S2","","html-keyboard-response","50","395370","0.0-1.0-67.0","0","0","12772","","null","","","null","7","","NaN","","","","","","","","","","","","","",""
"","response","","html-keyboard-response","51","395697","0.0-1.0-68.0-0.0","0","0","12772","","322","","","75","7","","","1","7","training","adjacent","BC","2","3","M.jpg","Q.jpg","0","1","0","",""
"","feedback","","html-keyboard-response","52","396703","0.0-1.0-69.0-0.0","0","0","12772","","null","","","null","7","","","","","","","","","","","","","","","",""
"","time_out","","html-keyboard-response","53","398707","0.0-1.0-71.0-0.0","0","0","12772","","null","","","null","7","","","","","","","","","","","","","","","",""
"","ITI","","html-keyboard-response","54","399712","0.0-1.0-72.0","0","0","12772","","null","","","null","7","","","","","","","","","","","","","","","NaN",""
"","S1","","html-keyboard-response","55","399967","0.0-1.0-74.0","0","0","12772","","null","","","null","8","","","","","","","","","","","","","","","",""
"","ISI","","html-keyboard-response","56","400972","0.0-1.0-75.0","0","0","12772","","null","","","null","8","NaN","","","","","","","","","","","","","","",""
"","S2","","html-keyboard-response","57","401226","0.0-1.0-76.0","0","0","12772","","null","","","null","8","","NaN","","","","","","","","","","","","","",""
"","response","","html-keyboard-response","58","401769","0.0-1.0-77.0-0.0","0","0","12772","","538","","","75","8","","","1","8","training","adjacent","CB","3","2","Q.jpg","M.jpg","0","0","1","",""
"","feedback","","html-keyboard-response","59","402774","0.0-1.0-78.0-0.0","0","0","12772","","null","","","null","8","","","","","","","","","","","","","","","",""
"","ITI","","html-keyboard-response","60","403779","0.0-1.0-81.0","0","0","12772","","null","","","null","8","","","","","","","","","","","","","","","NaN",""
"","S1","","html-keyboard-response","61","404034","0.0-1.0-83.0","0","0","12772","","null","","","null","9","","","","","","","","","","","","","","","",""
"","ISI","","html-keyboard-response","62","405039","0.0-1.0-84.0","0","0","12772","","null","","","null","9","NaN","","","","","","","","","","","","","","",""
"","S2","","html-keyboard-response","63","405294","0.0-1.0-85.0","0","0","12772","","null","","","null","9","","NaN","","","","","","","","","","","","","",""
"","response","","html-keyboard-response","64","405733","0.0-1.0-86.0-0.0","0","0","12772","","435","","","68","9","","","1","9","training","adjacent","AB","1","2","N.jpg","M.jpg","1","1","1","",""
"","feedback","","html-keyboard-response","65","406739","0.0-1.0-87.0-0.0","0","0","12772","","null","","","null","9","","","","","","","","","","","","","","","",""
"","ITI","","html-keyboard-response","66","407743","0.0-1.0-90.0","0","0","12772","","null","","","null","9","","","","","","","","","","","","","","","NaN",""
"","S1","","html-keyboard-response","67","407998","0.0-1.0-92.0","0","0","12772","","null","","","null","10","","","","","","","","","","","","","","","",""
"","ISI","","html-keyboard-response","68","409002","0.0-1.0-93.0","0","0","12772","","null","","","null","10","NaN","","","","","","","","","","","","","","",""
"","S2","","html-keyboard-response","69","409257","0.0-1.0-94.0","0","0","12772","","null","","","null","10","","NaN","","","","","","","","","","","","","",""
"","response","","html-keyboard-response","70","409776","0.0-1.0-95.0-0.0","0","0","12772","","514","","","68","10","","","1","10","training","adjacent","DE","4","5","R.jpg","L.jpg","1","1","1","",""
"","feedback","","html-keyboard-response","71","410781","0.0-1.0-96.0-0.0","0","0","12772","","null","","","null","10","","","","","","","","","","","","","","","",""
"","ITI","","html-keyboard-response","72","411786","0.0-1.0-99.0","0","0","12772","","null","","","null","10","","","","","","","","","","","","","","","NaN",""
"","S1","","html-keyboard-response","73","412041","0.0-1.0-101.0","0","0","12772","","null","","","null","11","","","","","","","","","","","","","","","",""
"","ISI","","html-keyboard-response","74","413046","0.0-1.0-102.0","0","0","12772","","null","","","null","11","NaN","","","","","","","","","","","","","","",""
"","S2","","html-keyboard-response","75","413301","0.0-1.0-103.0","0","0","12772","","null","","","null","11","","NaN","","","","","","","","","","","","","",""
"","response","","html-keyboard-response","76","414231","0.0-1.0-104.0-0.0","0","0","12772","","927","","","68","11","","","1","11","training","adjacent","GF","7","6","O.jpg","P.jpg","1","0","0","",""
"","feedback","","html-keyboard-response","77","415236","0.0-1.0-105.0-0.0","0","0","12772","","null","","","null","11","","","","","","","","","","","","","","","",""
"","time_out","","html-keyboard-response","78","417241","0.0-1.0-107.0-0.0","0","0","12772","","null","","","null","11","","","","","","","","","","","","","","","",""
"","ITI","","html-keyboard-response","79","418245","0.0-1.0-108.0","0","0","12772","","null","","","null","11","","","","","","","","","","","","","","","NaN",""
"","S1","","html-keyboard-response","80","418500","0.0-1.0-110.0","0","0","12772","","null","","","null","12","","","","","","","","","","","","","","","",""
"","ISI","","html-keyboard-response","81","419505","0.0-1.0-111.0","0","0","12772","","null","","","null","12","NaN","","","","","","","","","","","","","","",""
"","S2","","html-keyboard-response","82","419760","0.0-1.0-112.0","0","0","12772","","null","","","null","12","","NaN","","","","","","","","","","","","","",""
"","response","","html-keyboard-response","83","420704","0.0-1.0-113.0-0.0","0","0","12772","","941","","","75","12","","","1","12","training","adjacent","BA","2","1","M.jpg","N.jpg","0","0","1","",""
"","feedback","","html-keyboard-response","84","421709","0.0-1.0-114.0-0.0","0","0","12772","","null","","","null","12","","","","","","","","","","","","","","","",""
"","ITI","","html-keyboard-response","85","422715","0.0-1.0-117.0","0","0","12772","","null","","","null","12","","","","","","","","","","","","","","","NaN",""
"","S1","","html-keyboard-response","86","422969","0.0-1.0-119.0","0","0","12772","","null","","","null","13","","","","","","","","","","","","","","","",""
"","ISI","","html-keyboard-response","87","423974","0.0-1.0-120.0","0","0","12772","","null","","","null","13","NaN","","","","","","","","","","","","","","",""
"","S2","","html-keyboard-response","88","424229","0.0-1.0-121.0","0","0","12772","","null","","","null","13","","NaN","","","","","","","","","","","","","",""
"","response","","html-keyboard-response","89","425066","0.0-1.0-122.0-0.0","0","0","12772","","833","","","75","13","","","1","13","training","adjacent","BA","2","1","M.jpg","N.jpg","0","0","1","",""
"","feedback","","html-keyboard-response","90","426070","0.0-1.0-123.0-0.0","0","0","12772","","null","","","null","13","","","","","","","","","","","","","","","",""
"","ITI","","html-keyboard-response","91","427076","0.0-1.0-126.0","0","0","12772","","null","","","null","13","","","","","","","","","","","","","","","NaN",""
"","S1","","html-keyboard-response","92","427331","0.0-1.0-128.0","0","0","12772","","null","","","null","14","","","","","","","","","","","","","","","",""
"","ISI","","html-keyboard-response","93","428335","0.0-1.0-129.0","0","0","12772","","null","","","null","14","NaN","","","","","","","","","","","","","","",""
"","S2","","html-keyboard-response","94","428590","0.0-1.0-130.0","0","0","12772","","null","","","null","14","","NaN","","","","","","","","","","","","","",""
"","response","","html-keyboard-response","95","429567","0.0-1.0-131.0-0.0","0","0","12772","","972","","","68","14","","","1","14","training","adjacent","CB","3","2","Q.jpg","M.jpg","1","0","0","",""
"","feedback","","html-keyboard-response","96","430573","0.0-1.0-132.0-0.0","0","0","12772","","null","","","null","14","","","","","","","","","","","","","","","",""
"","time_out","","html-keyboard-response","97","432578","0.0-1.0-134.0-0.0","0","0","12772","","null","","","null","14","","","","","","","","","","","","","","","",""
"","ITI","","html-keyboard-response","98","433582","0.0-1.0-135.0","0","0","12772","","null","","","null","14","","","","","","","","","","","","","","","NaN",""
"","S1","","html-keyboard-response","99","433837","0.0-1.0-137.0","0","0","12772","","null","","","null","15","","","","","","","","","","","","","","","",""
"","ISI","","html-keyboard-response","100","434842","0.0-1.0-138.0","0","0","12772","","null","","","null","15","NaN","","","","","","","","","","","","","","",""
"","S2","","html-keyboard-response","101","435097","0.0-1.0-139.0","0","0","12772","","null","","","null","15","","NaN","","","","","","","","","","","","","",""
"","response","","html-keyboard-response","102","436026","0.0-1.0-140.0-0.0","0","0","12772","","925","","","75","15","","","1","15","training","adjacent","ED","5","4","L.jpg","R.jpg","0","0","1","",""
"","feedback","","html-keyboard-response","103","437032","0.0-1.0-141.0-0.0","0","0","12772","","null","","","null","15","","","","","","","","","","","","","","","",""
"","ITI","","html-keyboard-response","104","438036","0.0-1.0-144.0","0","0","12772","","null","","","null","15","","","","","","","","","","","","","","","NaN",""
"","S1","","html-keyboard-response","105","438292","0.0-1.0-146.0","0","0","12772","","null","","","null","16","","","","","","","","","","","","","","","",""
"","ISI","","html-keyboard-response","106","439296","0.0-1.0-147.0","0","0","12772","","null","","","null","16","NaN","","","","","","","","","","","","","","",""
"","S2","","html-keyboard-response","107","439551","0.0-1.0-148.0","0","0","12772","","null","","","null","16","","NaN","","","","","","","","","","","","","",""
"","response","","html-keyboard-response","108","440395","0.0-1.0-149.0-0.0","0","0","12772","","839","","","68","16","","","1","16","training","adjacent","EF","5","6","L.jpg","P.jpg","1","1","1","",""
"","feedback","","html-keyboard-response","109","441401","0.0-1.0-150.0-0.0","0","0","12772","","null","","","null","16","","","","","","","","","","","","","","","",""
"","ITI","","html-keyboard-response","110","442406","0.0-1.0-153.0","0","0","12772","","null","","","null","16","","","","","","","","","","","","","","","NaN",""
"","S1","","html-keyboard-response","111","442660","0.0-1.0-155.0","0","0","12772","","null","","","null","17","","","","","","","","","","","","","","","",""
"","ISI","","html-keyboard-response","112","443665","0.0-1.0-156.0","0","0","12772","","null","","","null","17","NaN","","","","","","","","","","","","","","",""
"","S2","","html-keyboard-response","113","443920","0.0-1.0-157.0","0","0","12772","","null","","","null","17","","NaN","","","","","","","","","","","","","",""
"","response","","html-keyboard-response","114","443972","0.0-1.0-158.0-0.0","0","0","12772","","47","","","75","17","","","1","17","training","adjacent","FG","6","7","P.jpg","O.jpg","0","1","0","",""
"","feedback","","html-keyboard-response","115","444977","0.0-1.0-159.0-0.0","0","0","12772","","null","","","null","17","","","","","","","","","","","","","","","",""
"","time_out","","html-keyboard-response","116","446981","0.0-1.0-161.0-0.0","0","0","12772","","null","","","null","17","","","","","","","","","","","","","","","",""
"","ITI","","html-keyboard-response","117","447986","0.0-1.0-162.0","0","0","12772","","null","","","null","17","","","","","","","","","","","","","","","NaN",""
"","S1","","html-keyboard-response","118","448241","0.0-1.0-164.0","0","0","12772","","null","","","null","18","","","","","","","","","","","","","","","",""
"","ISI","","html-keyboard-response","119","449245","0.0-1.0-165.0","0","0","12772","","null","","","null","18","NaN","","","","","","","","","","","","","","",""
"","S2","","html-keyboard-response","120","449500","0.0-1.0-166.0","0","0","12772","","null","","","null","18","","NaN","","","","","","","","","","","","","",""
"","response","","html-keyboard-response","121","450623","0.0-1.0-167.0-0.0","0","0","12772","","1119","","","68","18","","","1","18","training","adjacent","FG","6","7","P.jpg","O.jpg","1","1","1","",""
"","feedback","","html-keyboard-response","122","451628","0.0-1.0-168.0-0.0","0","0","12772","","null","","","null","18","","","","","","","","","","","","","","","",""
"","ITI","","html-keyboard-response","123","452633","0.0-1.0-171.0","0","0","12772","","null","","","null","18","","","","","","","","","","","","","","","NaN",""
"","S1","","html-keyboard-response","124","452888","0.0-1.0-173.0","0","0","12772","","null","","","null","19","","","","","","","","","","","","","","","",""
"","ISI","","html-keyboard-response","125","453893","0.0-1.0-174.0","0","0","12772","","null","","","null","19","NaN","","","","","","","","","","","","","","",""
"","S2","","html-keyboard-response","126","454147","0.0-1.0-175.0","0","0","12772","","null","","","null","19","","NaN","","","","","","","","","","","","","",""
"","response","","html-keyboard-response","127","454393","0.0-1.0-176.0-0.0","0","0","12772","","242","","","75","19","","","1","19","training","adjacent","CD","3","4","Q.jpg","R.jpg","0","1","0","",""
"","feedback","","html-keyboard-response","128","455399","0.0-1.0-177.0-0.0","0","0","12772","","null","","","null","19","","","","","","","","","","","","","","","",""
"","time_out","","html-keyboard-response","129","457403","0.0-1.0-179.0-0.0","0","0","12772","","null","","","null","19","","","","","","","","","","","","","","","",""
"","ITI","","html-keyboard-response","130","458408","0.0-1.0-180.0","0","0","12772","","null","","","null","19","","","","","","","","","","","","","","","NaN",""
"","S1","","html-keyboard-response","131","458663","0.0-1.0-182.0","0","0","12772","","null","","","null","20","","","","","","","","","","","","","","","",""
"","ISI","","html-keyboard-response","132","459668","0.0-1.0-183.0","0","0","12772","","null","","","null","20","NaN","","","","","","","","","","","","","","",""
"","S2","","html-keyboard-response","133","459922","0.0-1.0-184.0","0","0","12772","","null","","","null","20","","NaN","","","","","","","","","","","","","",""
"","response","","html-keyboard-response","134","460480","0.0-1.0-185.0-0.0","0","0","12772","","553","","","68","20","","","1","20","training","adjacent","FG","6","7","P.jpg","O.jpg","1","1","1","",""
"","feedback","","html-keyboard-response","135","461484","0.0-1.0-186.0-0.0","0","0","12772","","null","","","null","20","","","","","","","","","","","","","","","",""
"","ITI","","html-keyboard-response","136","462489","0.0-1.0-189.0","0","0","12772","","null","","","null","20","","","","","","","","","","","","","","","NaN",""
"","S1","","html-keyboard-response","137","462745","0.0-1.0-191.0","0","0","12772","","null","","","null","21","","","","","","","","","","","","","","","",""
"","ISI","","html-keyboard-response","138","463749","0.0-1.0-192.0","0","0","12772","","null","","","null","21","NaN","","","","","","","","","","","","","","",""
"","S2","","html-keyboard-response","139","464004","0.0-1.0-193.0","0","0","12772","","null","","","null","21","","NaN","","","","","","","","","","","","","",""
"","response","","html-keyboard-response","140","464747","0.0-1.0-194.0-0.0","0","0","12772","","738","","","68","21","","","1","21","training","adjacent","ED","5","4","L.jpg","R.jpg","1","0","0","",""
"","feedback","","html-keyboard-response","141","465752","0.0-1.0-195.0-0.0","0","0","12772","","null","","","null","21","","","","","","","","","","","","","","","",""
"","time_out","","html-keyboard-response","142","467757","0.0-1.0-197.0-0.0","0","0","12772","","null","","","null","21","","","","","","","","","","","","","","","",""
"","ITI","","html-keyboard-response","143","468762","0.0-1.0-198.0","0","0","12772","","null","","","null","21","","","","","","","","","","","","","","","NaN",""
"","S1","","html-keyboard-response","144","469017","0.0-1.0-200.0","0","0","12772","","null","","","null","22","","","","","","","","","","","","","","","",""
"","ISI","","html-keyboard-response","145","470021","0.0-1.0-201.0","0","0","12772","","null","","","null","22","NaN","","","","","","","","","","","","","","",""
"","S2","","html-keyboard-response","146","470275","0.0-1.0-202.0","0","0","12772","","null","","","null","22","","NaN","","","","","","","","","","","","","",""
"","response","","html-keyboard-response","147","470944","0.0-1.0-203.0-0.0","0","0","12772","","664","","","75","22","","","1","22","training","adjacent","GF","7","6","O.jpg","P.jpg","0","0","1","",""
"","feedback","","html-keyboard-response","148","471950","0.0-1.0-204.0-0.0","0","0","12772","","null","","","null","22","","","","","","","","","","","","","","","",""
"","ITI","","html-keyboard-response","149","472955","0.0-1.0-207.0","0","0","12772","","null","","","null","22","","","","","","","","","","","","","","","NaN",""
"","S1","","html-keyboard-response","150","473210","0.0-1.0-209.0","0","0","12772","","null","","","null","23","","","","","","","","","","","","","","","",""
"","ISI","","html-keyboard-response","151","474214","0.0-1.0-210.0","0","0","12772","","null","","","null","23","NaN","","","","","","","","","","","","","","",""
"","S2","","html-keyboard-response","152","474469","0.0-1.0-211.0","0","0","12772","","null","","","null","23","","NaN","","","","","","","","","","","","","",""
"","response","","html-keyboard-response","153","475080","0.0-1.0-212.0-0.0","0","0","12772","","606","","","68","23","","","1","23","training","adjacent","CB","3","2","Q.jpg","M.jpg","1","0","0","",""
"","feedback","","html-keyboard-response","154","476085","0.0-1.0-213.0-0.0","0","0","12772","","null","","","null","23","","","","","","","","","","","","","","","",""
"","time_out","","html-keyboard-response","155","478090","0.0-1.0-215.0-0.0","0","0","12772","","null","","","null","23","","","","","","","","","","","","","","","",""
"","ITI","","html-keyboard-response","156","479094","0.0-1.0-216.0","0","0","12772","","null","","","null","23","","","","","","","","","","","","","","","NaN",""
"","S1","","html-keyboard-response","157","479350","0.0-1.0-218.0","0","0","12772","","null","","","null","24","","","","","","","","","","","","","","","",""
"","ISI","","html-keyboard-response","158","480354","0.0-1.0-219.0","0","0","12772","","null","","","null","24","NaN","","","","","","","","","","","","","","",""
"","S2","","html-keyboard-response","159","480609","0.0-1.0-220.0","0","0","12772","","null","","","null","24","","NaN","","","","","","","","","","","","","",""
"","response","","html-keyboard-response","160","481387","0.0-1.0-221.0-0.0","0","0","12772","","773","","","68","24","","","1","24","training","adjacent","CD","3","4","Q.jpg","R.jpg","1","1","1","",""
"","feedback","","html-keyboard-response","161","482392","0.0-1.0-222.0-0.0","0","0","12772","","null","","","null","24","","","","","","","","","","","","","","","",""
"","ITI","","html-keyboard-response","162","483398","0.0-1.0-225.0","0","0","12772","","null","","","null","24","","","","","","","","","","","","","","","NaN",""
"","S1","","html-keyboard-response","163","483652","0.0-1.0-227.0","0","0","12772","","null","","","null","25","","","","","","","","","","","","","","","",""
"","ISI","","html-keyboard-response","164","484657","0.0-1.0-228.0","0","0","12772","","null","","","null","25","NaN","","","","","","","","","","","","","","",""
"","S2","","html-keyboard-response","165","484912","0.0-1.0-229.0","0","0","12772","","null","","","null","25","","NaN","","","","","","","","","","","","","",""
"","response","","html-keyboard-response","166","485227","0.0-1.0-230.0-0.0","0","0","12772","","310","","","68","25","","","1","25","training","adjacent","DE","4","5","R.jpg","L.jpg","1","1","1","",""
"","feedback","","html-keyboard-response","167","486232","0.0-1.0-231.0-0.0","0","0","12772","","null","","","null","25","","","","","","","","","","","","","","","",""
"","ITI","","html-keyboard-response","168","487236","0.0-1.0-234.0","0","0","12772","","null","","","null","25","","","","","","","","","","","","","","","NaN",""
"","S1","","html-keyboard-response","169","487492","0.0-1.0-236.0","0","0","12772","","null","","","null","26","","","","","","","","","","","","","","","",""
"","ISI","","html-keyboard-response","170","488496","0.0-1.0-237.0","0","0","12772","","null","","","null","26","NaN","","","","","","","","","","","","","","",""
"","S2","","html-keyboard-response","171","488752","0.0-1.0-238.0","0","0","12772","","null","","","null","26","","NaN","","","","","","","","","","","","","",""
"","response","","html-keyboard-response","172","489200","0.0-1.0-239.0-0.0","0","0","12772","","445","","","75","26","","","1","26","training","adjacent","BC","2","3","M.jpg","Q.jpg","0","1","0","",""
"","feedback","","html-keyboard-response","173","490206","0.0-1.0-240.0-0.0","0","0","12772","","null","","","null","26","","","","","","","","","","","","","","","",""
"","time_out","","html-keyboard-response","174","492211","0.0-1.0-242.0-0.0","0","0","12772","","null","","","null","26","","","","","","","","","","","","","","","",""
"","ITI","","html-keyboard-response","175","493215","0.0-1.0-243.0","0","0","12772","","null","","","null","26","","","","","","","","","","","","","","","NaN",""
"","S1","","html-keyboard-response","176","493470","0.0-1.0-245.0","0","0","12772","","null","","","null","27","","","","","","","","","","","","","","","",""
"","ISI","","html-keyboard-response","177","494475","0.0-1.0-246.0","0","0","12772","","null","","","null","27","NaN","","","","","","","","","","","","","","",""
"","S2","","html-keyboard-response","178","494730","0.0-1.0-247.0","0","0","12772","","null","","","null","27","","NaN","","","","","","","","","","","","","",""
"","response","","html-keyboard-response","179","495233","0.0-1.0-248.0-0.0","0","0","12772","","499","","","75","27","","","1","27","training","adjacent","FE","6","5","P.jpg","L.jpg","0","0","1","",""
"","feedback","","html-keyboard-response","180","496239","0.0-1.0-249.0-0.0","0","0","12772","","null","","","null","27","","","","","","","","","","","","","","","",""
"","ITI","","html-keyboard-response","181","497244","0.0-1.0-252.0","0","0","12772","","null","","","null","27","","","","","","","","","","","","","","","NaN",""
"","S1","","html-keyboard-response","182","497499","0.0-1.0-254.0","0","0","12772","","null","","","null","28","","","","","","","","","","","","","","","",""
"","ISI","","html-keyboard-response","183","498503","0.0-1.0-255.0","0","0","12772","","null","","","null","28","NaN","","","","","","","","","","","","","","",""
"","S2","","html-keyboard-response","184","498759","0.0-1.0-256.0","0","0","12772","","null","","","null","28","","NaN","","","","","","","","","","","","","",""
"","response","","html-keyboard-response","185","499416","0.0-1.0-257.0-0.0","0","0","12772","","654","","","75","28","","","1","28","training","adjacent","FE","6","5","P.jpg","L.jpg","0","0","1","",""
"","feedback","","html-keyboard-response","186","500422","0.0-1.0-258.0-0.0","0","0","12772","","null","","","null","28","","","","","","","","","","","","","","","",""
"","ITI","","html-keyboard-response","187","501427","0.0-1.0-261.0","0","0","12772","","null","","","null","28","","","","","","","","","","","","","","","NaN",""
"","S1","","html-keyboard-response","188","501682","0.0-1.0-263.0","0","0","12772","","null","","","null","29","","","","","","","","","","","","","","","",""
"","ISI","","html-keyboard-response","189","502686","0.0-1.0-264.0","0","0","12772","","null","","","null","29","NaN","","","","","","","","","","","","","","",""
"","S2","","html-keyboard-response","190","502941","0.0-1.0-265.0","0","0","12772","","null","","","null","29","","NaN","","","","","","","","","","","","","",""
"","response","","html-keyboard-response","191","503275","0.0-1.0-266.0-0.0","0","0","12772","","330","","","68","29","","","1","29","training","adjacent","GF","7","6","O.jpg","P.jpg","1","0","0","",""
"","feedback","","html-keyboard-response","192","504280","0.0-1.0-267.0-0.0","0","0","12772","","null","","","null","29","","","","","","","","","","","","","","","",""
"","time_out","","html-keyboard-response","193","506286","0.0-1.0-269.0-0.0","0","0","12772","","null","","","null","29","","","","","","","","","","","","","","","",""
"","ITI","","html-keyboard-response","194","507291","0.0-1.0-270.0","0","0","12772","","null","","","null","29","","","","","","","","","","","","","","","NaN",""
"","S1","","html-keyboard-response","195","507545","0.0-1.0-272.0","0","0","12772","","null","","","null","30","","","","","","","","","","","","","","","",""
"","ISI","","html-keyboard-response","196","508550","0.0-1.0-273.0","0","0","12772","","null","","","null","30","NaN","","","","","","","","","","","","","","",""
"","S2","","html-keyboard-response","197","508805","0.0-1.0-274.0","0","0","12772","","null","","","null","30","","NaN","","","","","","","","","","","","","",""
"","response","","html-keyboard-response","198","509084","0.0-1.0-275.0-0.0","0","0","12772","","275","","","68","30","","","1","30","training","adjacent","CB","3","2","Q.jpg","M.jpg","1","0","0","",""
"","feedback","","html-keyboard-response","199","510089","0.0-1.0-276.0-0.0","0","0","12772","","null","","","null","30","","","","","","","","","","","","","","","",""
"","time_out","","html-keyboard-response","200","512094","0.0-1.0-278.0-0.0","0","0","12772","","null","","","null","30","","","","","","","","","","","","","","","",""
"","ITI","","html-keyboard-response","201","513098","0.0-1.0-279.0","0","0","12772","","null","","","null","30","","","","","","","","","","","","","","","NaN",""
"","S1","","html-keyboard-response","202","513353","0.0-1.0-281.0","0","0","12772","","null","","","null","31","","","","","","","","","","","","","","","",""
"","ISI","","html-keyboard-response","203","514358","0.0-1.0-282.0","0","0","12772","","null","","","null","31","NaN","","","","","","","","","","","","","","",""
"","S2","","html-keyboard-response","204","514614","0.0-1.0-283.0","0","0","12772","","null","","","null","31","","NaN","","","","","","","","","","","","","",""
"","response","","html-keyboard-response","205","514778","0.0-1.0-284.0-0.0","0","0","12772","","160","","","68","31","","","1","31","training","adjacent","DC","4","3","R.jpg","Q.jpg","1","0","0","",""
"","feedback","","html-keyboard-response","206","515783","0.0-1.0-285.0-0.0","0","0","12772","","null","","","null","31","","","","","","","","","","","","","","","",""
"","time_out","","html-keyboard-response","207","517788","0.0-1.0-287.0-0.0","0","0","12772","","null","","","null","31","","","","","","","","","","","","","","","",""
"","ITI","","html-keyboard-response","208","518793","0.0-1.0-288.0","0","0","12772","","null","","","null","31","","","","","","","","","","","","","","","NaN",""
"","S1","","html-keyboard-response","209","519048","0.0-1.0-290.0","0","0","12772","","null","","","null","32","","","","","","","","","","","","","","","",""
"","ISI","","html-keyboard-response","210","520052","0.0-1.0-291.0","0","0","12772","","null","","","null","32","NaN","","","","","","","","","","","","","","",""
"","S2","","html-keyboard-response","211","520307","0.0-1.0-292.0","0","0","12772","","null","","","null","32","","NaN","","","","","","","","","","","","","",""
"","response","","html-keyboard-response","212","520535","0.0-1.0-293.0-0.0","0","0","12772","","223","","","68","32","","","1","32","training","adjacent","AB","1","2","N.jpg","M.jpg","1","1","1","",""
"","feedback","","html-keyboard-response","213","521541","0.0-1.0-294.0-0.0","0","0","12772","","null","","","null","32","","","","","","","","","","","","","","","",""
"","ITI","","html-keyboard-response","214","522546","0.0-1.0-297.0","0","0","12772","","null","","","null","32","","","","","","","","","","","","","","","NaN",""
"","S1","","html-keyboard-response","215","522801","0.0-1.0-299.0","0","0","12772","","null","","","null","33","","","","","","","","","","","","","","","",""
"","ISI","","html-keyboard-response","216","523806","0.0-1.0-300.0","0","0","12772","","null","","","null","33","NaN","","","","","","","","","","","","","","",""
"","S2","","html-keyboard-response","217","524060","0.0-1.0-301.0","0","0","12772","","null","","","null","33","","NaN","","","","","","","","","","","","","",""
"","response","","html-keyboard-response","218","524732","0.0-1.0-302.0-0.0","0","0","12772","","666","","","68","33","","","1","33","training","adjacent","BC","2","3","M.jpg","Q.jpg","1","1","1","",""
"","feedback","","html-keyboard-response","219","525737","0.0-1.0-303.0-0.0","0","0","12772","","null","","","null","33","","","","","","","","","","","","","","","",""
"","ITI","","html-keyboard-response","220","526742","0.0-1.0-306.0","0","0","12772","","null","","","null","33","","","","","","","","","","","","","","","NaN",""
"","S1","","html-keyboard-response","221","526997","0.0-1.0-308.0","0","0","12772","","null","","","null","34","","","","","","","","","","","","","","","",""
"","ISI","","html-keyboard-response","222","528002","0.0-1.0-309.0","0","0","12772","","null","","","null","34","NaN","","","","","","","","","","","","","","",""
"","S2","","html-keyboard-response","223","528257","0.0-1.0-310.0","0","0","12772","","null","","","null","34","","NaN","","","","","","","","","","","","","",""
"","response","","html-keyboard-response","224","528881","0.0-1.0-311.0-0.0","0","0","12772","","620","","","68","34","","","1","34","training","adjacent","FG","6","7","P.jpg","O.jpg","1","1","1","",""
"","feedback","","html-keyboard-response","225","529886","0.0-1.0-312.0-0.0","0","0","12772","","null","","","null","34","","","","","","","","","","","","","","","",""
"","ITI","","html-keyboard-response","226","530892","0.0-1.0-315.0","0","0","12772","","null","","","null","34","","","","","","","","","","","","","","","NaN",""
"","S1","","html-keyboard-response","227","531146","0.0-1.0-317.0","0","0","12772","","null","","","null","35","","","","","","","","","","","","","","","",""
"","ISI","","html-keyboard-response","228","532151","0.0-1.0-318.0","0","0","12772","","null","","","null","35","NaN","","","","","","","","","","","","","","",""
"","S2","","html-keyboard-response","229","532406","0.0-1.0-319.0","0","0","12772","","null","","","null","35","","NaN","","","","","","","","","","","","","",""
"","response","","html-keyboard-response","230","532766","0.0-1.0-320.0-0.0","0","0","12772","","355","","","75","35","","","1","35","training","adjacent","BA","2","1","M.jpg","N.jpg","0","0","1","",""
"","feedback","","html-keyboard-response","231","533771","0.0-1.0-321.0-0.0","0","0","12772","","null","","","null","35","","","","","","","","","","","","","","","",""
"","ITI","","html-keyboard-response","232","534776","0.0-1.0-324.0","0","0","12772","","null","","","null","35","","","","","","","","","","","","","","","NaN",""
"","S1","","html-keyboard-response","233","535031","0.0-1.0-326.0","0","0","12772","","null","","","null","36","","","","","","","","","","","","","","","",""
"","ISI","","html-keyboard-response","234","536036","0.0-1.0-327.0","0","0","12772","","null","","","null","36","NaN","","","","","","","","","","","","","","",""
"","S2","","html-keyboard-response","235","536292","0.0-1.0-328.0","0","0","12772","","null","","","null","36","","NaN","","","","","","","","","","","","","",""
"","response","","html-keyboard-response","236","536516","0.0-1.0-329.0-0.0","0","0","12772","","220","","","68","36","","","1","36","training","adjacent","BC","2","3","M.jpg","Q.jpg","1","1","1","",""
"","feedback","","html-keyboard-response","237","537521","0.0-1.0-330.0-0.0","0","0","12772","","null","","","null","36","","","","","","","","","","","","","","","",""
"","ITI","","html-keyboard-response","238","538526","0.0-1.0-333.0","0","0","12772","","null","","","null","36","","","","","","","","","","","","","","","NaN",""
"","S1","","html-keyboard-response","239","538781","0.0-1.0-335.0","0","0","12772","","null","","","null","37","","","","","","","","","","","","","","","",""
"","ISI","","html-keyboard-response","240","539786","0.0-1.0-336.0","0","0","12772","","null","","","null","37","NaN","","","","","","","","","","","","","","",""
"","S2","","html-keyboard-response","241","540041","0.0-1.0-337.0","0","0","12772","","null","","","null","37","","NaN","","","","","","","","","","","","","",""
"","response","","html-keyboard-response","242","540072","0.0-1.0-338.0-0.0","0","0","12772","","27","","","68","37","","","1","37","training","adjacent","AB","1","2","N.jpg","M.jpg","1","1","1","",""
"","feedback","","html-keyboard-response","243","541077","0.0-1.0-339.0-0.0","0","0","12772","","null","","","null","37","","","","","","","","","","","","","","","",""
"","ITI","","html-keyboard-response","244","542082","0.0-1.0-342.0","0","0","12772","","null","","","null","37","","","","","","","","","","","","","","","NaN",""
"","S1","","html-keyboard-response","245","542338","0.0-1.0-344.0","0","0","12772","","null","","","null","38","","","","","","","","","","","","","","","",""
"","ISI","","html-keyboard-response","246","543342","0.0-1.0-345.0","0","0","12772","","null","","","null","38","NaN","","","","","","","","","","","","","","",""
"","S2","","html-keyboard-response","247","543597","0.0-1.0-346.0","0","0","12772","","null","","","null","38","","NaN","","","","","","","","","","","","","",""
"","response","","html-keyboard-response","248","543843","0.0-1.0-347.0-0.0","0","0","12772","","241","","","75","38","","","1","38","training","adjacent","EF","5","6","L.jpg","P.jpg","0","1","0","",""
"","feedback","","html-keyboard-response","249","544848","0.0-1.0-348.0-0.0","0","0","12772","","null","","","null","38","","","","","","","","","","","","","","","",""
"","time_out","","html-keyboard-response","250","546853","0.0-1.0-350.0-0.0","0","0","12772","","null","","","null","38","","","","","","","","","","","","","","","",""
"","ITI","","html-keyboard-response","251","547858","0.0-1.0-351.0","0","0","12772","","null","","","null","38","","","","","","","","","","","","","","","NaN",""
"","S1","","html-keyboard-response","252","548113","0.0-1.0-353.0","0","0","12772","","null","","","null","39","","","","","","","","","","","","","","","",""
"","ISI","","html-keyboard-response","253","549117","0.0-1.0-354.0","0","0","12772","","null","","","null","39","NaN","","","","","","","","","","","","","","",""
"","S2","","html-keyboard-response","254","549373","0.0-1.0-355.0","0","0","12772","","null","","","null","39","","NaN","","","","","","","","","","","","","",""
"","response","","html-keyboard-response","255","549715","0.0-1.0-356.0-0.0","0","0","12772","","337","","","68","39","","","1","39","training","adjacent","DE","4","5","R.jpg","L.jpg","1","1","1","",""
"","feedback","","html-keyboard-response","256","550720","0.0-1.0-357.0-0.0","0","0","12772","","null","","","null","39","","","","","","","","","","","","","","","",""
"","ITI","","html-keyboard-response","257","551725","0.0-1.0-360.0","0","0","12772","","null","","","null","39","","","","","","","","","","","","","","","NaN",""
"","S1","","html-keyboard-response","258","551980","0.0-1.0-362.0","0","0","12772","","null","","","null","40","","","","","","","","","","","","","","","",""
"","ISI","","html-keyboard-response","259","552985","0.0-1.0-363.0","0","0","12772","","null","","","null","40","NaN","","","","","","","","","","","","","","",""
"","S2","","html-keyboard-response","260","553240","0.0-1.0-364.0","0","0","12772","","null","","","null","40","","NaN","","","","","","","","","","","","","",""
"","response","","html-keyboard-response","261","553449","0.0-1.0-365.0-0.0","0","0","12772","","204","","","75","40","","","1","40","training","adjacent","ED","5","4","L.jpg","R.jpg","0","0","1","",""
"","feedback","","html-keyboard-response","262","554455","0.0-1.0-366.0-0.0","0","0","12772","","null","","","null","40","","","","","","","","","","","","","","","",""
"","ITI","","html-keyboard-response","263","555460","0.0-1.0-369.0","0","0","12772","","null","","","null","40","","","","","","","","","","","","","","","NaN",""
"","S1","","html-keyboard-response","264","555714","0.0-1.0-371.0","0","0","12772","","null","","","null","41","","","","","","","","","","","","","","","",""
"","ISI","","html-keyboard-response","265","556720","0.0-1.0-372.0","0","0","12772","","null","","","null","41","NaN","","","","","","","","","","","","","","",""
"","S2","","html-keyboard-response","266","556974","0.0-1.0-373.0","0","0","12772","","null","","","null","41","","NaN","","","","","","","","","","","","","",""
"","response","","html-keyboard-response","267","557339","0.0-1.0-374.0-0.0","0","0","12772","","361","","","68","41","","","1","41","training","adjacent","CD","3","4","Q.jpg","R.jpg","1","1","1","",""
"","feedback","","html-keyboard-response","268","558344","0.0-1.0-375.0-0.0","0","0","12772","","null","","","null","41","","","","","","","","","","","","","","","",""
"","ITI","","html-keyboard-response","269","559350","0.0-1.0-378.0","0","0","12772","","null","","","null","41","","","","","","","","","","","","","","","NaN",""
"","S1","","html-keyboard-response","270","559606","0.0-1.0-380.0","0","0","12772","","null","","","null","42","","","","","","","","","","","","","","","",""
"","ISI","","html-keyboard-response","271","560609","0.0-1.0-381.0","0","0","12772","","null","","","null","42","NaN","","","","","","","","","","","","","","",""
"","S2","","html-keyboard-response","272","560864","0.0-1.0-382.0","0","0","12772","","null","","","null","42","","NaN","","","","","","","","","","","","","",""
"","response","","html-keyboard-response","273","561087","0.0-1.0-383.0-0.0","0","0","12772","","219","","","75","42","","","1","42","training","adjacent","ED","5","4","L.jpg","R.jpg","0","0","1","",""
"","feedback","","html-keyboard-response","274","562093","0.0-1.0-384.0-0.0","0","0","12772","","null","","","null","42","","","","","","","","","","","","","","","",""
"","ITI","","html-keyboard-response","275","563098","0.0-1.0-387.0","0","0","12772","","null","","","null","42","","","","","","","","","","","","","","","NaN",""
"","S1","","html-keyboard-response","276","563353","0.0-1.0-389.0","0","0","12772","","null","","","null","43","","","","","","","","","","","","","","","",""
"","ISI","","html-keyboard-response","277","564358","0.0-1.0-390.0","0","0","12772","","null","","","null","43","NaN","","","","","","","","","","","","","","",""
"","S2","","html-keyboard-response","278","564613","0.0-1.0-391.0","0","0","12772","","null","","","null","43","","NaN","","","","","","","","","","","","","",""
"","response","","html-keyboard-response","279","565075","0.0-1.0-392.0-0.0","0","0","12772","","458","","","75","43","","","1","43","training","adjacent","CD","3","4","Q.jpg","R.jpg","0","1","0","",""
"","feedback","","html-keyboard-response","280","566081","0.0-1.0-393.0-0.0","0","0","12772","","null","","","null","43","","","","","","","","","","","","","","","",""
"","time_out","","html-keyboard-response","281","568086","0.0-1.0-395.0-0.0","0","0","12772","","null","","","null","43","","","","","","","","","","","","","","","",""
"","ITI","","html-keyboard-response","282","569090","0.0-1.0-396.0","0","0","12772","","null","","","null","43","","","","","","","","","","","","","","","NaN",""
"","S1","","html-keyboard-response","283","569345","0.0-1.0-398.0","0","0","12772","","null","","","null","44","","","","","","","","","","","","","","","",""
"","ISI","","html-keyboard-response","284","570350","0.0-1.0-399.0","0","0","12772","","null","","","null","44","NaN","","","","","","","","","","","","","","",""
"","S2","","html-keyboard-response","285","570605","0.0-1.0-400.0","0","0","12772","","null","","","null","44","","NaN","","","","","","","","","","","","","",""
"","response","","html-keyboard-response","286","571039","0.0-1.0-401.0-0.0","0","0","12772","","429","","","75","44","","","1","44","training","adjacent","FE","6","5","P.jpg","L.jpg","0","0","1","",""
"","feedback","","html-keyboard-response","287","572045","0.0-1.0-402.0-0.0","0","0","12772","","null","","","null","44","","","","","","","","","","","","","","","",""
"","ITI","","html-keyboard-response","288","573050","0.0-1.0-405.0","0","0","12772","","null","","","null","44","","","","","","","","","","","","","","","NaN",""
"","S1","","html-keyboard-response","289","573306","0.0-1.0-407.0","0","0","12772","","null","","","null","45","","","","","","","","","","","","","","","",""
"","ISI","","html-keyboard-response","290","574310","0.0-1.0-408.0","0","0","12772","","null","","","null","45","NaN","","","","","","","","","","","","","","",""
"","S2","","html-keyboard-response","291","574565","0.0-1.0-409.0","0","0","12772","","null","","","null","45","","NaN","","","","","","","","","","","","","",""
"","response","","html-keyboard-response","292","574804","0.0-1.0-410.0-0.0","0","0","12772","","234","","","75","45","","","1","45","training","adjacent","FE","6","5","P.jpg","L.jpg","0","0","1","",""
"","feedback","","html-keyboard-response","293","575810","0.0-1.0-411.0-0.0","0","0","12772","","null","","","null","45","","","","","","","","","","","","","","","",""
"","ITI","","html-keyboard-response","294","576814","0.0-1.0-414.0","0","0","12772","","null","","","null","45","","","","","","","","","","","","","","","NaN",""
"","S1","","html-keyboard-response","295","577070","0.0-1.0-416.0","0","0","12772","","null","","","null","46","","","","","","","","","","","","","","","",""
"","ISI","","html-keyboard-response","296","578074","0.0-1.0-417.0","0","0","12772","","null","","","null","46","NaN","","","","","","","","","","","","","","",""
"","S2","","html-keyboard-response","297","578330","0.0-1.0-418.0","0","0","12772","","null","","","null","46","","NaN","","","","","","","","","","","","","",""
"","response","","html-keyboard-response","298","578632","0.0-1.0-419.0-0.0","0","0","12772","","298","","","68","46","","","1","46","training","adjacent","DC","4","3","R.jpg","Q.jpg","1","0","0","",""
"","feedback","","html-keyboard-response","299","579638","0.0-1.0-420.0-0.0","0","0","12772","","null","","","null","46","","","","","","","","","","","","","","","",""
"","time_out","","html-keyboard-response","300","581642","0.0-1.0-422.0-0.0","0","0","12772","","null","","","null","46","","","","","","","","","","","","","","","",""
"","ITI","","html-keyboard-response","301","582647","0.0-1.0-423.0","0","0","12772","","null","","","null","46","","","","","","","","","","","","","","","NaN",""
"","S1","","html-keyboard-response","302","582902","0.0-1.0-425.0","0","0","12772","","null","","","null","47","","","","","","","","","","","","","","","",""
"","ISI","","html-keyboard-response","303","583907","0.0-1.0-426.0","0","0","12772","","null","","","null","47","NaN","","","","","","","","","","","","","","",""
"","S2","","html-keyboard-response","304","584162","0.0-1.0-427.0","0","0","12772","","null","","","null","47","","NaN","","","","","","","","","","","","","",""
"","response","","html-keyboard-response","305","584638","0.0-1.0-428.0-0.0","0","0","12772","","472","","","68","47","","","1","47","training","adjacent","EF","5","6","L.jpg","P.jpg","1","1","1","",""
"","feedback","","html-keyboard-response","306","585644","0.0-1.0-429.0-0.0","0","0","12772","","null","","","null","47","","","","","","","","","","","","","","","",""
"","ITI","","html-keyboard-response","307","586649","0.0-1.0-432.0","0","0","12772","","null","","","null","47","","","","","","","","","","","","","","","NaN",""
"","block_over","","html-keyboard-response","308","588221","0.0-1.0-433.0-0.0","0","0","12772","","1565","","","32","47","","","","","","","","","","","","","","","",""
"","S1","","html-keyboard-response","309","588477","0.0-1.0-434.0","0","0","12772","","null","","","null","48","","","","","","","","","","","","","","","",""
"","ISI","","html-keyboard-response","310","589482","0.0-1.0-435.0","0","0","12772","","null","","","null","48","NaN","","","","","","","","","","","","","","",""
"","S2","","html-keyboard-response","311","589738","0.0-1.0-436.0","0","0","12772","","null","","","null","48","","NaN","","","","","","","","","","","","","",""
"","response","","html-keyboard-response","312","590205","0.0-1.0-437.0-0.0","0","0","12772","","462","","","75","48","","","2","48","training","adjacent","FE","6","5","P.jpg","L.jpg","0","0","1","",""
"","feedback","","html-keyboard-response","313","591212","0.0-1.0-438.0-0.0","0","0","12772","","null","","","null","48","","","","","","","","","","","","","","","",""
"","ITI","","html-keyboard-response","314","592217","0.0-1.0-441.0","0","0","12772","","null","","","null","48","","","","","","","","","","","","","","","NaN",""
"","S1","","html-keyboard-response","315","592473","0.0-1.0-443.0","0","0","12772","","null","","","null","49","","","","","","","","","","","","","","","",""
"","ISI","","html-keyboard-response","316","593477","0.0-1.0-444.0","0","0","12772","","null","","","null","49","NaN","","","","","","","","","","","","","","",""
"","S2","","html-keyboard-response","317","593733","0.0-1.0-445.0","0","0","12772","","null","","","null","49","","NaN","","","","","","","","","","","","","",""
"","response","","html-keyboard-response","318","594075","0.0-1.0-446.0-0.0","0","0","12772","","337","","","68","49","","","2","49","training","adjacent","FG","6","7","P.jpg","O.jpg","1","1","1","",""
"","feedback","","html-keyboard-response","319","595080","0.0-1.0-447.0-0.0","0","0","12772","","null","","","null","49","","","","","","","","","","","","","","","",""
"","ITI","","html-keyboard-response","320","596086","0.0-1.0-450.0","0","0","12772","","null","","","null","49","","","","","","","","","","","","","","","NaN",""
"","S1","","html-keyboard-response","321","596341","0.0-1.0-452.0","0","0","12772","","null","","","null","50","","","","","","","","","","","","","","","",""
"","ISI","","html-keyboard-response","322","597346","0.0-1.0-453.0","0","0","12772","","null","","","null","50","NaN","","","","","","","","","","","","","","",""
"","S2","","html-keyboard-response","323","597601","0.0-1.0-454.0","0","0","12772","","null","","","null","50","","NaN","","","","","","","","","","","","","",""
"","response","","html-keyboard-response","324","598032","0.0-1.0-455.0-0.0","0","0","12772","","427","","","75","50","","","2","50","training","adjacent","CD","3","4","Q.jpg","R.jpg","0","1","0","",""
"","feedback","","html-keyboard-response","325","599038","0.0-1.0-456.0-0.0","0","0","12772","","null","","","null","50","","","","","","","","","","","","","","","",""
"","time_out","","html-keyboard-response","326","601043","0.0-1.0-458.0-0.0","0","0","12772","","null","","","null","50","","","","","","","","","","","","","","","",""
"","ITI","","html-keyboard-response","327","602048","0.0-1.0-459.0","0","0","12772","","null","","","null","50","","","","","","","","","","","","","","","NaN",""
"","S1","","html-keyboard-response","328","602303","0.0-1.0-461.0","0","0","12772","","null","","","null","51","","","","","","","","","","","","","","","",""
"","ISI","","html-keyboard-response","329","603308","0.0-1.0-462.0","0","0","12772","","null","","","null","51","NaN","","","","","","","","","","","","","","",""
"","S2","","html-keyboard-response","330","603563","0.0-1.0-463.0","0","0","12772","","null","","","null","51","","NaN","","","","","","","","","","","","","",""
"","response","","html-keyboard-response","331","603804","0.0-1.0-464.0-0.0","0","0","12772","","237","","","75","51","","","2","51","training","adjacent","DE","4","5","R.jpg","L.jpg","0","1","0","",""
"","feedback","","html-keyboard-response","332","604810","0.0-1.0-465.0-0.0","0","0","12772","","null","","","null","51","","","","","","","","","","","","","","","",""
"","time_out","","html-keyboard-response","333","606815","0.0-1.0-467.0-0.0","0","0","12772","","null","","","null","51","","","","","","","","","","","","","","","",""
"","ITI","","html-keyboard-response","334","607820","0.0-1.0-468.0","0","0","12772","","null","","","null","51","","","","","","","","","","","","","","","NaN",""
"","S1","","html-keyboard-response","335","608076","0.0-1.0-470.0","0","0","12772","","null","","","null","52","","","","","","","","","","","","","","","",""
"","ISI","","html-keyboard-response","336","609080","0.0-1.0-471.0","0","0","12772","","null","","","null","52","NaN","","","","","","","","","","","","","","",""
"","S2","","html-keyboard-response","337","609335","0.0-1.0-472.0","0","0","12772","","null","","","null","52","","NaN","","","","","","","","","","","","","",""
"","response","","html-keyboard-response","338","609449","0.0-1.0-473.0-0.0","0","0","12772","","110","","","68","52","","","2","52","training","adjacent","AB","1","2","N.jpg","M.jpg","1","1","1","",""
"","feedback","","html-keyboard-response","339","610455","0.0-1.0-474.0-0.0","0","0","12772","","null","","","null","52","","","","","","","","","","","","","","","",""
"","ITI","","html-keyboard-response","340","611461","0.0-1.0-477.0","0","0","12772","","null","","","null","52","","","","","","","","","","","","","","","NaN",""
"","S1","","html-keyboard-response","341","611716","0.0-1.0-479.0","0","0","12772","","null","","","null","53","","","","","","","","","","","","","","","",""
"","ISI","","html-keyboard-response","342","612720","0.0-1.0-480.0","0","0","12772","","null","","","null","53","NaN","","","","","","","","","","","","","","",""
"","S2","","html-keyboard-response","343","612975","0.0-1.0-481.0","0","0","12772","","null","","","null","53","","NaN","","","","","","","","","","","","","",""
"","response","","html-keyboard-response","344","613188","0.0-1.0-482.0-0.0","0","0","12772","","209","","","75","53","","","2","53","training","adjacent","ED","5","4","L.jpg","R.jpg","0","0","1","",""
"","feedback","","html-keyboard-response","345","614194","0.0-1.0-483.0-0.0","0","0","12772","","null","","","null","53","","","","","","","","","","","","","","","",""
"","ITI","","html-keyboard-response","346","615200","0.0-1.0-486.0","0","0","12772","","null","","","null","53","","","","","","","","","","","","","","","NaN",""
"","S1","","html-keyboard-response","347","615455","0.0-1.0-488.0","0","0","12772","","null","","","null","54","","","","","","","","","","","","","","","",""
"","ISI","","html-keyboard-response","348","616460","0.0-1.0-489.0","0","0","12772","","null","","","null","54","NaN","","","","","","","","","","","","","","",""
"","S2","","html-keyboard-response","349","616715","0.0-1.0-490.0","0","0","12772","","null","","","null","54","","NaN","","","","","","","","","","","","","",""
"","response","","html-keyboard-response","350","617198","0.0-1.0-491.0-0.0","0","0","12772","","478","","","75","54","","","2","54","training","adjacent","DC","4","3","R.jpg","Q.jpg","0","0","1","",""
"","feedback","","html-keyboard-response","351","618204","0.0-1.0-492.0-0.0","0","0","12772","","null","","","null","54","","","","","","","","","","","","","","","",""
"","ITI","","html-keyboard-response","352","619209","0.0-1.0-495.0","0","0","12772","","null","","","null","54","","","","","","","","","","","","","","","NaN",""
"","S1","","html-keyboard-response","353","619464","0.0-1.0-497.0","0","0","12772","","null","","","null","55","","","","","","","","","","","","","","","",""
"","ISI","","html-keyboard-response","354","620469","0.0-1.0-498.0","0","0","12772","","null","","","null","55","NaN","","","","","","","","","","","","","","",""
"","S2","","html-keyboard-response","355","620724","0.0-1.0-499.0","0","0","12772","","null","","","null","55","","NaN","","","","","","","","","","","","","",""
"","response","","html-keyboard-response","356","621220","0.0-1.0-500.0-0.0","0","0","12772","","491","","","68","55","","","2","55","training","adjacent","ED","5","4","L.jpg","R.jpg","1","0","0","",""
"","feedback","","html-keyboard-response","357","622225","0.0-1.0-501.0-0.0","0","0","12772","","null","","","null","55","","","","","","","","","","","","","","","",""
"","time_out","","html-keyboard-response","358","624230","0.0-1.0-503.0-0.0","0","0","12772","","null","","","null","55","","","","","","","","","","","","","","","",""
"","ITI","","html-keyboard-response","359","625235","0.0-1.0-504.0","0","0","12772","","null","","","null","55","","","","","","","","","","","","","","","NaN",""
"","S1","","html-keyboard-response","360","625491","0.0-1.0-506.0","0","0","12772","","null","","","null","56","","","","","","","","","","","","","","","",""
"","ISI","","html-keyboard-response","361","626495","0.0-1.0-507.0","0","0","12772","","null","","","null","56","NaN","","","","","","","","","","","","","","",""
"","S2","","html-keyboard-response","362","626750","0.0-1.0-508.0","0","0","12772","","null","","","null","56","","NaN","","","","","","","","","","","","","",""
"","response","","html-keyboard-response","363","627241","0.0-1.0-509.0-0.0","0","0","12772","","487","","","68","56","","","2","56","training","adjacent","EF","5","6","L.jpg","P.jpg","1","1","1","",""
"","feedback","","html-keyboard-response","364","628247","0.0-1.0-510.0-0.0","0","0","12772","","null","","","null","56","","","","","","","","","","","","","","","",""
"","ITI","","html-keyboard-response","365","629253","0.0-1.0-513.0","0","0","12772","","null","","","null","56","","","","","","","","","","","","","","","NaN",""
"","S1","","html-keyboard-response","366","629508","0.0-1.0-515.0","0","0","12772","","null","","","null","57","","","","","","","","","","","","","","","",""
"","ISI","","html-keyboard-response","367","630512","0.0-1.0-516.0","0","0","12772","","null","","","null","57","NaN","","","","","","","","","","","","","","",""
"","S2","","html-keyboard-response","368","630768","0.0-1.0-517.0","0","0","12772","","null","","","null","57","","NaN","","","","","","","","","","","","","",""
"","response","","html-keyboard-response","369","631396","0.0-1.0-518.0-0.0","0","0","12772","","624","","","75","57","","","2","57","training","adjacent","DE","4","5","R.jpg","L.jpg","0","1","0","",""
"","feedback","","html-keyboard-response","370","632403","0.0-1.0-519.0-0.0","0","0","12772","","null","","","null","57","","","","","","","","","","","","","","","",""
"","time_out","","html-keyboard-response","371","634408","0.0-1.0-521.0-0.0","0","0","12772","","null","","","null","57","","","","","","","","","","","","","","","",""
"","ITI","","html-keyboard-response","372","635412","0.0-1.0-522.0","0","0","12772","","null","","","null","57","","","","","","","","","","","","","","","NaN",""
"","S1","","html-keyboard-response","373","635667","0.0-1.0-524.0","0","0","12772","","null","","","null","58","","","","","","","","","","","","","","","",""
"","ISI","","html-keyboard-response","374","636672","0.0-1.0-525.0","0","0","12772","","null","","","null","58","NaN","","","","","","","","","","","","","","",""
"","S2","","html-keyboard-response","375","636928","0.0-1.0-526.0","0","0","12772","","null","","","null","58","","NaN","","","","","","","","","","","","","",""
"","response","","html-keyboard-response","376","637296","0.0-1.0-527.0-0.0","0","0","12772","","364","","","75","58","","","2","58","training","adjacent","BA","2","1","M.jpg","N.jpg","0","0","1","",""
"","feedback","","html-keyboard-response","377","638301","0.0-1.0-528.0-0.0","0","0","12772","","null","","","null","58","","","","","","","","","","","","","","","",""
"","ITI","","html-keyboard-response","378","639307","0.0-1.0-531.0","0","0","12772","","null","","","null","58","","","","","","","","","","","","","","","NaN",""
"","S1","","html-keyboard-response","379","639562","0.0-1.0-533.0","0","0","12772","","null","","","null","59","","","","","","","","","","","","","","","",""
"","ISI","","html-keyboard-response","380","640567","0.0-1.0-534.0","0","0","12772","","null","","","null","59","NaN","","","","","","","","","","","","","","",""
"","S2","","html-keyboard-response","381","640822","0.0-1.0-535.0","0","0","12772","","null","","","null","59","","NaN","","","","","","","","","","","","","",""
"","response","","html-keyboard-response","382","641316","0.0-1.0-536.0-0.0","0","0","12772","","491","","","75","59","","","2","59","training","adjacent","BA","2","1","M.jpg","N.jpg","0","0","1","",""
"","feedback","","html-keyboard-response","383","642322","0.0-1.0-537.0-0.0","0","0","12772","","null","","","null","59","","","","","","","","","","","","","","","",""
"","ITI","","html-keyboard-response","384","643327","0.0-1.0-540.0","0","0","12772","","null","","","null","59","","","","","","","","","","","","","","","NaN",""
"","S1","","html-keyboard-response","385","643582","0.0-1.0-542.0","0","0","12772","","null","","","null","60","","","","","","","","","","","","","","","",""
"","ISI","","html-keyboard-response","386","644587","0.0-1.0-543.0","0","0","12772","","null","","","null","60","NaN","","","","","","","","","","","","","","",""
"","S2","","html-keyboard-response","387","644842","0.0-1.0-544.0","0","0","12772","","null","","","null","60","","NaN","","","","","","","","","","","","","",""
"","response","","html-keyboard-response","388","645373","0.0-1.0-545.0-0.0","0","0","12772","","526","","","68","60","","","2","60","training","adjacent","BC","2","3","M.jpg","Q.jpg","1","1","1","",""
"","feedback","","html-keyboard-response","389","646379","0.0-1.0-546.0-0.0","0","0","12772","","null","","","null","60","","","","","","","","","","","","","","","",""
"","ITI","","html-keyboard-response","390","647383","0.0-1.0-549.0","0","0","12772","","null","","","null","60","","","","","","","","","","","","","","","NaN",""
"","S1","","html-keyboard-response","391","647639","0.0-1.0-551.0","0","0","12772","","null","","","null","61","","","","","","","","","","","","","","","",""
"","ISI","","html-keyboard-response","392","648644","0.0-1.0-552.0","0","0","12772","","null","","","null","61","NaN","","","","","","","","","","","","","","",""
"","S2","","html-keyboard-response","393","648899","0.0-1.0-553.0","0","0","12772","","null","","","null","61","","NaN","","","","","","","","","","","","","",""
"","response","","html-keyboard-response","394","649122","0.0-1.0-554.0-0.0","0","0","12772","","219","","","75","61","","","2","61","training","adjacent","ED","5","4","L.jpg","R.jpg","0","0","1","",""
"","feedback","","html-keyboard-response","395","650128","0.0-1.0-555.0-0.0","0","0","12772","","null","","","null","61","","","","","","","","","","","","","","","",""
"","ITI","","html-keyboard-response","396","651133","0.0-1.0-558.0","0","0","12772","","null","","","null","61","","","","","","","","","","","","","","","NaN",""
"","S1","","html-keyboard-response","397","651389","0.0-1.0-560.0","0","0","12772","","null","","","null","62","","","","","","","","","","","","","","","",""
"","ISI","","html-keyboard-response","398","652393","0.0-1.0-561.0","0","0","12772","","null","","","null","62","NaN","","","","","","","","","","","","","","",""
"","S2","","html-keyboard-response","399","652649","0.0-1.0-562.0","0","0","12772","","null","","","null","62","","NaN","","","","","","","","","","","","","",""
"","response","","html-keyboard-response","400","652888","0.0-1.0-563.0-0.0","0","0","12772","","234","","","68","62","","","2","62","training","adjacent","AB","1","2","N.jpg","M.jpg","1","1","1","",""
"","feedback","","html-keyboard-response","401","653894","0.0-1.0-564.0-0.0","0","0","12772","","null","","","null","62","","","","","","","","","","","","","","","",""
"","ITI","","html-keyboard-response","402","654899","0.0-1.0-567.0","0","0","12772","","null","","","null","62","","","","","","","","","","","","","","","NaN",""
"","S1","","html-keyboard-response","403","655155","0.0-1.0-569.0","0","0","12772","","null","","","null","63","","","","","","","","","","","","","","","",""
"","ISI","","html-keyboard-response","404","656160","0.0-1.0-570.0","0","0","12772","","null","","","null","63","NaN","","","","","","","","","","","","","","",""
"","S2","","html-keyboard-response","405","656415","0.0-1.0-571.0","0","0","12772","","null","","","null","63","","NaN","","","","","","","","","","","","","",""
"","response","","html-keyboard-response","406","656825","0.0-1.0-572.0-0.0","0","0","12772","","406","","","68","63","","","2","63","training","adjacent","EF","5","6","L.jpg","P.jpg","1","1","1","",""
"","feedback","","html-keyboard-response","407","657831","0.0-1.0-573.0-0.0","0","0","12772","","null","","","null","63","","","","","","","","","","","","","","","",""
"","ITI","","html-keyboard-response","408","658836","0.0-1.0-576.0","0","0","12772","","null","","","null","63","","","","","","","","","","","","","","","NaN",""
"","S1","","html-keyboard-response","409","659091","0.0-1.0-578.0","0","0","12772","","null","","","null","64","","","","","","","","","","","","","","","",""
"","ISI","","html-keyboard-response","410","660096","0.0-1.0-579.0","0","0","12772","","null","","","null","64","NaN","","","","","","","","","","","","","","",""
"","S2","","html-keyboard-response","411","660351","0.0-1.0-580.0","0","0","12772","","null","","","null","64","","NaN","","","","","","","","","","","","","",""
"","response","","html-keyboard-response","412","660755","0.0-1.0-581.0-0.0","0","0","12772","","400","","","68","64","","","2","64","training","adjacent","DE","4","5","R.jpg","L.jpg","1","1","1","",""
"","feedback","","html-keyboard-response","413","661761","0.0-1.0-582.0-0.0","0","0","12772","","null","","","null","64","","","","","","","","","","","","","","","",""
"","ITI","","html-keyboard-response","414","662767","0.0-1.0-585.0","0","0","12772","","null","","","null","64","","","","","","","","","","","","","","","NaN",""
"","S1","","html-keyboard-response","415","663023","0.0-1.0-587.0","0","0","12772","","null","","","null","65","","","","","","","","","","","","","","","",""
"","ISI","","html-keyboard-response","416","664028","0.0-1.0-588.0","0","0","12772","","null","","","null","65","NaN","","","","","","","","","","","","","","",""
"","S2","","html-keyboard-response","417","664284","0.0-1.0-589.0","0","0","12772","","null","","","null","65","","NaN","","","","","","","","","","","","","",""
"","response","","html-keyboard-response","418","664535","0.0-1.0-590.0-0.0","0","0","12772","","246","","","68","65","","","2","65","training","adjacent","BC","2","3","M.jpg","Q.jpg","1","1","1","",""
"","feedback","","html-keyboard-response","419","665541","0.0-1.0-591.0-0.0","0","0","12772","","null","","","null","65","","","","","","","","","","","","","","","",""
"","ITI","","html-keyboard-response","420","666547","0.0-1.0-594.0","0","0","12772","","null","","","null","65","","","","","","","","","","","","","","","NaN",""
"","S1","","html-keyboard-response","421","666803","0.0-1.0-596.0","0","0","12772","","null","","","null","66","","","","","","","","","","","","","","","",""
"","ISI","","html-keyboard-response","422","667806","0.0-1.0-597.0","0","0","12772","","null","","","null","66","NaN","","","","","","","","","","","","","","",""
"","S2","","html-keyboard-response","423","668062","0.0-1.0-598.0","0","0","12772","","null","","","null","66","","NaN","","","","","","","","","","","","","",""
"","response","","html-keyboard-response","424","668368","0.0-1.0-599.0-0.0","0","0","12772","","301","","","75","66","","","2","66","training","adjacent","ED","5","4","L.jpg","R.jpg","0","0","1","",""
"","feedback","","html-keyboard-response","425","669374","0.0-1.0-600.0-0.0","0","0","12772","","null","","","null","66","","","","","","","","","","","","","","","",""
"","ITI","","html-keyboard-response","426","670380","0.0-1.0-603.0","0","0","12772","","null","","","null","66","","","","","","","","","","","","","","","NaN",""
"","S1","","html-keyboard-response","427","670635","0.0-1.0-605.0","0","0","12772","","null","","","null","67","","","","","","","","","","","","","","","",""
"","ISI","","html-keyboard-response","428","671640","0.0-1.0-606.0","0","0","12772","","null","","","null","67","NaN","","","","","","","","","","","","","","",""
"","S2","","html-keyboard-response","429","671895","0.0-1.0-607.0","0","0","12772","","null","","","null","67","","NaN","","","","","","","","","","","","","",""
"","response","","html-keyboard-response","430","672671","0.0-1.0-608.0-0.0","0","0","12772","","772","","","68","67","","","2","67","training","adjacent","CD","3","4","Q.jpg","R.jpg","1","1","1","",""
"","feedback","","html-keyboard-response","431","673677","0.0-1.0-609.0-0.0","0","0","12772","","null","","","null","67","","","","","","","","","","","","","","","",""
"","ITI","","html-keyboard-response","432","674683","0.0-1.0-612.0","0","0","12772","","null","","","null","67","","","","","","","","","","","","","","","NaN",""
"","S1","","html-keyboard-response","433","674939","0.0-1.0-614.0","0","0","12772","","null","","","null","68","","","","","","","","","","","","","","","",""
"","ISI","","html-keyboard-response","434","675943","0.0-1.0-615.0","0","0","12772","","null","","","null","68","NaN","","","","","","","","","","","","","","",""
"","S2","","html-keyboard-response","435","676198","0.0-1.0-616.0","0","0","12772","","null","","","null","68","","NaN","","","","","","","","","","","","","",""
"","response","","html-keyboard-response","436","676850","0.0-1.0-617.0-0.0","0","0","12772","","647","","","68","68","","","2","68","training","adjacent","EF","5","6","L.jpg","P.jpg","1","1","1","",""
"","feedback","","html-keyboard-response","437","677856","0.0-1.0-618.0-0.0","0","0","12772","","null","","","null","68","","","","","","","","","","","","","","","",""
"","ITI","","html-keyboard-response","438","678861","0.0-1.0-621.0","0","0","12772","","null","","","null","68","","","","","","","","","","","","","","","NaN",""
"","S1","","html-keyboard-response","439","679116","0.0-1.0-623.0","0","0","12772","","null","","","null","69","","","","","","","","","","","","","","","",""
"","ISI","","html-keyboard-response","440","680121","0.0-1.0-624.0","0","0","12772","","null","","","null","69","NaN","","","","","","","","","","","","","","",""
"","S2","","html-keyboard-response","441","680376","0.0-1.0-625.0","0","0","12772","","null","","","null","69","","NaN","","","","","","","","","","","","","",""
"","response","","html-keyboard-response","442","680872","0.0-1.0-626.0-0.0","0","0","12772","","492","","","68","69","","","2","69","training","adjacent","CD","3","4","Q.jpg","R.jpg","1","1","1","",""
"","feedback","","html-keyboard-response","443","681878","0.0-1.0-627.0-0.0","0","0","12772","","null","","","null","69","","","","","","","","","","","","","","","",""
"","ITI","","html-keyboard-response","444","682884","0.0-1.0-630.0","0","0","12772","","null","","","null","69","","","","","","","","","","","","","","","NaN",""
"","S1","","html-keyboard-response","445","683138","0.0-1.0-632.0","0","0","12772","","null","","","null","70","","","","","","","","","","","","","","","",""
"","ISI","","html-keyboard-response","446","684142","0.0-1.0-633.0","0","0","12772","","null","","","null","70","NaN","","","","","","","","","","","","","","",""
"","S2","","html-keyboard-response","447","684398","0.0-1.0-634.0","0","0","12772","","null","","","null","70","","NaN","","","","","","","","","","","","","",""
"","response","","html-keyboard-response","448","685110","0.0-1.0-635.0-0.0","0","0","12772","","707","","","75","70","","","2","70","training","adjacent","CB","3","2","Q.jpg","M.jpg","0","0","1","",""
"","feedback","","html-keyboard-response","449","686116","0.0-1.0-636.0-0.0","0","0","12772","","null","","","null","70","","","","","","","","","","","","","","","",""
"","ITI","","html-keyboard-response","450","687123","0.0-1.0-639.0","0","0","12772","","null","","","null","70","","","","","","","","","","","","","","","NaN",""
"","S1","","html-keyboard-response","451","687380","0.0-1.0-641.0","0","0","12772","","null","","","null","71","","","","","","","","","","","","","","","",""
"","ISI","","html-keyboard-response","452","688384","0.0-1.0-642.0","0","0","12772","","null","","","null","71","NaN","","","","","","","","","","","","","","",""
"","S2","","html-keyboard-response","453","688639","0.0-1.0-643.0","0","0","12772","","null","","","null","71","","NaN","","","","","","","","","","","","","",""
"","response","","html-keyboard-response","454","688979","0.0-1.0-644.0-0.0","0","0","12772","","335","","","75","71","","","2","71","training","adjacent","BA","2","1","M.jpg","N.jpg","0","0","1","",""
"","feedback","","html-keyboard-response","455","689984","0.0-1.0-645.0-0.0","0","0","12772","","null","","","null","71","","","","","","","","","","","","","","","",""
"","ITI","","html-keyboard-response","456","690990","0.0-1.0-648.0","0","0","12772","","null","","","null","71","","","","","","","","","","","","","","","NaN",""
"","S1","","html-keyboard-response","457","691245","0.0-1.0-650.0","0","0","12772","","null","","","null","72","","","","","","","","","","","","","","","",""
"","ISI","","html-keyboard-response","458","692250","0.0-1.0-651.0","0","0","12772","","null","","","null","72","NaN","","","","","","","","","","","","","","",""
"","S2","","html-keyboard-response","459","692505","0.0-1.0-652.0","0","0","12772","","null","","","null","72","","NaN","","","","","","","","","","","","","",""
"","response","","html-keyboard-response","460","693064","0.0-1.0-653.0-0.0","0","0","12772","","553","","","68","72","","","2","72","training","adjacent","GF","7","6","O.jpg","P.jpg","1","0","0","",""
"","feedback","","html-keyboard-response","461","694069","0.0-1.0-654.0-0.0","0","0","12772","","null","","","null","72","","","","","","","","","","","","","","","",""
"","time_out","","html-keyboard-response","462","696075","0.0-1.0-656.0-0.0","0","0","12772","","null","","","null","72","","","","","","","","","","","","","","","",""
"","ITI","","html-keyboard-response","463","697080","0.0-1.0-657.0","0","0","12772","","null","","","null","72","","","","","","","","","","","","","","","NaN",""
"","S1","","html-keyboard-response","464","697335","0.0-1.0-659.0","0","0","12772","","null","","","null","73","","","","","","","","","","","","","","","",""
"","ISI","","html-keyboard-response","465","698340","0.0-1.0-660.0","0","0","12772","","null","","","null","73","NaN","","","","","","","","","","","","","","",""
"","S2","","html-keyboard-response","466","698595","0.0-1.0-661.0","0","0","12772","","null","","","null","73","","NaN","","","","","","","","","","","","","",""
"","response","","html-keyboard-response","467","699175","0.0-1.0-662.0-0.0","0","0","12772","","575","","","68","73","","","2","73","training","adjacent","FG","6","7","P.jpg","O.jpg","1","1","1","",""
"","feedback","","html-keyboard-response","468","700181","0.0-1.0-663.0-0.0","0","0","12772","","null","","","null","73","","","","","","","","","","","","","","","",""
"","ITI","","html-keyboard-response","469","701187","0.0-1.0-666.0","0","0","12772","","null","","","null","73","","","","","","","","","","","","","","","NaN",""
"","S1","","html-keyboard-response","470","701442","0.0-1.0-668.0","0","0","12772","","null","","","null","74","","","","","","","","","","","","","","","",""
"","ISI","","html-keyboard-response","471","702447","0.0-1.0-669.0","0","0","12772","","null","","","null","74","NaN","","","","","","","","","","","","","","",""
"","S2","","html-keyboard-response","472","702702","0.0-1.0-670.0","0","0","12772","","null","","","null","74","","NaN","","","","","","","","","","","","","",""
"","response","","html-keyboard-response","473","703301","0.0-1.0-671.0-0.0","0","0","12772","","594","","","75","74","","","2","74","training","adjacent","DE","4","5","R.jpg","L.jpg","0","1","0","",""
"","feedback","","html-keyboard-response","474","704307","0.0-1.0-672.0-0.0","0","0","12772","","null","","","null","74","","","","","","","","","","","","","","","",""
"","time_out","","html-keyboard-response","475","706312","0.0-1.0-674.0-0.0","0","0","12772","","null","","","null","74","","","","","","","","","","","","","","","",""
"","ITI","","html-keyboard-response","476","707317","0.0-1.0-675.0","0","0","12772","","null","","","null","74","","","","","","","","","","","","","","","NaN",""
"","S1","","html-keyboard-response","477","707572","0.0-1.0-677.0","0","0","12772","","null","","","null","75","","","","","","","","","","","","","","","",""
"","ISI","","html-keyboard-response","478","708578","0.0-1.0-678.0","0","0","12772","","null","","","null","75","NaN","","","","","","","","","","","","","","",""
"","S2","","html-keyboard-response","479","708832","0.0-1.0-679.0","0","0","12772","","null","","","null","75","","NaN","","","","","","","","","","","","","",""
"","response","","html-keyboard-response","480","709114","0.0-1.0-680.0-0.0","0","0","12772","","278","","","75","75","","","2","75","training","adjacent","CB","3","2","Q.jpg","M.jpg","0","0","1","",""
"","feedback","","html-keyboard-response","481","710121","0.0-1.0-681.0-0.0","0","0","12772","","null","","","null","75","","","","","","","","","","","","","","","",""
"","ITI","","html-keyboard-response","482","711127","0.0-1.0-684.0","0","0","12772","","null","","","null","75","","","","","","","","","","","","","","","NaN",""
"","S1","","html-keyboard-response","483","711383","0.0-1.0-686.0","0","0","12772","","null","","","null","76","","","","","","","","","","","","","","","",""
"","ISI","","html-keyboard-response","484","712388","0.0-1.0-687.0","0","0","12772","","null","","","null","76","NaN","","","","","","","","","","","","","","",""
"","S2","","html-keyboard-response","485","712643","0.0-1.0-688.0","0","0","12772","","null","","","null","76","","NaN","","","","","","","","","","","","","",""
"","response","","html-keyboard-response","486","713051","0.0-1.0-689.0-0.0","0","0","12772","","403","","","75","76","","","2","76","training","adjacent","DC","4","3","R.jpg","Q.jpg","0","0","1","",""
"","feedback","","html-keyboard-response","487","714057","0.0-1.0-690.0-0.0","0","0","12772","","null","","","null","76","","","","","","","","","","","","","","","",""
"","ITI","","html-keyboard-response","488","715063","0.0-1.0-693.0","0","0","12772","","null","","","null","76","","","","","","","","","","","","","","","NaN",""
"","S1","","html-keyboard-response","489","715318","0.0-1.0-695.0","0","0","12772","","null","","","null","77","","","","","","","","","","","","","","","",""
"","ISI","","html-keyboard-response","490","716323","0.0-1.0-696.0","0","0","12772","","null","","","null","77","NaN","","","","","","","","","","","","","","",""
"","S2","","html-keyboard-response","491","716578","0.0-1.0-697.0","0","0","12772","","null","","","null","77","","NaN","","","","","","","","","","","","","",""
"","response","","html-keyboard-response","492","716765","0.0-1.0-698.0-0.0","0","0","12772","","182","","","75","77","","","2","77","training","adjacent","CB","3","2","Q.jpg","M.jpg","0","0","1","",""
"","feedback","","html-keyboard-response","493","717771","0.0-1.0-699.0-0.0","0","0","12772","","null","","","null","77","","","","","","","","","","","","","","","",""
"","ITI","","html-keyboard-response","494","718778","0.0-1.0-702.0","0","0","12772","","null","","","null","77","","","","","","","","","","","","","","","NaN",""
"","S1","","html-keyboard-response","495","719033","0.0-1.0-704.0","0","0","12772","","null","","","null","78","","","","","","","","","","","","","","","",""
"","ISI","","html-keyboard-response","496","720038","0.0-1.0-705.0","0","0","12772","","null","","","null","78","NaN","","","","","","","","","","","","","","",""
"","S2","","html-keyboard-response","497","720292","0.0-1.0-706.0","0","0","12772","","null","","","null","78","","NaN","","","","","","","","","","","","","",""
"","response","","html-keyboard-response","498","720461","0.0-1.0-707.0-0.0","0","0","12772","","164","","","68","78","","","2","78","training","adjacent","BC","2","3","M.jpg","Q.jpg","1","1","1","",""
"","feedback","","html-keyboard-response","499","721466","0.0-1.0-708.0-0.0","0","0","12772","","null","","","null","78","","","","","","","","","","","","","","","",""
"","ITI","","html-keyboard-response","500","722472","0.0-1.0-711.0","0","0","12772","","null","","","null","78","","","","","","","","","","","","","","","NaN",""
"","S1","","html-keyboard-response","501","722727","0.0-1.0-713.0","0","0","12772","","null","","","null","79","","","","","","","","","","","","","","","",""
"","ISI","","html-keyboard-response","502","723732","0.0-1.0-714.0","0","0","12772","","null","","","null","79","NaN","","","","","","","","","","","","","","",""
"","S2","","html-keyboard-response","503","723988","0.0-1.0-715.0","0","0","12772","","null","","","null","79","","NaN","","","","","","","","","","","","","",""
"","response","","html-keyboard-response","504","724447","0.0-1.0-716.0-0.0","0","0","12772","","455","","","68","79","","","2","79","training","adjacent","FE","6","5","P.jpg","L.jpg","1","0","0","",""
"","feedback","","html-keyboard-response","505","725453","0.0-1.0-717.0-0.0","0","0","12772","","null","","","null","79","","","","","","","","","","","","","","","",""
"","time_out","","html-keyboard-response","506","727459","0.0-1.0-719.0-0.0","0","0","12772","","null","","","null","79","","","","","","","","","","","","","","","",""
"","ITI","","html-keyboard-response","507","728463","0.0-1.0-720.0","0","0","12772","","null","","","null","79","","","","","","","","","","","","","","","NaN",""
"","S1","","html-keyboard-response","508","728718","0.0-1.0-722.0","0","0","12772","","null","","","null","80","","","","","","","","","","","","","","","",""
"","ISI","","html-keyboard-response","509","729723","0.0-1.0-723.0","0","0","12772","","null","","","null","80","NaN","","","","","","","","","","","","","","",""
"","S2","","html-keyboard-response","510","729979","0.0-1.0-724.0","0","0","12772","","null","","","null","80","","NaN","","","","","","","","","","","","","",""
"","response","","html-keyboard-response","511","730360","0.0-1.0-725.0-0.0","0","0","12772","","376","","","68","80","","","2","80","training","adjacent","FG","6","7","P.jpg","O.jpg","1","1","1","",""
"","feedback","","html-keyboard-response","512","731366","0.0-1.0-726.0-0.0","0","0","12772","","null","","","null","80","","","","","","","","","","","","","","","",""
"","ITI","","html-keyboard-response","513","732371","0.0-1.0-729.0","0","0","12772","","null","","","null","80","","","","","","","","","","","","","","","NaN",""
"","S1","","html-keyboard-response","514","732626","0.0-1.0-731.0","0","0","12772","","null","","","null","81","","","","","","","","","","","","","","","",""
"","ISI","","html-keyboard-response","515","733631","0.0-1.0-732.0","0","0","12772","","null","","","null","81","NaN","","","","","","","","","","","","","","",""
"","S2","","html-keyboard-response","516","733886","0.0-1.0-733.0","0","0","12772","","null","","","null","81","","NaN","","","","","","","","","","","","","",""
"","response","","html-keyboard-response","517","733973","0.0-1.0-734.0-0.0","0","0","12772","","82","","","68","81","","","2","81","training","adjacent","AB","1","2","N.jpg","M.jpg","1","1","1","",""
"","feedback","","html-keyboard-response","518","734979","0.0-1.0-735.0-0.0","0","0","12772","","null","","","null","81","","","","","","","","","","","","","","","",""
"","ITI","","html-keyboard-response","519","735985","0.0-1.0-738.0","0","0","12772","","null","","","null","81","","","","","","","","","","","","","","","NaN",""
"","S1","","html-keyboard-response","520","736240","0.0-1.0-740.0","0","0","12772","","null","","","null","82","","","","","","","","","","","","","","","",""
"","ISI","","html-keyboard-response","521","737244","0.0-1.0-741.0","0","0","12772","","null","","","null","82","NaN","","","","","","","","","","","","","","",""
"","S2","","html-keyboard-response","522","737500","0.0-1.0-742.0","0","0","12772","","null","","","null","82","","NaN","","","","","","","","","","","","","",""
"","response","","html-keyboard-response","523","737720","0.0-1.0-743.0-0.0","0","0","12772","","215","","","68","82","","","2","82","training","adjacent","FG","6","7","P.jpg","O.jpg","1","1","1","",""
"","feedback","","html-keyboard-response","524","738726","0.0-1.0-744.0-0.0","0","0","12772","","null","","","null","82","","","","","","","","","","","","","","","",""
"","ITI","","html-keyboard-response","525","739732","0.0-1.0-747.0","0","0","12772","","null","","","null","82","","","","","","","","","","","","","","","NaN",""
"","S1","","html-keyboard-response","526","739988","0.0-1.0-749.0","0","0","12772","","null","","","null","83","","","","","","","","","","","","","","","",""
"","ISI","","html-keyboard-response","527","740993","0.0-1.0-750.0","0","0","12772","","null","","","null","83","NaN","","","","","","","","","","","","","","",""
"","S2","","html-keyboard-response","528","741248","0.0-1.0-751.0","0","0","12772","","null","","","null","83","","NaN","","","","","","","","","","","","","",""
"","response","","html-keyboard-response","529","741474","0.0-1.0-752.0-0.0","0","0","12772","","220","","","68","83","","","2","83","training","adjacent","AB","1","2","N.jpg","M.jpg","1","1","1","",""
"","feedback","","html-keyboard-response","530","742479","0.0-1.0-753.0-0.0","0","0","12772","","null","","","null","83","","","","","","","","","","","","","","","",""
"","ITI","","html-keyboard-response","531","743485","0.0-1.0-756.0","0","0","12772","","null","","","null","83","","","","","","","","","","","","","","","NaN",""
"","S1","","html-keyboard-response","532","743741","0.0-1.0-758.0","0","0","12772","","null","","","null","84","","","","","","","","","","","","","","","",""
"","ISI","","html-keyboard-response","533","744746","0.0-1.0-759.0","0","0","12772","","null","","","null","84","NaN","","","","","","","","","","","","","","",""
"","S2","","html-keyboard-response","534","745001","0.0-1.0-760.0","0","0","12772","","null","","","null","84","","NaN","","","","","","","","","","","","","",""
"","response","","html-keyboard-response","535","745043","0.0-1.0-761.0-0.0","0","0","12772","","38","","","75","84","","","2","84","training","adjacent","CB","3","2","Q.jpg","M.jpg","0","0","1","",""
"","feedback","","html-keyboard-response","536","746050","0.0-1.0-762.0-0.0","0","0","12772","","null","","","null","84","","","","","","","","","","","","","","","",""
"","ITI","","html-keyboard-response","537","747056","0.0-1.0-765.0","0","0","12772","","null","","","null","84","","","","","","","","","","","","","","","NaN",""
"","S1","","html-keyboard-response","538","747312","0.0-1.0-767.0","0","0","12772","","null","","","null","85","","","","","","","","","","","","","","","",""
"","ISI","","html-keyboard-response","539","748316","0.0-1.0-768.0","0","0","12772","","null","","","null","85","NaN","","","","","","","","","","","","","","",""
"","S2","","html-keyboard-response","540","748572","0.0-1.0-769.0","0","0","12772","","null","","","null","85","","NaN","","","","","","","","","","","","","",""
"","response","","html-keyboard-response","541","748893","0.0-1.0-770.0-0.0","0","0","12772","","316","","","75","85","","","2","85","training","adjacent","FE","6","5","P.jpg","L.jpg","0","0","1","",""
"","feedback","","html-keyboard-response","542","749899","0.0-1.0-771.0-0.0","0","0","12772","","null","","","null","85","","","","","","","","","","","","","","","",""
"","ITI","","html-keyboard-response","543","750905","0.0-1.0-774.0","0","0","12772","","null","","","null","85","","","","","","","","","","","","","","","NaN",""
"","S1","","html-keyboard-response","544","751161","0.0-1.0-776.0","0","0","12772","","null","","","null","86","","","","","","","","","","","","","","","",""
"","ISI","","html-keyboard-response","545","752165","0.0-1.0-777.0","0","0","12772","","null","","","null","86","NaN","","","","","","","","","","","","","","",""
"","S2","","html-keyboard-response","546","752420","0.0-1.0-778.0","0","0","12772","","null","","","null","86","","NaN","","","","","","","","","","","","","",""
"","response","","html-keyboard-response","547","752605","0.0-1.0-779.0-0.0","0","0","12772","","180","","","75","86","","","2","86","training","adjacent","DC","4","3","R.jpg","Q.jpg","0","0","1","",""
"","feedback","","html-keyboard-response","548","753611","0.0-1.0-780.0-0.0","0","0","12772","","null","","","null","86","","","","","","","","","","","","","","","",""
"","ITI","","html-keyboard-response","549","754616","0.0-1.0-783.0","0","0","12772","","null","","","null","86","","","","","","","","","","","","","","","NaN",""
"","S1","","html-keyboard-response","550","754872","0.0-1.0-785.0","0","0","12772","","null","","","null","87","","","","","","","","","","","","","","","",""
"","ISI","","html-keyboard-response","551","755877","0.0-1.0-786.0","0","0","12772","","null","","","null","87","NaN","","","","","","","","","","","","","","",""
"","S2","","html-keyboard-response","552","756132","0.0-1.0-787.0","0","0","12772","","null","","","null","87","","NaN","","","","","","","","","","","","","",""
"","response","","html-keyboard-response","553","756609","0.0-1.0-788.0-0.0","0","0","12772","","472","","","75","87","","","2","87","training","adjacent","FE","6","5","P.jpg","L.jpg","0","0","1","",""
"","feedback","","html-keyboard-response","554","757615","0.0-1.0-789.0-0.0","0","0","12772","","null","","","null","87","","","","","","","","","","","","","","","",""
"","ITI","","html-keyboard-response","555","758621","0.0-1.0-792.0","0","0","12772","","null","","","null","87","","","","","","","","","","","","","","","NaN",""
"","S1","","html-keyboard-response","556","758878","0.0-1.0-794.0","0","0","12772","","null","","","null","88","","","","","","","","","","","","","","","",""
"","ISI","","html-keyboard-response","557","759882","0.0-1.0-795.0","0","0","12772","","null","","","null","88","NaN","","","","","","","","","","","","","","",""
"","S2","","html-keyboard-response","558","760137","0.0-1.0-796.0","0","0","12772","","null","","","null","88","","NaN","","","","","","","","","","","","","",""
"","response","","html-keyboard-response","559","760222","0.0-1.0-797.0-0.0","0","0","12772","","81","","","75","88","","","2","88","training","adjacent","GF","7","6","O.jpg","P.jpg","0","0","1","",""
"","feedback","","html-keyboard-response","560","761228","0.0-1.0-798.0-0.0","0","0","12772","","null","","","null","88","","","","","","","","","","","","","","","",""
"","ITI","","html-keyboard-response","561","762234","0.0-1.0-801.0","0","0","12772","","null","","","null","88","","","","","","","","","","","","","","","NaN",""
"","S1","","html-keyboard-response","562","762490","0.0-1.0-803.0","0","0","12772","","null","","","null","89","","","","","","","","","","","","","","","",""
"","ISI","","html-keyboard-response","563","763494","0.0-1.0-804.0","0","0","12772","","null","","","null","89","NaN","","","","","","","","","","","","","","",""
"","S2","","html-keyboard-response","564","763750","0.0-1.0-805.0","0","0","12772","","null","","","null","89","","NaN","","","","","","","","","","","","","",""
"","response","","html-keyboard-response","565","763987","0.0-1.0-806.0-0.0","0","0","12772","","234","","","75","89","","","2","89","training","adjacent","DC","4","3","R.jpg","Q.jpg","0","0","1","",""
"","feedback","","html-keyboard-response","566","764994","0.0-1.0-807.0-0.0","0","0","12772","","null","","","null","89","","","","","","","","","","","","","","","",""
"","ITI","","html-keyboard-response","567","765999","0.0-1.0-810.0","0","0","12772","","null","","","null","89","","","","","","","","","","","","","","","NaN",""
"","S1","","html-keyboard-response","568","766255","0.0-1.0-812.0","0","0","12772","","null","","","null","90","","","","","","","","","","","","","","","",""
"","ISI","","html-keyboard-response","569","767260","0.0-1.0-813.0","0","0","12772","","null","","","null","90","NaN","","","","","","","","","","","","","","",""
"","S2","","html-keyboard-response","570","767515","0.0-1.0-814.0","0","0","12772","","null","","","null","90","","NaN","","","","","","","","","","","","","",""
"","response","","html-keyboard-response","571","767687","0.0-1.0-815.0-0.0","0","0","12772","","168","","","68","90","","","2","90","training","adjacent","EF","5","6","L.jpg","P.jpg","1","1","1","",""
"","feedback","","html-keyboard-response","572","768694","0.0-1.0-816.0-0.0","0","0","12772","","null","","","null","90","","","","","","","","","","","","","","","",""
"","ITI","","html-keyboard-response","573","769701","0.0-1.0-819.0","0","0","12772","","null","","","null","90","","","","","","","","","","","","","","","NaN",""
"","S1","","html-keyboard-response","574","769956","0.0-1.0-821.0","0","0","12772","","null","","","null","91","","","","","","","","","","","","","","","",""
"","ISI","","html-keyboard-response","575","770962","0.0-1.0-822.0","0","0","12772","","null","","","null","91","NaN","","","","","","","","","","","","","","",""
"","S2","","html-keyboard-response","576","771218","0.0-1.0-823.0","0","0","12772","","null","","","null","91","","NaN","","","","","","","","","","","","","",""
"","response","","html-keyboard-response","577","771445","0.0-1.0-824.0-0.0","0","0","12772","","220","","","75","91","","","2","91","training","adjacent","CD","3","4","Q.jpg","R.jpg","0","1","0","",""
"","feedback","","html-keyboard-response","578","772452","0.0-1.0-825.0-0.0","0","0","12772","","null","","","null","91","","","","","","","","","","","","","","","",""
"","time_out","","html-keyboard-response","579","774457","0.0-1.0-827.0-0.0","0","0","12772","","null","","","null","91","","","","","","","","","","","","","","","",""
"","ITI","","html-keyboard-response","580","775461","0.0-1.0-828.0","0","0","12772","","null","","","null","91","","","","","","","","","","","","","","","NaN",""
"","S1","","html-keyboard-response","581","775716","0.0-1.0-830.0","0","0","12772","","null","","","null","92","","","","","","","","","","","","","","","",""
"","ISI","","html-keyboard-response","582","776721","0.0-1.0-831.0","0","0","12772","","null","","","null","92","NaN","","","","","","","","","","","","","","",""
