"success","ttype","start_time","trial_type","trial_index","time_elapsed","internal_node_id","warning","missed_checkup","PID","view_history","rt","responses","repeat_instructions","key_press","index","keypress_isi","keypress_S2","block","trial_num","phase","group_type","pair_type","S1_stim","S2_stim","S1_img","S2_img","S1_chosen","S1_higher","accuracy","keypress_iti","total_bonus_tally"
"true","full_screen","d04132023hr1930","fullscreen","0","7786","0.0-0.0","0","0","54068","","","","","","","","","","","","","","","","","","","","","",""
"","instructions","","instructions","1","37111","0.0-1.0-0.0-0.0","0","0","54068","[{""page_index"":0,""viewing_time"":4371},{""page_index"":1,""viewing_time"":12997},{""page_index"":2,""viewing_time"":8372},{""page_index"":3,""viewing_time"":3583}]","29324","","","","","","","","","","","","","","","","","","","",""
"","comprehension_check","","survey-multi-choice","2","56744","0.0-1.0-0.0-1.0","0","0","54068","","19629","{""Q0"":""True"",""Q1"":""D"",""Q2"":""Only when the screen 'MAKE A CHOICE' is shown"",""Q3"":""Green mark"",""Q4"":""either D or K""}","1","","","","","","","","","","","","","","","","","",""
"","missed_instruction_checkup","","html-keyboard-response","3","59683","0.0-1.0-0.0-2.0-0.0","0","1","54068","","2938","","","32","","","","","","","","","","","","","","","","",""
"","instructions","","instructions","4","77768","0.0-1.0-0.1-0.1","0","0","54068","[{""page_index"":0,""viewing_time"":3156},{""page_index"":1,""viewing_time"":12153},{""page_index"":2,""viewing_time"":1407},{""page_index"":3,""viewing_time"":1368}]","18085","","","","","","","","","","","","","","","","","","","",""
"","comprehension_check","","survey-multi-choice","5","87838","0.0-1.0-0.1-1.1","0","0","54068","","10068","{""Q0"":""True"",""Q1"":""D"",""Q2"":""Once the second image appears and while the screen 'MAKE A CHOICE' is shown"",""Q3"":""Green mark"",""Q4"":""either D or K""}","0","","","","","","","","","","","","","","","","","",""
"","start_exp","","html-keyboard-response","6","90134","0.0-1.0-1.0","0","0","54068","","2294","","","32","","","","","","","","","","","","","","","","",""
"","S1","","html-keyboard-response","7","90387","0.0-1.0-2.0","0","0","54068","","null","","","null","0","","","","","","","","","","","","","","","",""
"","ISI","","html-keyboard-response","8","91388","0.0-1.0-3.0","0","0","54068","","null","","","null","0","NaN","","","","","","","","","","","","","","",""
"","S2","","html-keyboard-response","9","91641","0.0-1.0-4.0","0","0","54068","","null","","","null","0","","NaN","","","","","","","","","","","","","",""
"","response","","html-keyboard-response","10","92326","0.0-1.0-5.0-0.0","0","0","54068","","684","","","75","0","","","1","0","training","adjacent","FE","6","5","N.jpg","P.jpg","0","0","1","",""
"","feedback","","html-keyboard-response","11","93329","0.0-1.0-6.0-0.0","0","0","54068","","null","","","null","0","","","","","","","","","","","","","","","",""
"","ITI","","html-keyboard-response","12","94331","0.0-1.0-9.0","0","0","54068","","null","","","null","0","","","","","","","","","","","","","","","NaN",""
"","S1","","html-keyboard-response","13","94583","0.0-1.0-11.0","0","0","54068","","null","","","null","1","","","","","","","","","","","","","","","",""
"","ISI","","html-keyboard-response","14","95584","0.0-1.0-12.0","0","0","54068","","null","","","null","1","NaN","","","","","","","","","","","","","","",""
"","S2","","html-keyboard-response","15","95836","0.0-1.0-13.0","0","0","54068","","null","","","null","1","","NaN","","","","","","","","","","","","","",""
"","response","","html-keyboard-response","16","96153","0.0-1.0-14.0-0.0","0","0","54068","","316","","","68","1","","","1","1","training","adjacent","CD","3","4","L.jpg","Q.jpg","1","1","1","",""
"","feedback","","html-keyboard-response","17","97155","0.0-1.0-15.0-0.0","0","0","54068","","null","","","null","1","","","","","","","","","","","","","","","",""
"","ITI","","html-keyboard-response","18","98157","0.0-1.0-18.0","0","0","54068","","null","","","null","1","","","","","","","","","","","","","","","NaN",""
"","S1","","html-keyboard-response","19","98409","0.0-1.0-20.0","0","0","54068","","null","","","null","2","","","","","","","","","","","","","","","",""
"","ISI","","html-keyboard-response","20","99411","0.0-1.0-21.0","0","0","54068","","null","","","null","2","NaN","","","","","","","","","","","","","","",""
"","S2","","html-keyboard-response","21","99663","0.0-1.0-22.0","0","0","54068","","null","","","null","2","","NaN","","","","","","","","","","","","","",""
"","response","","html-keyboard-response","22","99690","0.0-1.0-23.0-0.0","0","0","54068","","26","","","75","2","","","1","2","training","adjacent","ED","5","4","P.jpg","Q.jpg","0","0","1","",""
"","feedback","","html-keyboard-response","23","100693","0.0-1.0-24.0-0.0","0","0","54068","","null","","","null","2","","","","","","","","","","","","","","","",""
"","ITI","","html-keyboard-response","24","101695","0.0-1.0-27.0","0","0","54068","","null","","","null","2","","","","","","","","","","","","","","","NaN",""
"","S1","","html-keyboard-response","25","101947","0.0-1.0-29.0","0","0","54068","","null","","","null","3","","","","","","","","","","","","","","","",""
"","ISI","","html-keyboard-response","26","102949","0.0-1.0-30.0","0","0","54068","","null","","","null","3","NaN","","","","","","","","","","","","","","",""
"","S2","","html-keyboard-response","27","103201","0.0-1.0-31.0","0","0","54068","","null","","","null","3","","NaN","","","","","","","","","","","","","",""
"","response","","html-keyboard-response","28","103218","0.0-1.0-32.0-0.0","0","0","54068","","15","","","68","3","","","1","3","training","adjacent","AB","1","2","M.jpg","O.jpg","1","1","1","",""
"","feedback","","html-keyboard-response","29","104220","0.0-1.0-33.0-0.0","0","0","54068","","null","","","null","3","","","","","","","","","","","","","","","",""
"","ITI","","html-keyboard-response","30","105222","0.0-1.0-36.0","0","0","54068","","null","","","null","3","","","","","","","","","","","","","","","NaN",""
"","S1","","html-keyboard-response","31","105474","0.0-1.0-38.0","0","0","54068","","null","","","null","4","","","","","","","","","","","","","","","",""
"","ISI","","html-keyboard-response","32","106477","0.0-1.0-39.0","0","0","54068","","null","","","null","4","NaN","","","","","","","","","","","","","","",""
"","S2","","html-keyboard-response","33","106729","0.0-1.0-40.0","0","0","54068","","null","","","null","4","","NaN","","","","","","","","","","","","","",""
"","response","","html-keyboard-response","34","106755","0.0-1.0-41.0-0.0","0","0","54068","","24","","","75","4","","","1","4","training","adjacent","DE","4","5","Q.jpg","P.jpg","0","1","0","",""
"","feedback","","html-keyboard-response","35","107758","0.0-1.0-42.0-0.0","0","0","54068","","null","","","null","4","","","","","","","","","","","","","","","",""
"","time_out","","html-keyboard-response","36","109759","0.0-1.0-44.0-0.0","0","0","54068","","null","","","null","4","","","","","","","","","","","","","","","",""
"","ITI","","html-keyboard-response","37","110761","0.0-1.0-45.0","0","0","54068","","null","","","null","4","","","","","","","","","","","","","","","NaN",""
"","S1","","html-keyboard-response","38","111013","0.0-1.0-47.0","0","0","54068","","null","","","null","5","","","","","","","","","","","","","","","",""
"","ISI","","html-keyboard-response","39","112015","0.0-1.0-48.0","0","0","54068","","null","","","null","5","NaN","","","","","","","","","","","","","","",""
"","S2","","html-keyboard-response","40","112267","0.0-1.0-49.0","0","0","54068","","null","","","null","5","","NaN","","","","","","","","","","","","","",""
"","response","","html-keyboard-response","41","112362","0.0-1.0-50.0-0.0","0","0","54068","","95","","","68","5","","","1","5","training","adjacent","EF","5","6","P.jpg","N.jpg","1","1","1","",""
"","feedback","","html-keyboard-response","42","113365","0.0-1.0-51.0-0.0","0","0","54068","","null","","","null","5","","","","","","","","","","","","","","","",""
"","ITI","","html-keyboard-response","43","114367","0.0-1.0-54.0","0","0","54068","","null","","","null","5","","","","","","","","","","","","","","","NaN",""
"","S1","","html-keyboard-response","44","114620","0.0-1.0-56.0","0","0","54068","","null","","","null","6","","","","","","","","","","","","","","","",""
"","ISI","","html-keyboard-response","45","115622","0.0-1.0-57.0","0","0","54068","","null","","","null","6","NaN","","","","","","","","","","","","","","",""
"","S2","","html-keyboard-response","46","115874","0.0-1.0-58.0","0","0","54068","","null","","","null","6","","NaN","","","","","","","","","","","","","",""
"","response","","html-keyboard-response","47","116253","0.0-1.0-59.0-0.0","0","0","54068","","377","","","75","6","","","1","6","training","adjacent","CB","3","2","L.jpg","O.jpg","0","0","1","",""
"","feedback","","html-keyboard-response","48","117255","0.0-1.0-60.0-0.0","0","0","54068","","null","","","null","6","","","","","","","","","","","","","","","",""
"","ITI","","html-keyboard-response","49","118257","0.0-1.0-63.0","0","0","54068","","null","","","null","6","","","","","","","","","","","","","","","NaN",""
"","S1","","html-keyboard-response","50","118508","0.0-1.0-65.0","0","0","54068","","null","","","null","7","","","","","","","","","","","","","","","",""
"","ISI","","html-keyboard-response","51","119510","0.0-1.0-66.0","0","0","54068","","null","","","null","7","NaN","","","","","","","","","","","","","","",""
"","S2","","html-keyboard-response","52","119762","0.0-1.0-67.0","0","0","54068","","null","","","null","7","","NaN","","","","","","","","","","","","","",""
"","response","","html-keyboard-response","53","119918","0.0-1.0-68.0-0.0","0","0","54068","","155","","","68","7","","","1","7","training","adjacent","DC","4","3","Q.jpg","L.jpg","1","0","0","",""
"","feedback","","html-keyboard-response","54","120921","0.0-1.0-69.0-0.0","0","0","54068","","null","","","null","7","","","","","","","","","","","","","","","",""
"","time_out","","html-keyboard-response","55","122922","0.0-1.0-71.0-0.0","0","0","54068","","null","","","null","7","","","","","","","","","","","","","","","",""
"","ITI","","html-keyboard-response","56","123925","0.0-1.0-72.0","0","0","54068","","null","","","null","7","","","","","","","","","","","","","","","NaN",""
"","S1","","html-keyboard-response","57","124177","0.0-1.0-74.0","0","0","54068","","null","","","null","8","","","","","","","","","","","","","","","",""
"","ISI","","html-keyboard-response","58","125178","0.0-1.0-75.0","0","0","54068","","null","","","null","8","NaN","","","","","","","","","","","","","","",""
"","S2","","html-keyboard-response","59","125430","0.0-1.0-76.0","0","0","54068","","null","","","null","8","","NaN","","","","","","","","","","","","","",""
"","response","","html-keyboard-response","60","125644","0.0-1.0-77.0-0.0","0","0","54068","","212","","","75","8","","","1","8","training","adjacent","GF","7","6","R.jpg","N.jpg","0","0","1","",""
"","feedback","","html-keyboard-response","61","126647","0.0-1.0-78.0-0.0","0","0","54068","","null","","","null","8","","","","","","","","","","","","","","","",""
"","ITI","","html-keyboard-response","62","127650","0.0-1.0-81.0","0","0","54068","","null","","","null","8","","","","","","","","","","","","","","","NaN",""
"","S1","","html-keyboard-response","63","127902","0.0-1.0-83.0","0","0","54068","","null","","","null","9","","","","","","","","","","","","","","","",""
"","ISI","","html-keyboard-response","64","128903","0.0-1.0-84.0","0","0","54068","","null","","","null","9","NaN","","","","","","","","","","","","","","",""
"","S2","","html-keyboard-response","65","129156","0.0-1.0-85.0","0","0","54068","","null","","","null","9","","NaN","","","","","","","","","","","","","",""
"","response","","html-keyboard-response","66","129363","0.0-1.0-86.0-0.0","0","0","54068","","205","","","68","9","","","1","9","training","adjacent","EF","5","6","P.jpg","N.jpg","1","1","1","",""
"","feedback","","html-keyboard-response","67","130365","0.0-1.0-87.0-0.0","0","0","54068","","null","","","null","9","","","","","","","","","","","","","","","",""
"","ITI","","html-keyboard-response","68","131366","0.0-1.0-90.0","0","0","54068","","null","","","null","9","","","","","","","","","","","","","","","NaN",""
"","S1","","html-keyboard-response","69","131619","0.0-1.0-92.0","0","0","54068","","null","","","null","10","","","","","","","","","","","","","","","",""
"","ISI","","html-keyboard-response","70","132621","0.0-1.0-93.0","0","0","54068","","null","","","null","10","NaN","","","","","","","","","","","","","","",""
"","S2","","html-keyboard-response","71","132874","0.0-1.0-94.0","0","0","54068","","null","","","null","10","","NaN","","","","","","","","","","","","","",""
"","response","","html-keyboard-response","72","133040","0.0-1.0-95.0-0.0","0","0","54068","","164","","","75","10","","","1","10","training","adjacent","ED","5","4","P.jpg","Q.jpg","0","0","1","",""
"","feedback","","html-keyboard-response","73","134041","0.0-1.0-96.0-0.0","0","0","54068","","null","","","null","10","","","","","","","","","","","","","","","",""
"","ITI","","html-keyboard-response","74","135043","0.0-1.0-99.0","0","0","54068","","null","","","null","10","","","","","","","","","","","","","","","NaN",""
"","S1","","html-keyboard-response","75","135295","0.0-1.0-101.0","0","0","54068","","null","","","null","11","","","","","","","","","","","","","","","",""
"","ISI","","html-keyboard-response","76","136297","0.0-1.0-102.0","0","0","54068","","null","","","null","11","NaN","","","","","","","","","","","","","","",""
"","S2","","html-keyboard-response","77","136548","0.0-1.0-103.0","0","0","54068","","null","","","null","11","","NaN","","","","","","","","","","","","","",""
"","response","","html-keyboard-response","78","136844","0.0-1.0-104.0-0.0","0","0","54068","","294","","","68","11","","","1","11","training","adjacent","CD","3","4","L.jpg","Q.jpg","1","1","1","",""
"","feedback","","html-keyboard-response","79","137847","0.0-1.0-105.0-0.0","0","0","54068","","null","","","null","11","","","","","","","","","","","","","","","",""
"","ITI","","html-keyboard-response","80","138849","0.0-1.0-108.0","0","0","54068","","null","","","null","11","","","","","","","","","","","","","","","NaN",""
"","S1","","html-keyboard-response","81","139101","0.0-1.0-110.0","0","0","54068","","null","","","null","12","","","","","","","","","","","","","","","",""
"","ISI","","html-keyboard-response","82","140103","0.0-1.0-111.0","0","0","54068","","null","","","null","12","NaN","","","","","","","","","","","","","","",""
"","S2","","html-keyboard-response","83","140356","0.0-1.0-112.0","0","0","54068","","null","","","null","12","","NaN","","","","","","","","","","","","","",""
"","response","","html-keyboard-response","84","140489","0.0-1.0-113.0-0.0","0","0","54068","","133","","","75","12","","","1","12","training","adjacent","AB","1","2","M.jpg","O.jpg","0","1","0","",""
"","feedback","","html-keyboard-response","85","141492","0.0-1.0-114.0-0.0","0","0","54068","","null","","","null","12","","","","","","","","","","","","","","","",""
"","time_out","","html-keyboard-response","86","143494","0.0-1.0-116.0-0.0","0","0","54068","","null","","","null","12","","","","","","","","","","","","","","","",""
"","ITI","","html-keyboard-response","87","144496","0.0-1.0-117.0","0","0","54068","","null","","","null","12","","","","","","","","","","","","","","","NaN",""
"","S1","","html-keyboard-response","88","144749","0.0-1.0-119.0","0","0","54068","","null","","","null","13","","","","","","","","","","","","","","","",""
"","ISI","","html-keyboard-response","89","145750","0.0-1.0-120.0","0","0","54068","","null","","","null","13","NaN","","","","","","","","","","","","","","",""
"","S2","","html-keyboard-response","90","146003","0.0-1.0-121.0","0","0","54068","","null","","","null","13","","NaN","","","","","","","","","","","","","",""
"","response","","html-keyboard-response","91","146369","0.0-1.0-122.0-0.0","0","0","54068","","364","","","68","13","","","1","13","training","adjacent","FE","6","5","N.jpg","P.jpg","1","0","0","",""
"","feedback","","html-keyboard-response","92","147371","0.0-1.0-123.0-0.0","0","0","54068","","null","","","null","13","","","","","","","","","","","","","","","",""
"","time_out","","html-keyboard-response","93","149373","0.0-1.0-125.0-0.0","0","0","54068","","null","","","null","13","","","","","","","","","","","","","","","",""
"","ITI","","html-keyboard-response","94","150374","0.0-1.0-126.0","0","0","54068","","null","","","null","13","","","","","","","","","","","","","","","NaN",""
"","S1","","html-keyboard-response","95","150626","0.0-1.0-128.0","0","0","54068","","null","","","null","14","","","","","","","","","","","","","","","",""
"","ISI","","html-keyboard-response","96","151628","0.0-1.0-129.0","0","0","54068","","null","","","null","14","NaN","","","","","","","","","","","","","","",""
"","S2","","html-keyboard-response","97","151880","0.0-1.0-130.0","0","0","54068","","null","","","null","14","","NaN","","","","","","","","","","","","","",""
"","response","","html-keyboard-response","98","152169","0.0-1.0-131.0-0.0","0","0","54068","","289","","","75","14","","","1","14","training","adjacent","CB","3","2","L.jpg","O.jpg","0","0","1","",""
"","feedback","","html-keyboard-response","99","153171","0.0-1.0-132.0-0.0","0","0","54068","","null","","","null","14","","","","","","","","","","","","","","","",""
"","ITI","","html-keyboard-response","100","154173","0.0-1.0-135.0","0","0","54068","","null","","","null","14","","","","","","","","","","","","","","","NaN",""
"","S1","","html-keyboard-response","101","154425","0.0-1.0-137.0","0","0","54068","","null","","","null","15","","","","","","","","","","","","","","","",""
"","ISI","","html-keyboard-response","102","155427","0.0-1.0-138.0","0","0","54068","","null","","","null","15","NaN","","","","","","","","","","","","","","",""
"","S2","","html-keyboard-response","103","155680","0.0-1.0-139.0","0","0","54068","","null","","","null","15","","NaN","","","","","","","","","","","","","",""
"","response","","html-keyboard-response","104","156220","0.0-1.0-140.0-0.0","0","0","54068","","539","","","68","15","","","1","15","training","adjacent","DC","4","3","Q.jpg","L.jpg","1","0","0","",""
"","feedback","","html-keyboard-response","105","157222","0.0-1.0-141.0-0.0","0","0","54068","","null","","","null","15","","","","","","","","","","","","","","","",""
"","time_out","","html-keyboard-response","106","159224","0.0-1.0-143.0-0.0","0","0","54068","","null","","","null","15","","","","","","","","","","","","","","","",""
"","ITI","","html-keyboard-response","107","160226","0.0-1.0-144.0","0","0","54068","","null","","","null","15","","","","","","","","","","","","","","","NaN",""
"","S1","","html-keyboard-response","108","160479","0.0-1.0-146.0","0","0","54068","","null","","","null","16","","","","","","","","","","","","","","","",""
"","ISI","","html-keyboard-response","109","161481","0.0-1.0-147.0","0","0","54068","","null","","","null","16","NaN","","","","","","","","","","","","","","",""
"","S2","","html-keyboard-response","110","161733","0.0-1.0-148.0","0","0","54068","","null","","","null","16","","NaN","","","","","","","","","","","","","",""
"","response","","html-keyboard-response","111","161914","0.0-1.0-149.0-0.0","0","0","54068","","180","","","75","16","","","1","16","training","adjacent","EF","5","6","P.jpg","N.jpg","0","1","0","",""
"","feedback","","html-keyboard-response","112","162916","0.0-1.0-150.0-0.0","0","0","54068","","null","","","null","16","","","","","","","","","","","","","","","",""
"","time_out","","html-keyboard-response","113","164918","0.0-1.0-152.0-0.0","0","0","54068","","null","","","null","16","","","","","","","","","","","","","","","",""
"","ITI","","html-keyboard-response","114","165920","0.0-1.0-153.0","0","0","54068","","null","","","null","16","","","","","","","","","","","","","","","NaN",""
"","S1","","html-keyboard-response","115","166172","0.0-1.0-155.0","0","0","54068","","null","","","null","17","","","","","","","","","","","","","","","",""
"","ISI","","html-keyboard-response","116","167173","0.0-1.0-156.0","0","0","54068","","null","","","null","17","NaN","","","","","","","","","","","","","","",""
"","S2","","html-keyboard-response","117","167425","0.0-1.0-157.0","0","0","54068","","null","","","null","17","","NaN","","","","","","","","","","","","","",""
"","response","","html-keyboard-response","118","167659","0.0-1.0-158.0-0.0","0","0","54068","","234","","","68","17","","","1","17","training","adjacent","BA","2","1","O.jpg","M.jpg","1","0","0","",""
"","feedback","","html-keyboard-response","119","168661","0.0-1.0-159.0-0.0","0","0","54068","","null","","","null","17","","","","","","","","","","","","","","","",""
"","time_out","","html-keyboard-response","120","170663","0.0-1.0-161.0-0.0","0","0","54068","","null","","","null","17","","","","","","","","","","","","","","","",""
"","ITI","","html-keyboard-response","121","171665","0.0-1.0-162.0","0","0","54068","","null","","","null","17","","","","","","","","","","","","","","","NaN",""
"","S1","","html-keyboard-response","122","171917","0.0-1.0-164.0","0","0","54068","","null","","","null","18","","","","","","","","","","","","","","","",""
"","ISI","","html-keyboard-response","123","172919","0.0-1.0-165.0","0","0","54068","","null","","","null","18","NaN","","","","","","","","","","","","","","",""
"","S2","","html-keyboard-response","124","173172","0.0-1.0-166.0","0","0","54068","","null","","","null","18","","NaN","","","","","","","","","","","","","",""
"","response","","html-keyboard-response","125","173235","0.0-1.0-167.0-0.0","0","0","54068","","63","","","75","18","","","1","18","training","adjacent","CD","3","4","L.jpg","Q.jpg","0","1","0","",""
"","feedback","","html-keyboard-response","126","174238","0.0-1.0-168.0-0.0","0","0","54068","","null","","","null","18","","","","","","","","","","","","","","","",""
"","time_out","","html-keyboard-response","127","176239","0.0-1.0-170.0-0.0","0","0","54068","","null","","","null","18","","","","","","","","","","","","","","","",""
"","ITI","","html-keyboard-response","128","177241","0.0-1.0-171.0","0","0","54068","","null","","","null","18","","","","","","","","","","","","","","","NaN",""
"","S1","","html-keyboard-response","129","177492","0.0-1.0-173.0","0","0","54068","","null","","","null","19","","","","","","","","","","","","","","","",""
"","ISI","","html-keyboard-response","130","178494","0.0-1.0-174.0","0","0","54068","","null","","","null","19","NaN","","","","","","","","","","","","","","",""
"","S2","","html-keyboard-response","131","178747","0.0-1.0-175.0","0","0","54068","","null","","","null","19","","NaN","","","","","","","","","","","","","",""
"","response","","html-keyboard-response","132","178919","0.0-1.0-176.0-0.0","0","0","54068","","171","","","68","19","","","1","19","training","adjacent","CB","3","2","L.jpg","O.jpg","1","0","0","",""
"","feedback","","html-keyboard-response","133","179921","0.0-1.0-177.0-0.0","0","0","54068","","null","","","null","19","","","","","","","","","","","","","","","",""
"","time_out","","html-keyboard-response","134","181923","0.0-1.0-179.0-0.0","0","0","54068","","null","","","null","19","","","","","","","","","","","","","","","",""
"","ITI","","html-keyboard-response","135","182924","0.0-1.0-180.0","0","0","54068","","null","","","null","19","","","","","","","","","","","","","","","NaN",""
"","S1","","html-keyboard-response","136","183176","0.0-1.0-182.0","0","0","54068","","null","","","null","20","","","","","","","","","","","","","","","",""
"","ISI","","html-keyboard-response","137","184178","0.0-1.0-183.0","0","0","54068","","null","","","null","20","NaN","","","","","","","","","","","","","","",""
"","S2","","html-keyboard-response","138","184430","0.0-1.0-184.0","0","0","54068","","null","","","null","20","","NaN","","","","","","","","","","","","","",""
"","response","","html-keyboard-response","139","184784","0.0-1.0-185.0-0.0","0","0","54068","","353","","","75","20","","","1","20","training","adjacent","FE","6","5","N.jpg","P.jpg","0","0","1","",""
"","feedback","","html-keyboard-response","140","185786","0.0-1.0-186.0-0.0","0","0","54068","","null","","","null","20","","","","","","","","","","","","","","","",""
"","ITI","","html-keyboard-response","141","186788","0.0-1.0-189.0","0","0","54068","","null","","","null","20","","","","","","","","","","","","","","","NaN",""
"","S1","","html-keyboard-response","142","187041","0.0-1.0-191.0","0","0","54068","","null","","","null","21","","","","","","","","","","","","","","","",""
"","ISI","","html-keyboard-response","143","188042","0.0-1.0-192.0","0","0","54068","","null","","","null","21","NaN","","","","","","","","","","","","","","",""
"","S2","","html-keyboard-response","144","188295","0.0-1.0-193.0","0","0","54068","","null","","","null","21","","NaN","","","","","","","","","","","","","",""
"","response","","html-keyboard-response","145","188333","0.0-1.0-194.0-0.0","0","0","54068","","37","","","68","21","","","1","21","training","adjacent","BA","2","1","O.jpg","M.jpg","1","0","0","",""
"","feedback","","html-keyboard-response","146","189335","0.0-1.0-195.0-0.0","0","0","54068","","null","","","null","21","","","","","","","","","","","","","","","",""
"","time_out","","html-keyboard-response","147","191338","0.0-1.0-197.0-0.0","0","0","54068","","null","","","null","21","","","","","","","","","","","","","","","",""
"","ITI","","html-keyboard-response","148","192339","0.0-1.0-198.0","0","0","54068","","null","","","null","21","","","","","","","","","","","","","","","NaN",""
"","S1","","html-keyboard-response","149","192592","0.0-1.0-200.0","0","0","54068","","null","","","null","22","","","","","","","","","","","","","","","",""
"","ISI","","html-keyboard-response","150","193594","0.0-1.0-201.0","0","0","54068","","null","","","null","22","NaN","","","","","","","","","","","","","","",""
"","S2","","html-keyboard-response","151","193846","0.0-1.0-202.0","0","0","54068","","null","","","null","22","","NaN","","","","","","","","","","","","","",""
"","response","","html-keyboard-response","152","194006","0.0-1.0-203.0-0.0","0","0","54068","","158","","","75","22","","","1","22","training","adjacent","GF","7","6","R.jpg","N.jpg","0","0","1","",""
"","feedback","","html-keyboard-response","153","195009","0.0-1.0-204.0-0.0","0","0","54068","","null","","","null","22","","","","","","","","","","","","","","","",""
"","ITI","","html-keyboard-response","154","196011","0.0-1.0-207.0","0","0","54068","","null","","","null","22","","","","","","","","","","","","","","","NaN",""
"","S1","","html-keyboard-response","155","196264","0.0-1.0-209.0","0","0","54068","","null","","","null","23","","","","","","","","","","","","","","","",""
"","ISI","","html-keyboard-response","156","197265","0.0-1.0-210.0","0","0","54068","","null","","","null","23","NaN","","","","","","","","","","","","","","",""
"","S2","","html-keyboard-response","157","197518","0.0-1.0-211.0","0","0","54068","","null","","","null","23","","NaN","","","","","","","","","","","","","",""
"","response","","html-keyboard-response","158","197725","0.0-1.0-212.0-0.0","0","0","54068","","206","","","68","23","","","1","23","training","adjacent","GF","7","6","R.jpg","N.jpg","1","0","0","",""
"","feedback","","html-keyboard-response","159","198727","0.0-1.0-213.0-0.0","0","0","54068","","null","","","null","23","","","","","","","","","","","","","","","",""
"","time_out","","html-keyboard-response","160","200728","0.0-1.0-215.0-0.0","0","0","54068","","null","","","null","23","","","","","","","","","","","","","","","",""
"","ITI","","html-keyboard-response","161","201730","0.0-1.0-216.0","0","0","54068","","null","","","null","23","","","","","","","","","","","","","","","NaN",""
"","S1","","html-keyboard-response","162","201982","0.0-1.0-218.0","0","0","54068","","null","","","null","24","","","","","","","","","","","","","","","",""
"","ISI","","html-keyboard-response","163","202983","0.0-1.0-219.0","0","0","54068","","null","","","null","24","NaN","","","","","","","","","","","","","","",""
"","S2","","html-keyboard-response","164","203235","0.0-1.0-220.0","0","0","54068","","null","","","null","24","","NaN","","","","","","","","","","","","","",""
"","response","","html-keyboard-response","165","203431","0.0-1.0-221.0-0.0","0","0","54068","","194","","","75","24","","","1","24","training","adjacent","FG","6","7","N.jpg","R.jpg","0","1","0","",""
"","feedback","","html-keyboard-response","166","204433","0.0-1.0-222.0-0.0","0","0","54068","","null","","","null","24","","","","","","","","","","","","","","","",""
"","time_out","","html-keyboard-response","167","206435","0.0-1.0-224.0-0.0","0","0","54068","","null","","","null","24","","","","","","","","","","","","","","","",""
"","ITI","","html-keyboard-response","168","207437","0.0-1.0-225.0","0","0","54068","","null","","","null","24","","","","","","","","","","","","","","","NaN",""
"","S1","","html-keyboard-response","169","207689","0.0-1.0-227.0","0","0","54068","","null","","","null","25","","","","","","","","","","","","","","","",""
"","ISI","","html-keyboard-response","170","208691","0.0-1.0-228.0","0","0","54068","","null","","","null","25","NaN","","","","","","","","","","","","","","",""
"","S2","","html-keyboard-response","171","208943","0.0-1.0-229.0","0","0","54068","","null","","","null","25","","NaN","","","","","","","","","","","","","",""
"","response","","html-keyboard-response","172","208953","0.0-1.0-230.0-0.0","0","0","54068","","8","","","75","25","","","1","25","training","adjacent","BC","2","3","O.jpg","L.jpg","0","1","0","",""
"","feedback","","html-keyboard-response","173","209955","0.0-1.0-231.0-0.0","0","0","54068","","null","","","null","25","","","","","","","","","","","","","","","",""
"","time_out","","html-keyboard-response","174","211957","0.0-1.0-233.0-0.0","0","0","54068","","null","","","null","25","","","","","","","","","","","","","","","",""
"","ITI","","html-keyboard-response","175","212960","0.0-1.0-234.0","0","0","54068","","null","","","null","25","","","","","","","","","","","","","","","NaN",""
"","S1","","html-keyboard-response","176","213212","0.0-1.0-236.0","0","0","54068","","null","","","null","26","","","","","","","","","","","","","","","",""
"","ISI","","html-keyboard-response","177","214215","0.0-1.0-237.0","0","0","54068","","null","","","null","26","NaN","","","","","","","","","","","","","","",""
"","S2","","html-keyboard-response","178","214467","0.0-1.0-238.0","0","0","54068","","null","","","null","26","","NaN","","","","","","","","","","","","","",""
"","response","","html-keyboard-response","179","214552","0.0-1.0-239.0-0.0","0","0","54068","","84","","","68","26","","","1","26","training","adjacent","BC","2","3","O.jpg","L.jpg","1","1","1","",""
"","feedback","","html-keyboard-response","180","215554","0.0-1.0-240.0-0.0","0","0","54068","","null","","","null","26","","","","","","","","","","","","","","","",""
"","ITI","","html-keyboard-response","181","216556","0.0-1.0-243.0","0","0","54068","","null","","","null","26","","","","","","","","","","","","","","","NaN",""
"","S1","","html-keyboard-response","182","216808","0.0-1.0-245.0","0","0","54068","","null","","","null","27","","","","","","","","","","","","","","","",""
"","ISI","","html-keyboard-response","183","217811","0.0-1.0-246.0","0","0","54068","","null","","","null","27","NaN","","","","","","","","","","","","","","",""
"","S2","","html-keyboard-response","184","218063","0.0-1.0-247.0","0","0","54068","","null","","","null","27","","NaN","","","","","","","","","","","","","",""
"","response","","html-keyboard-response","185","218111","0.0-1.0-248.0-0.0","0","0","54068","","47","","","75","27","","","1","27","training","adjacent","ED","5","4","P.jpg","Q.jpg","0","0","1","",""
"","feedback","","html-keyboard-response","186","219114","0.0-1.0-249.0-0.0","0","0","54068","","null","","","null","27","","","","","","","","","","","","","","","",""
"","ITI","","html-keyboard-response","187","220115","0.0-1.0-252.0","0","0","54068","","null","","","null","27","","","","","","","","","","","","","","","NaN",""
"","S1","","html-keyboard-response","188","220367","0.0-1.0-254.0","0","0","54068","","null","","","null","28","","","","","","","","","","","","","","","",""
"","ISI","","html-keyboard-response","189","221369","0.0-1.0-255.0","0","0","54068","","null","","","null","28","NaN","","","","","","","","","","","","","","",""
"","S2","","html-keyboard-response","190","221621","0.0-1.0-256.0","0","0","54068","","null","","","null","28","","NaN","","","","","","","","","","","","","",""
"","response","","html-keyboard-response","191","221671","0.0-1.0-257.0-0.0","0","0","54068","","49","","","68","28","","","1","28","training","adjacent","FG","6","7","N.jpg","R.jpg","1","1","1","",""
"","feedback","","html-keyboard-response","192","222672","0.0-1.0-258.0-0.0","0","0","54068","","null","","","null","28","","","","","","","","","","","","","","","",""
"","ITI","","html-keyboard-response","193","223674","0.0-1.0-261.0","0","0","54068","","null","","","null","28","","","","","","","","","","","","","","","NaN",""
"","S1","","html-keyboard-response","194","223926","0.0-1.0-263.0","0","0","54068","","null","","","null","29","","","","","","","","","","","","","","","",""
"","ISI","","html-keyboard-response","195","224928","0.0-1.0-264.0","0","0","54068","","null","","","null","29","NaN","","","","","","","","","","","","","","",""
"","S2","","html-keyboard-response","196","225180","0.0-1.0-265.0","0","0","54068","","null","","","null","29","","NaN","","","","","","","","","","","","","",""
"","response","","html-keyboard-response","197","225209","0.0-1.0-266.0-0.0","0","0","54068","","28","","","75","29","","","1","29","training","adjacent","BA","2","1","O.jpg","M.jpg","0","0","1","",""
"","feedback","","html-keyboard-response","198","226211","0.0-1.0-267.0-0.0","0","0","54068","","null","","","null","29","","","","","","","","","","","","","","","",""
"","ITI","","html-keyboard-response","199","227213","0.0-1.0-270.0","0","0","54068","","null","","","null","29","","","","","","","","","","","","","","","NaN",""
"","S1","","html-keyboard-response","200","227465","0.0-1.0-272.0","0","0","54068","","null","","","null","30","","","","","","","","","","","","","","","",""
"","ISI","","html-keyboard-response","201","228467","0.0-1.0-273.0","0","0","54068","","null","","","null","30","NaN","","","","","","","","","","","","","","",""
"","S2","","html-keyboard-response","202","228720","0.0-1.0-274.0","0","0","54068","","null","","","null","30","","NaN","","","","","","","","","","","","","",""
"","response","","html-keyboard-response","203","228747","0.0-1.0-275.0-0.0","0","0","54068","","26","","","68","30","","","1","30","training","adjacent","BC","2","3","O.jpg","L.jpg","1","1","1","",""
"","feedback","","html-keyboard-response","204","229748","0.0-1.0-276.0-0.0","0","0","54068","","null","","","null","30","","","","","","","","","","","","","","","",""
"","ITI","","html-keyboard-response","205","230750","0.0-1.0-279.0","0","0","54068","","null","","","null","30","","","","","","","","","","","","","","","NaN",""
"","S1","","html-keyboard-response","206","231002","0.0-1.0-281.0","0","0","54068","","null","","","null","31","","","","","","","","","","","","","","","",""
"","ISI","","html-keyboard-response","207","232004","0.0-1.0-282.0","0","0","54068","","null","","","null","31","NaN","","","","","","","","","","","","","","",""
"","S2","","html-keyboard-response","208","232257","0.0-1.0-283.0","0","0","54068","","null","","","null","31","","NaN","","","","","","","","","","","","","",""
"","response","","html-keyboard-response","209","232276","0.0-1.0-284.0-0.0","0","0","54068","","18","","","75","31","","","1","31","training","adjacent","AB","1","2","M.jpg","O.jpg","0","1","0","",""
"","feedback","","html-keyboard-response","210","233278","0.0-1.0-285.0-0.0","0","0","54068","","null","","","null","31","","","","","","","","","","","","","","","",""
"","time_out","","html-keyboard-response","211","235279","0.0-1.0-287.0-0.0","0","0","54068","","null","","","null","31","","","","","","","","","","","","","","","",""
"","ITI","","html-keyboard-response","212","236282","0.0-1.0-288.0","0","0","54068","","null","","","null","31","","","","","","","","","","","","","","","NaN",""
"","S1","","html-keyboard-response","213","236534","0.0-1.0-290.0","0","0","54068","","null","","","null","32","","","","","","","","","","","","","","","",""
"","ISI","","html-keyboard-response","214","237537","0.0-1.0-291.0","0","0","54068","","null","","","null","32","NaN","","","","","","","","","","","","","","",""
"","S2","","html-keyboard-response","215","237789","0.0-1.0-292.0","0","0","54068","","null","","","null","32","","NaN","","","","","","","","","","","","","",""
"","response","","html-keyboard-response","216","237906","0.0-1.0-293.0-0.0","0","0","54068","","116","","","68","32","","","1","32","training","adjacent","DE","4","5","Q.jpg","P.jpg","1","1","1","",""
"","feedback","","html-keyboard-response","217","238907","0.0-1.0-294.0-0.0","0","0","54068","","null","","","null","32","","","","","","","","","","","","","","","",""
"","ITI","","html-keyboard-response","218","239910","0.0-1.0-297.0","0","0","54068","","null","","","null","32","","","","","","","","","","","","","","","NaN",""
"","S1","","html-keyboard-response","219","240162","0.0-1.0-299.0","0","0","54068","","null","","","null","33","","","","","","","","","","","","","","","",""
"","ISI","","html-keyboard-response","220","241165","0.0-1.0-300.0","0","0","54068","","null","","","null","33","NaN","","","","","","","","","","","","","","",""
"","S2","","html-keyboard-response","221","241416","0.0-1.0-301.0","0","0","54068","","null","","","null","33","","NaN","","","","","","","","","","","","","",""
"","response","","html-keyboard-response","222","241679","0.0-1.0-302.0-0.0","0","0","54068","","262","","","75","33","","","1","33","training","adjacent","EF","5","6","P.jpg","N.jpg","0","1","0","",""
"","feedback","","html-keyboard-response","223","242682","0.0-1.0-303.0-0.0","0","0","54068","","null","","","null","33","","","","","","","","","","","","","","","",""
"","time_out","","html-keyboard-response","224","244683","0.0-1.0-305.0-0.0","0","0","54068","","null","","","null","33","","","","","","","","","","","","","","","",""
"","ITI","","html-keyboard-response","225","245685","0.0-1.0-306.0","0","0","54068","","null","","","null","33","","","","","","","","","","","","","","","NaN",""
"","S1","","html-keyboard-response","226","245937","0.0-1.0-308.0","0","0","54068","","null","","","null","34","","","","","","","","","","","","","","","",""
"","ISI","","html-keyboard-response","227","246938","0.0-1.0-309.0","0","0","54068","","null","","","null","34","NaN","","","","","","","","","","","","","","",""
"","S2","","html-keyboard-response","228","247191","0.0-1.0-310.0","0","0","54068","","null","","","null","34","","NaN","","","","","","","","","","","","","",""
"","response","","html-keyboard-response","229","247213","0.0-1.0-311.0-0.0","0","0","54068","","20","","","68","34","","","1","34","training","adjacent","FG","6","7","N.jpg","R.jpg","1","1","1","",""
"","feedback","","html-keyboard-response","230","248215","0.0-1.0-312.0-0.0","0","0","54068","","null","","","null","34","","","","","","","","","","","","","","","",""
"","ITI","","html-keyboard-response","231","249217","0.0-1.0-315.0","0","0","54068","","null","","","null","34","","","","","","","","","","","","","","","NaN",""
"","S1","","html-keyboard-response","232","249469","0.0-1.0-317.0","0","0","54068","","null","","","null","35","","","","","","","","","","","","","","","",""
"","ISI","","html-keyboard-response","233","250471","0.0-1.0-318.0","0","0","54068","","null","","","null","35","NaN","","","","","","","","","","","","","","",""
"","S2","","html-keyboard-response","234","250723","0.0-1.0-319.0","0","0","54068","","null","","","null","35","","NaN","","","","","","","","","","","","","",""
"","response","","html-keyboard-response","235","250954","0.0-1.0-320.0-0.0","0","0","54068","","231","","","75","35","","","1","35","training","adjacent","AB","1","2","M.jpg","O.jpg","0","1","0","",""
"","feedback","","html-keyboard-response","236","251957","0.0-1.0-321.0-0.0","0","0","54068","","null","","","null","35","","","","","","","","","","","","","","","",""
"","time_out","","html-keyboard-response","237","253959","0.0-1.0-323.0-0.0","0","0","54068","","null","","","null","35","","","","","","","","","","","","","","","",""
"","ITI","","html-keyboard-response","238","254961","0.0-1.0-324.0","0","0","54068","","null","","","null","35","","","","","","","","","","","","","","","NaN",""
"","S1","","html-keyboard-response","239","255214","0.0-1.0-326.0","0","0","54068","","null","","","null","36","","","","","","","","","","","","","","","",""
"","ISI","","html-keyboard-response","240","256216","0.0-1.0-327.0","0","0","54068","","null","","","null","36","NaN","","","","","","","","","","","","","","",""
"","S2","","html-keyboard-response","241","256468","0.0-1.0-328.0","0","0","54068","","null","","","null","36","","NaN","","","","","","","","","","","","","",""
"","response","","html-keyboard-response","242","256511","0.0-1.0-329.0-0.0","0","0","54068","","42","","","68","36","","","1","36","training","adjacent","DE","4","5","Q.jpg","P.jpg","1","1","1","",""
"","feedback","","html-keyboard-response","243","257513","0.0-1.0-330.0-0.0","0","0","54068","","null","","","null","36","","","","","","","","","","","","","","","",""
"","ITI","","html-keyboard-response","244","258515","0.0-1.0-333.0","0","0","54068","","null","","","null","36","","","","","","","","","","","","","","","NaN",""
"","S1","","html-keyboard-response","245","258768","0.0-1.0-335.0","0","0","54068","","null","","","null","37","","","","","","","","","","","","","","","",""
"","ISI","","html-keyboard-response","246","259770","0.0-1.0-336.0","0","0","54068","","null","","","null","37","NaN","","","","","","","","","","","","","","",""
"","S2","","html-keyboard-response","247","260022","0.0-1.0-337.0","0","0","54068","","null","","","null","37","","NaN","","","","","","","","","","","","","",""
"","response","","html-keyboard-response","248","260679","0.0-1.0-338.0-0.0","0","0","54068","","657","","","75","37","","","1","37","training","adjacent","ED","5","4","P.jpg","Q.jpg","0","0","1","",""
"","feedback","","html-keyboard-response","249","261681","0.0-1.0-339.0-0.0","0","0","54068","","null","","","null","37","","","","","","","","","","","","","","","",""
"","ITI","","html-keyboard-response","250","262684","0.0-1.0-342.0","0","0","54068","","null","","","null","37","","","","","","","","","","","","","","","NaN",""
"","S1","","html-keyboard-response","251","262936","0.0-1.0-344.0","0","0","54068","","null","","","null","38","","","","","","","","","","","","","","","",""
"","ISI","","html-keyboard-response","252","263939","0.0-1.0-345.0","0","0","54068","","null","","","null","38","NaN","","","","","","","","","","","","","","",""
"","S2","","html-keyboard-response","253","264191","0.0-1.0-346.0","0","0","54068","","null","","","null","38","","NaN","","","","","","","","","","","","","",""
"","response","","html-keyboard-response","254","265179","0.0-1.0-347.0-0.0","0","0","54068","","987","","","68","38","","","1","38","training","adjacent","DC","4","3","Q.jpg","L.jpg","1","0","0","",""
"","feedback","","html-keyboard-response","255","266181","0.0-1.0-348.0-0.0","0","0","54068","","null","","","null","38","","","","","","","","","","","","","","","",""
"","time_out","","html-keyboard-response","256","268183","0.0-1.0-350.0-0.0","0","0","54068","","null","","","null","38","","","","","","","","","","","","","","","",""
"","ITI","","html-keyboard-response","257","269185","0.0-1.0-351.0","0","0","54068","","null","","","null","38","","","","","","","","","","","","","","","NaN",""
"","S1","","html-keyboard-response","258","269437","0.0-1.0-353.0","0","0","54068","","null","","","null","39","","","","","","","","","","","","","","","",""
"","ISI","","html-keyboard-response","259","270440","0.0-1.0-354.0","0","0","54068","","null","","","null","39","NaN","","","","","","","","","","","","","","",""
"","S2","","html-keyboard-response","260","270693","0.0-1.0-355.0","0","0","54068","","null","","","null","39","","NaN","","","","","","","","","","","","","",""
"","response","","html-keyboard-response","261","270862","0.0-1.0-356.0-0.0","0","0","54068","","169","","","75","39","","","1","39","training","adjacent","CD","3","4","L.jpg","Q.jpg","0","1","0","",""
"","feedback","","html-keyboard-response","262","271865","0.0-1.0-357.0-0.0","0","0","54068","","null","","","null","39","","","","","","","","","","","","","","","",""
"","time_out","","html-keyboard-response","263","273867","0.0-1.0-359.0-0.0","0","0","54068","","null","","","null","39","","","","","","","","","","","","","","","",""
"","ITI","","html-keyboard-response","264","274869","0.0-1.0-360.0","0","0","54068","","null","","","null","39","","","","","","","","","","","","","","","NaN",""
"","S1","","html-keyboard-response","265","275122","0.0-1.0-362.0","0","0","54068","","null","","","null","40","","","","","","","","","","","","","","","",""
"","ISI","","html-keyboard-response","266","276123","0.0-1.0-363.0","0","0","54068","","null","","","null","40","NaN","","","","","","","","","","","","","","",""
"","S2","","html-keyboard-response","267","276376","0.0-1.0-364.0","0","0","54068","","null","","","null","40","","NaN","","","","","","","","","","","","","",""
"","response","","html-keyboard-response","268","276556","0.0-1.0-365.0-0.0","0","0","54068","","179","","","68","40","","","1","40","training","adjacent","BA","2","1","O.jpg","M.jpg","1","0","0","",""
"","feedback","","html-keyboard-response","269","277558","0.0-1.0-366.0-0.0","0","0","54068","","null","","","null","40","","","","","","","","","","","","","","","",""
"","time_out","","html-keyboard-response","270","279560","0.0-1.0-368.0-0.0","0","0","54068","","null","","","null","40","","","","","","","","","","","","","","","",""
"","ITI","","html-keyboard-response","271","280562","0.0-1.0-369.0","0","0","54068","","null","","","null","40","","","","","","","","","","","","","","","NaN",""
"","S1","","html-keyboard-response","272","280814","0.0-1.0-371.0","0","0","54068","","null","","","null","41","","","","","","","","","","","","","","","",""
"","ISI","","html-keyboard-response","273","281816","0.0-1.0-372.0","0","0","54068","","null","","","null","41","NaN","","","","","","","","","","","","","","",""
"","S2","","html-keyboard-response","274","282068","0.0-1.0-373.0","0","0","54068","","null","","","null","41","","NaN","","","","","","","","","","","","","",""
"","response","","html-keyboard-response","275","282346","0.0-1.0-374.0-0.0","0","0","54068","","277","","","75","41","","","1","41","training","adjacent","FE","6","5","N.jpg","P.jpg","0","0","1","",""
"","feedback","","html-keyboard-response","276","283348","0.0-1.0-375.0-0.0","0","0","54068","","null","","","null","41","","","","","","","","","","","","","","","",""
"","ITI","","html-keyboard-response","277","284350","0.0-1.0-378.0","0","0","54068","","null","","","null","41","","","","","","","","","","","","","","","NaN",""
"","S1","","html-keyboard-response","278","284601","0.0-1.0-380.0","0","0","54068","","null","","","null","42","","","","","","","","","","","","","","","",""
"","ISI","","html-keyboard-response","279","285603","0.0-1.0-381.0","0","0","54068","","null","","","null","42","NaN","","","","","","","","","","","","","","",""
"","S2","","html-keyboard-response","280","285856","0.0-1.0-382.0","0","0","54068","","null","","","null","42","","NaN","","","","","","","","","","","","","",""
"","response","","html-keyboard-response","281","286183","0.0-1.0-383.0-0.0","0","0","54068","","326","","","68","42","","","1","42","training","adjacent","DC","4","3","Q.jpg","L.jpg","1","0","0","",""
"","feedback","","html-keyboard-response","282","287185","0.0-1.0-384.0-0.0","0","0","54068","","null","","","null","42","","","","","","","","","","","","","","","",""
"","time_out","","html-keyboard-response","283","289187","0.0-1.0-386.0-0.0","0","0","54068","","null","","","null","42","","","","","","","","","","","","","","","",""
"","ITI","","html-keyboard-response","284","290189","0.0-1.0-387.0","0","0","54068","","null","","","null","42","","","","","","","","","","","","","","","NaN",""
"","S1","","html-keyboard-response","285","290441","0.0-1.0-389.0","0","0","54068","","null","","","null","43","","","","","","","","","","","","","","","",""
"","ISI","","html-keyboard-response","286","291443","0.0-1.0-390.0","0","0","54068","","null","","","null","43","NaN","","","","","","","","","","","","","","",""
"","S2","","html-keyboard-response","287","291695","0.0-1.0-391.0","0","0","54068","","null","","","null","43","","NaN","","","","","","","","","","","","","",""
"","response","","html-keyboard-response","288","292111","0.0-1.0-392.0-0.0","0","0","54068","","415","","","75","43","","","1","43","training","adjacent","CB","3","2","L.jpg","O.jpg","0","0","1","",""
"","feedback","","html-keyboard-response","289","293114","0.0-1.0-393.0-0.0","0","0","54068","","null","","","null","43","","","","","","","","","","","","","","","",""
"","ITI","","html-keyboard-response","290","294116","0.0-1.0-396.0","0","0","54068","","null","","","null","43","","","","","","","","","","","","","","","NaN",""
"","S1","","html-keyboard-response","291","294368","0.0-1.0-398.0","0","0","54068","","null","","","null","44","","","","","","","","","","","","","","","",""
"","ISI","","html-keyboard-response","292","295370","0.0-1.0-399.0","0","0","54068","","null","","","null","44","NaN","","","","","","","","","","","","","","",""
"","S2","","html-keyboard-response","293","295622","0.0-1.0-400.0","0","0","54068","","null","","","null","44","","NaN","","","","","","","","","","","","","",""
"","response","","html-keyboard-response","294","296087","0.0-1.0-401.0-0.0","0","0","54068","","464","","","68","44","","","1","44","training","adjacent","DE","4","5","Q.jpg","P.jpg","1","1","1","",""
"","feedback","","html-keyboard-response","295","297090","0.0-1.0-402.0-0.0","0","0","54068","","null","","","null","44","","","","","","","","","","","","","","","",""
"","ITI","","html-keyboard-response","296","298092","0.0-1.0-405.0","0","0","54068","","null","","","null","44","","","","","","","","","","","","","","","NaN",""
"","S1","","html-keyboard-response","297","298344","0.0-1.0-407.0","0","0","54068","","null","","","null","45","","","","","","","","","","","","","","","",""
"","ISI","","html-keyboard-response","298","299346","0.0-1.0-408.0","0","0","54068","","null","","","null","45","NaN","","","","","","","","","","","","","","",""
"","S2","","html-keyboard-response","299","299598","0.0-1.0-409.0","0","0","54068","","null","","","null","45","","NaN","","","","","","","","","","","","","",""
"","response","","html-keyboard-response","300","300211","0.0-1.0-410.0-0.0","0","0","54068","","611","","","75","45","","","1","45","training","adjacent","FG","6","7","N.jpg","R.jpg","0","1","0","",""
"","feedback","","html-keyboard-response","301","301214","0.0-1.0-411.0-0.0","0","0","54068","","null","","","null","45","","","","","","","","","","","","","","","",""
"","time_out","","html-keyboard-response","302","303216","0.0-1.0-413.0-0.0","0","0","54068","","null","","","null","45","","","","","","","","","","","","","","","",""
"","ITI","","html-keyboard-response","303","304219","0.0-1.0-414.0","0","0","54068","","null","","","null","45","","","","","","","","","","","","","","","NaN",""
"","S1","","html-keyboard-response","304","304471","0.0-1.0-416.0","0","0","54068","","null","","","null","46","","","","","","","","","","","","","","","",""
"","ISI","","html-keyboard-response","305","305472","0.0-1.0-417.0","0","0","54068","","null","","","null","46","NaN","","","","","","","","","","","","","","",""
"","S2","","html-keyboard-response","306","305725","0.0-1.0-418.0","0","0","54068","","null","","","null","46","","NaN","","","","","","","","","","","","","",""
"","response","","html-keyboard-response","307","305798","0.0-1.0-419.0-0.0","0","0","54068","","72","","","68","46","","","1","46","training","adjacent","BC","2","3","O.jpg","L.jpg","1","1","1","",""
"","feedback","","html-keyboard-response","308","306800","0.0-1.0-420.0-0.0","0","0","54068","","null","","","null","46","","","","","","","","","","","","","","","",""
"","ITI","","html-keyboard-response","309","307802","0.0-1.0-423.0","0","0","54068","","null","","","null","46","","","","","","","","","","","","","","","NaN",""
"","S1","","html-keyboard-response","310","308054","0.0-1.0-425.0","0","0","54068","","null","","","null","47","","","","","","","","","","","","","","","",""
"","ISI","","html-keyboard-response","311","309055","0.0-1.0-426.0","0","0","54068","","null","","","null","47","NaN","","","","","","","","","","","","","","",""
"","S2","","html-keyboard-response","312","309307","0.0-1.0-427.0","0","0","54068","","null","","","null","47","","NaN","","","","","","","","","","","","","",""
"","response","","html-keyboard-response","313","309689","0.0-1.0-428.0-0.0","0","0","54068","","381","","","68","47","","","1","47","training","adjacent","GF","7","6","R.jpg","N.jpg","1","0","0","",""
"","feedback","","html-keyboard-response","314","310690","0.0-1.0-429.0-0.0","0","0","54068","","null","","","null","47","","","","","","","","","","","","","","","",""
"","time_out","","html-keyboard-response","315","312693","0.0-1.0-431.0-0.0","0","0","54068","","null","","","null","47","","","","","","","","","","","","","","","",""
"","ITI","","html-keyboard-response","316","313694","0.0-1.0-432.0","0","0","54068","","null","","","null","47","","","","","","","","","","","","","","","NaN",""
"","block_over","","html-keyboard-response","317","323206","0.0-1.0-433.0-0.0","0","0","54068","","9510","","","32","47","","","","","","","","","","","","","","","",""
"","S1","","html-keyboard-response","318","323458","0.0-1.0-434.0","0","0","54068","","null","","","null","48","","","","","","","","","","","","","","","",""
"","ISI","","html-keyboard-response","319","324460","0.0-1.0-435.0","0","0","54068","","null","","","null","48","NaN","","","","","","","","","","","","","","",""
"","S2","","html-keyboard-response","320","324713","0.0-1.0-436.0","0","0","54068","","null","","","null","48","","NaN","","","","","","","","","","","","","",""
"","response","","html-keyboard-response","321","325655","0.0-1.0-437.0-0.0","0","0","54068","","941","","","75","48","","","2","48","training","adjacent","FG","6","7","N.jpg","R.jpg","0","1","0","",""
"","feedback","","html-keyboard-response","322","326657","0.0-1.0-438.0-0.0","0","0","54068","","null","","","null","48","","","","","","","","","","","","","","","",""
"","time_out","","html-keyboard-response","323","328658","0.0-1.0-440.0-0.0","0","0","54068","","null","","","null","48","","","","","","","","","","","","","","","",""
"","ITI","","html-keyboard-response","324","329660","0.0-1.0-441.0","0","0","54068","","null","","","null","48","","","","","","","","","","","","","","","NaN",""
"","S1","","html-keyboard-response","325","329912","0.0-1.0-443.0","0","0","54068","","null","","","null","49","","","","","","","","","","","","","","","",""
"","ISI","","html-keyboard-response","326","330914","0.0-1.0-444.0","0","0","54068","","217","","","68","49","d","","","","","","","","","","","","","","",""
"","S2","","html-keyboard-response","327","331168","0.0-1.0-445.0","0","0","54068","","null","","","null","49","","NaN","","","","","","","","","","","","","",""
"","response","","html-keyboard-response","328","331385","0.0-1.0-446.0-0.0","0","0","54068","","217","","","68","49","","","2","49","training","adjacent","CB","3","2","L.jpg","O.jpg","1","0","0","",""
"","feedback","","html-keyboard-response","329","332387","0.0-1.0-447.0-0.0","0","0","54068","","null","","","null","49","","","","","","","","","","","","","","","",""
"","time_out","","html-keyboard-response","330","334390","0.0-1.0-449.0-0.0","0","0","54068","","null","","","null","49","","","","","","","","","","","","","","","",""
"","ITI","","html-keyboard-response","331","335392","0.0-1.0-450.0","0","0","54068","","null","","","null","49","","","","","","","","","","","","","","","NaN",""
"","S1","","html-keyboard-response","332","335643","0.0-1.0-452.0","0","0","54068","","null","","","null","50","","","","","","","","","","","","","","","",""
"","ISI","","html-keyboard-response","333","336646","0.0-1.0-453.0","0","0","54068","","null","","","null","50","NaN","","","","","","","","","","","","","","",""
"","S2","","html-keyboard-response","334","336898","0.0-1.0-454.0","0","0","54068","","null","","","null","50","","NaN","","","","","","","","","","","","","",""
"","response","","html-keyboard-response","335","337346","0.0-1.0-455.0-0.0","0","0","54068","","446","","","75","50","","","2","50","training","adjacent","FG","6","7","N.jpg","R.jpg","0","1","0","",""
"","feedback","","html-keyboard-response","336","338348","0.0-1.0-456.0-0.0","0","0","54068","","null","","","null","50","","","","","","","","","","","","","","","",""
"","time_out","","html-keyboard-response","337","340350","0.0-1.0-458.0-0.0","0","0","54068","","null","","","null","50","","","","","","","","","","","","","","","",""
"","ITI","","html-keyboard-response","338","341352","0.0-1.0-459.0","0","0","54068","","null","","","null","50","","","","","","","","","","","","","","","NaN",""
"","S1","","html-keyboard-response","339","341604","0.0-1.0-461.0","0","0","54068","","null","","","null","51","","","","","","","","","","","","","","","",""
"","ISI","","html-keyboard-response","340","342606","0.0-1.0-462.0","0","0","54068","","null","","","null","51","NaN","","","","","","","","","","","","","","",""
"","S2","","html-keyboard-response","341","342858","0.0-1.0-463.0","0","0","54068","","null","","","null","51","","NaN","","","","","","","","","","","","","",""
"","response","","html-keyboard-response","342","343092","0.0-1.0-464.0-0.0","0","0","54068","","233","","","68","51","","","2","51","training","adjacent","FE","6","5","N.jpg","P.jpg","1","0","0","",""
"","feedback","","html-keyboard-response","343","344094","0.0-1.0-465.0-0.0","0","0","54068","","null","","","null","51","","","","","","","","","","","","","","","",""
"","time_out","","html-keyboard-response","344","346097","0.0-1.0-467.0-0.0","0","0","54068","","null","","","null","51","","","","","","","","","","","","","","","",""
"","ITI","","html-keyboard-response","345","347099","0.0-1.0-468.0","0","0","54068","","null","","","null","51","","","","","","","","","","","","","","","NaN",""
"","S1","","html-keyboard-response","346","347351","0.0-1.0-470.0","0","0","54068","","null","","","null","52","","","","","","","","","","","","","","","",""
"","ISI","","html-keyboard-response","347","348353","0.0-1.0-471.0","0","0","54068","","null","","","null","52","NaN","","","","","","","","","","","","","","",""
"","S2","","html-keyboard-response","348","348606","0.0-1.0-472.0","0","0","54068","","null","","","null","52","","NaN","","","","","","","","","","","","","",""
"","response","","html-keyboard-response","349","349138","0.0-1.0-473.0-0.0","0","0","54068","","531","","","75","52","","","2","52","training","adjacent","CD","3","4","L.jpg","Q.jpg","0","1","0","",""
"","feedback","","html-keyboard-response","350","350141","0.0-1.0-474.0-0.0","0","0","54068","","null","","","null","52","","","","","","","","","","","","","","","",""
"","time_out","","html-keyboard-response","351","352143","0.0-1.0-476.0-0.0","0","0","54068","","null","","","null","52","","","","","","","","","","","","","","","",""
"","ITI","","html-keyboard-response","352","353144","0.0-1.0-477.0","0","0","54068","","null","","","null","52","","","","","","","","","","","","","","","NaN",""
"","S1","","html-keyboard-response","353","353396","0.0-1.0-479.0","0","0","54068","","null","","","null","53","","","","","","","","","","","","","","","",""
"","ISI","","html-keyboard-response","354","354399","0.0-1.0-480.0","0","0","54068","","null","","","null","53","NaN","","","","","","","","","","","","","","",""
"","S2","","html-keyboard-response","355","354651","0.0-1.0-481.0","0","0","54068","","null","","","null","53","","NaN","","","","","","","","","","","","","",""
"","response","","html-keyboard-response","356","355067","0.0-1.0-482.0-0.0","0","0","54068","","414","","","68","53","","","2","53","training","adjacent","AB","1","2","M.jpg","O.jpg","1","1","1","",""
"","feedback","","html-keyboard-response","357","356069","0.0-1.0-483.0-0.0","0","0","54068","","null","","","null","53","","","","","","","","","","","","","","","",""
"","ITI","","html-keyboard-response","358","357071","0.0-1.0-486.0","0","0","54068","","null","","","null","53","","","","","","","","","","","","","","","NaN",""
"","S1","","html-keyboard-response","359","357323","0.0-1.0-488.0","0","0","54068","","null","","","null","54","","","","","","","","","","","","","","","",""
"","ISI","","html-keyboard-response","360","358325","0.0-1.0-489.0","0","0","54068","","null","","","null","54","NaN","","","","","","","","","","","","","","",""
"","S2","","html-keyboard-response","361","358577","0.0-1.0-490.0","0","0","54068","","null","","","null","54","","NaN","","","","","","","","","","","","","",""
"","response","","html-keyboard-response","362","359501","0.0-1.0-491.0-0.0","0","0","54068","","924","","","75","54","","","2","54","training","adjacent","BA","2","1","O.jpg","M.jpg","0","0","1","",""
"","feedback","","html-keyboard-response","363","360504","0.0-1.0-492.0-0.0","0","0","54068","","null","","","null","54","","","","","","","","","","","","","","","",""
"","ITI","","html-keyboard-response","364","361506","0.0-1.0-495.0","0","0","54068","","null","","","null","54","","","","","","","","","","","","","","","NaN",""
"","S1","","html-keyboard-response","365","361759","0.0-1.0-497.0","0","0","54068","","null","","","null","55","","","","","","","","","","","","","","","",""
"","ISI","","html-keyboard-response","366","362760","0.0-1.0-498.0","0","0","54068","","null","","","null","55","NaN","","","","","","","","","","","","","","",""
"","S2","","html-keyboard-response","367","363013","0.0-1.0-499.0","0","0","54068","","null","","","null","55","","NaN","","","","","","","","","","","","","",""
"","response","","html-keyboard-response","368","363509","0.0-1.0-500.0-0.0","0","0","54068","","495","","","75","55","","","2","55","training","adjacent","DC","4","3","Q.jpg","L.jpg","0","0","1","",""
"","feedback","","html-keyboard-response","369","364511","0.0-1.0-501.0-0.0","0","0","54068","","null","","","null","55","","","","","","","","","","","","","","","",""
"","ITI","","html-keyboard-response","370","365512","0.0-1.0-504.0","0","0","54068","","null","","","null","55","","","","","","","","","","","","","","","NaN",""
"","S1","","html-keyboard-response","371","365764","0.0-1.0-506.0","0","0","54068","","null","","","null","56","","","","","","","","","","","","","","","",""
"","ISI","","html-keyboard-response","372","366766","0.0-1.0-507.0","0","0","54068","","null","","","null","56","NaN","","","","","","","","","","","","","","",""
"","S2","","html-keyboard-response","373","367018","0.0-1.0-508.0","0","0","54068","","null","","","null","56","","NaN","","","","","","","","","","","","","",""
"","response","","html-keyboard-response","374","367367","0.0-1.0-509.0-0.0","0","0","54068","","347","","","68","56","","","2","56","training","adjacent","AB","1","2","M.jpg","O.jpg","1","1","1","",""
"","feedback","","html-keyboard-response","375","368370","0.0-1.0-510.0-0.0","0","0","54068","","null","","","null","56","","","","","","","","","","","","","","","",""
"","ITI","","html-keyboard-response","376","369372","0.0-1.0-513.0","0","0","54068","","null","","","null","56","","","","","","","","","","","","","","","NaN",""
"","S1","","html-keyboard-response","377","369624","0.0-1.0-515.0","0","0","54068","","null","","","null","57","","","","","","","","","","","","","","","",""
"","ISI","","html-keyboard-response","378","370626","0.0-1.0-516.0","0","0","54068","","null","","","null","57","NaN","","","","","","","","","","","","","","",""
"","S2","","html-keyboard-response","379","370879","0.0-1.0-517.0","0","0","54068","","null","","","null","57","","NaN","","","","","","","","","","","","","",""
"","response","","html-keyboard-response","380","371129","0.0-1.0-518.0-0.0","0","0","54068","","249","","","75","57","","","2","57","training","adjacent","GF","7","6","R.jpg","N.jpg","0","0","1","",""
"","feedback","","html-keyboard-response","381","372131","0.0-1.0-519.0-0.0","0","0","54068","","null","","","null","57","","","","","","","","","","","","","","","",""
"","ITI","","html-keyboard-response","382","373133","0.0-1.0-522.0","0","0","54068","","null","","","null","57","","","","","","","","","","","","","","","NaN",""
"","S1","","html-keyboard-response","383","373385","0.0-1.0-524.0","0","0","54068","","null","","","null","58","","","","","","","","","","","","","","","",""
"","ISI","","html-keyboard-response","384","374387","0.0-1.0-525.0","0","0","54068","","651","","","68","58","d","","","","","","","","","","","","","","",""
"","S2","","html-keyboard-response","385","374513","0.0-1.0-526.0","0","0","54068","","124","","","68","58","","d","2","58","training","adjacent","CD","3","4","L.jpg","Q.jpg","1","1","1","",""
"","feedback","","html-keyboard-response","386","375515","0.0-1.0-528.0-0.0","0","0","54068","","null","","","null","58","","","","","","","","","","","","","","","",""
"","ITI","","html-keyboard-response","387","376517","0.0-1.0-531.0","0","0","54068","","null","","","null","58","","","","","","","","","","","","","","","NaN",""
"","S1","","html-keyboard-response","388","376770","0.0-1.0-533.0","0","0","54068","","null","","","null","59","","","","","","","","","","","","","","","",""
"","ISI","","html-keyboard-response","389","377773","0.0-1.0-534.0","0","0","54068","","null","","","null","59","NaN","","","","","","","","","","","","","","",""
"","S2","","html-keyboard-response","390","378025","0.0-1.0-535.0","0","0","54068","","null","","","null","59","","NaN","","","","","","","","","","","","","",""
"","response","","html-keyboard-response","391","378510","0.0-1.0-536.0-0.0","0","0","54068","","484","","","75","59","","","2","59","training","adjacent","FE","6","5","N.jpg","P.jpg","0","0","1","",""
"","feedback","","html-keyboard-response","392","379513","0.0-1.0-537.0-0.0","0","0","54068","","null","","","null","59","","","","","","","","","","","","","","","",""
"","ITI","","html-keyboard-response","393","380515","0.0-1.0-540.0","0","0","54068","","null","","","null","59","","","","","","","","","","","","","","","NaN",""
"","S1","","html-keyboard-response","394","380767","0.0-1.0-542.0","0","0","54068","","null","","","null","60","","","","","","","","","","","","","","","",""
"","ISI","","html-keyboard-response","395","381769","0.0-1.0-543.0","0","0","54068","","null","","","null","60","NaN","","","","","","","","","","","","","","",""
"","S2","","html-keyboard-response","396","382021","0.0-1.0-544.0","0","0","54068","","null","","","null","60","","NaN","","","","","","","","","","","","","",""
"","response","","html-keyboard-response","397","382219","0.0-1.0-545.0-0.0","0","0","54068","","196","","","68","60","","","2","60","training","adjacent","AB","1","2","M.jpg","O.jpg","1","1","1","",""
"","feedback","","html-keyboard-response","398","383221","0.0-1.0-546.0-0.0","0","0","54068","","null","","","null","60","","","","","","","","","","","","","","","",""
"","ITI","","html-keyboard-response","399","384223","0.0-1.0-549.0","0","0","54068","","null","","","null","60","","","","","","","","","","","","","","","NaN",""
"","S1","","html-keyboard-response","400","384476","0.0-1.0-551.0","0","0","54068","","null","","","null","61","","","","","","","","","","","","","","","",""
"","ISI","","html-keyboard-response","401","385479","0.0-1.0-552.0","0","0","54068","","null","","","null","61","NaN","","","","","","","","","","","","","","",""
"","S2","","html-keyboard-response","402","385731","0.0-1.0-553.0","0","0","54068","","null","","","null","61","","NaN","","","","","","","","","","","","","",""
"","response","","html-keyboard-response","403","385992","0.0-1.0-554.0-0.0","0","0","54068","","260","","","68","61","","","2","61","training","adjacent","EF","5","6","P.jpg","N.jpg","1","1","1","",""
"","feedback","","html-keyboard-response","404","386995","0.0-1.0-555.0-0.0","0","0","54068","","null","","","null","61","","","","","","","","","","","","","","","",""
"","ITI","","html-keyboard-response","405","387997","0.0-1.0-558.0","0","0","54068","","null","","","null","61","","","","","","","","","","","","","","","NaN",""
"","S1","","html-keyboard-response","406","388249","0.0-1.0-560.0","0","0","54068","","null","","","null","62","","","","","","","","","","","","","","","",""
"","ISI","","html-keyboard-response","407","389252","0.0-1.0-561.0","0","0","54068","","null","","","null","62","NaN","","","","","","","","","","","","","","",""
"","S2","","html-keyboard-response","408","389504","0.0-1.0-562.0","0","0","54068","","null","","","null","62","","NaN","","","","","","","","","","","","","",""
"","response","","html-keyboard-response","409","389754","0.0-1.0-563.0-0.0","0","0","54068","","250","","","75","62","","","2","62","training","adjacent","ED","5","4","P.jpg","Q.jpg","0","0","1","",""
"","feedback","","html-keyboard-response","410","390756","0.0-1.0-564.0-0.0","0","0","54068","","null","","","null","62","","","","","","","","","","","","","","","",""
"","ITI","","html-keyboard-response","411","391758","0.0-1.0-567.0","0","0","54068","","null","","","null","62","","","","","","","","","","","","","","","NaN",""
"","S1","","html-keyboard-response","412","392010","0.0-1.0-569.0","0","0","54068","","null","","","null","63","","","","","","","","","","","","","","","",""
"","ISI","","html-keyboard-response","413","393012","0.0-1.0-570.0","0","0","54068","","null","","","null","63","NaN","","","","","","","","","","","","","","",""
"","S2","","html-keyboard-response","414","393264","0.0-1.0-571.0","0","0","54068","","null","","","null","63","","NaN","","","","","","","","","","","","","",""
"","response","","html-keyboard-response","415","393740","0.0-1.0-572.0-0.0","0","0","54068","","474","","","68","63","","","2","63","training","adjacent","ED","5","4","P.jpg","Q.jpg","1","0","0","",""
"","feedback","","html-keyboard-response","416","394741","0.0-1.0-573.0-0.0","0","0","54068","","null","","","null","63","","","","","","","","","","","","","","","",""
"","time_out","","html-keyboard-response","417","396743","0.0-1.0-575.0-0.0","0","0","54068","","null","","","null","63","","","","","","","","","","","","","","","",""
"","ITI","","html-keyboard-response","418","397744","0.0-1.0-576.0","0","0","54068","","null","","","null","63","","","","","","","","","","","","","","","NaN",""
"","S1","","html-keyboard-response","419","397997","0.0-1.0-578.0","0","0","54068","","null","","","null","64","","","","","","","","","","","","","","","",""
"","ISI","","html-keyboard-response","420","398999","0.0-1.0-579.0","0","0","54068","","null","","","null","64","NaN","","","","","","","","","","","","","","",""
"","S2","","html-keyboard-response","421","399251","0.0-1.0-580.0","0","0","54068","","null","","","null","64","","NaN","","","","","","","","","","","","","",""
"","response","","html-keyboard-response","422","399668","0.0-1.0-581.0-0.0","0","0","54068","","415","","","75","64","","","2","64","training","adjacent","DE","4","5","Q.jpg","P.jpg","0","1","0","",""
"","feedback","","html-keyboard-response","423","400671","0.0-1.0-582.0-0.0","0","0","54068","","null","","","null","64","","","","","","","","","","","","","","","",""
"","time_out","","html-keyboard-response","424","402673","0.0-1.0-584.0-0.0","0","0","54068","","null","","","null","64","","","","","","","","","","","","","","","",""
"","ITI","","html-keyboard-response","425","403675","0.0-1.0-585.0","0","0","54068","","null","","","null","64","","","","","","","","","","","","","","","NaN",""
"","S1","","html-keyboard-response","426","403928","0.0-1.0-587.0","0","0","54068","","null","","","null","65","","","","","","","","","","","","","","","",""
"","ISI","","html-keyboard-response","427","404929","0.0-1.0-588.0","0","0","54068","","null","","","null","65","NaN","","","","","","","","","","","","","","",""
"","S2","","html-keyboard-response","428","405182","0.0-1.0-589.0","0","0","54068","","null","","","null","65","","NaN","","","","","","","","","","","","","",""
"","response","","html-keyboard-response","429","405630","0.0-1.0-590.0-0.0","0","0","54068","","447","","","68","65","","","2","65","training","adjacent","BA","2","1","O.jpg","M.jpg","1","0","0","",""
"","feedback","","html-keyboard-response","430","406632","0.0-1.0-591.0-0.0","0","0","54068","","null","","","null","65","","","","","","","","","","","","","","","",""
"","time_out","","html-keyboard-response","431","408634","0.0-1.0-593.0-0.0","0","0","54068","","null","","","null","65","","","","","","","","","","","","","","","",""
"","ITI","","html-keyboard-response","432","409636","0.0-1.0-594.0","0","0","54068","","null","","","null","65","","","","","","","","","","","","","","","NaN",""
"","S1","","html-keyboard-response","433","409887","0.0-1.0-596.0","0","0","54068","","null","","","null","66","","","","","","","","","","","","","","","",""
"","ISI","","html-keyboard-response","434","410890","0.0-1.0-597.0","0","0","54068","","null","","","null","66","NaN","","","","","","","","","","","","","","",""
"","S2","","html-keyboard-response","435","411142","0.0-1.0-598.0","0","0","54068","","null","","","null","66","","NaN","","","","","","","","","","","","","",""
"","response","","html-keyboard-response","436","411409","0.0-1.0-599.0-0.0","0","0","54068","","265","","","75","66","","","2","66","training","adjacent","FE","6","5","N.jpg","P.jpg","0","0","1","",""
"","feedback","","html-keyboard-response","437","412411","0.0-1.0-600.0-0.0","0","0","54068","","null","","","null","66","","","","","","","","","","","","","","","",""
"","ITI","","html-keyboard-response","438","413414","0.0-1.0-603.0","0","0","54068","","null","","","null","66","","","","","","","","","","","","","","","NaN",""
"","S1","","html-keyboard-response","439","413666","0.0-1.0-605.0","0","0","54068","","null","","","null","67","","","","","","","","","","","","","","","",""
"","ISI","","html-keyboard-response","440","414667","0.0-1.0-606.0","0","0","54068","","null","","","null","67","NaN","","","","","","","","","","","","","","",""
"","S2","","html-keyboard-response","441","414919","0.0-1.0-607.0","0","0","54068","","null","","","null","67","","NaN","","","","","","","","","","","","","",""
"","response","","html-keyboard-response","442","415139","0.0-1.0-608.0-0.0","0","0","54068","","218","","","75","67","","","2","67","training","adjacent","BC","2","3","O.jpg","L.jpg","0","1","0","",""
"","feedback","","html-keyboard-response","443","416141","0.0-1.0-609.0-0.0","0","0","54068","","null","","","null","67","","","","","","","","","","","","","","","",""
"","time_out","","html-keyboard-response","444","418142","0.0-1.0-611.0-0.0","0","0","54068","","null","","","null","67","","","","","","","","","","","","","","","",""
"","ITI","","html-keyboard-response","445","419144","0.0-1.0-612.0","0","0","54068","","null","","","null","67","","","","","","","","","","","","","","","NaN",""
"","S1","","html-keyboard-response","446","419396","0.0-1.0-614.0","0","0","54068","","null","","","null","68","","","","","","","","","","","","","","","",""
"","ISI","","html-keyboard-response","447","420398","0.0-1.0-615.0","0","0","54068","","null","","","null","68","NaN","","","","","","","","","","","","","","",""
"","S2","","html-keyboard-response","448","420651","0.0-1.0-616.0","0","0","54068","","null","","","null","68","","NaN","","","","","","","","","","","","","",""
"","response","","html-keyboard-response","449","421132","0.0-1.0-617.0-0.0","0","0","54068","","480","","","68","68","","","2","68","training","adjacent","GF","7","6","R.jpg","N.jpg","1","0","0","",""
"","feedback","","html-keyboard-response","450","422135","0.0-1.0-618.0-0.0","0","0","54068","","null","","","null","68","","","","","","","","","","","","","","","",""
"","time_out","","html-keyboard-response","451","424137","0.0-1.0-620.0-0.0","0","0","54068","","null","","","null","68","","","","","","","","","","","","","","","",""
"","ITI","","html-keyboard-response","452","425138","0.0-1.0-621.0","0","0","54068","","null","","","null","68","","","","","","","","","","","","","","","NaN",""
"","S1","","html-keyboard-response","453","425390","0.0-1.0-623.0","0","0","54068","","null","","","null","69","","","","","","","","","","","","","","","",""
"","ISI","","html-keyboard-response","454","426391","0.0-1.0-624.0","0","0","54068","","null","","","null","69","NaN","","","","","","","","","","","","","","",""
"","S2","","html-keyboard-response","455","426643","0.0-1.0-625.0","0","0","54068","","null","","","null","69","","NaN","","","","","","","","","","","","","",""
"","response","","html-keyboard-response","456","427018","0.0-1.0-626.0-0.0","0","0","54068","","373","","","75","69","","","2","69","training","adjacent","CD","3","4","L.jpg","Q.jpg","0","1","0","",""
"","feedback","","html-keyboard-response","457","428020","0.0-1.0-627.0-0.0","0","0","54068","","null","","","null","69","","","","","","","","","","","","","","","",""
"","time_out","","html-keyboard-response","458","430022","0.0-1.0-629.0-0.0","0","0","54068","","null","","","null","69","","","","","","","","","","","","","","","",""
"","ITI","","html-keyboard-response","459","431024","0.0-1.0-630.0","0","0","54068","","null","","","null","69","","","","","","","","","","","","","","","NaN",""
"","S1","","html-keyboard-response","460","431276","0.0-1.0-632.0","0","0","54068","","null","","","null","70","","","","","","","","","","","","","","","",""
"","ISI","","html-keyboard-response","461","432278","0.0-1.0-633.0","0","0","54068","","null","","","null","70","NaN","","","","","","","","","","","","","","",""
"","S2","","html-keyboard-response","462","432530","0.0-1.0-634.0","0","0","54068","","null","","","null","70","","NaN","","","","","","","","","","","","","",""
"","response","","html-keyboard-response","463","432883","0.0-1.0-635.0-0.0","0","0","54068","","351","","","68","70","","","2","70","training","adjacent","AB","1","2","M.jpg","O.jpg","1","1","1","",""
"","feedback","","html-keyboard-response","464","433885","0.0-1.0-636.0-0.0","0","0","54068","","null","","","null","70","","","","","","","","","","","","","","","",""
"","ITI","","html-keyboard-response","465","434888","0.0-1.0-639.0","0","0","54068","","null","","","null","70","","","","","","","","","","","","","","","NaN",""
"","S1","","html-keyboard-response","466","435140","0.0-1.0-641.0","0","0","54068","","null","","","null","71","","","","","","","","","","","","","","","",""
"","ISI","","html-keyboard-response","467","436141","0.0-1.0-642.0","0","0","54068","","null","","","null","71","NaN","","","","","","","","","","","","","","",""
"","S2","","html-keyboard-response","468","436393","0.0-1.0-643.0","0","0","54068","","null","","","null","71","","NaN","","","","","","","","","","","","","",""
"","response","","html-keyboard-response","469","436411","0.0-1.0-644.0-0.0","0","0","54068","","16","","","75","71","","","2","71","training","adjacent","ED","5","4","P.jpg","Q.jpg","0","0","1","",""
"","feedback","","html-keyboard-response","470","437413","0.0-1.0-645.0-0.0","0","0","54068","","null","","","null","71","","","","","","","","","","","","","","","",""
"","ITI","","html-keyboard-response","471","438415","0.0-1.0-648.0","0","0","54068","","null","","","null","71","","","","","","","","","","","","","","","NaN",""
"","S1","","html-keyboard-response","472","438667","0.0-1.0-650.0","0","0","54068","","null","","","null","72","","","","","","","","","","","","","","","",""
"","ISI","","html-keyboard-response","473","439670","0.0-1.0-651.0","0","0","54068","","null","","","null","72","NaN","","","","","","","","","","","","","","",""
"","S2","","html-keyboard-response","474","439922","0.0-1.0-652.0","0","0","54068","","null","","","null","72","","NaN","","","","","","","","","","","","","",""
"","response","","html-keyboard-response","475","440343","0.0-1.0-653.0-0.0","0","0","54068","","420","","","68","72","","","2","72","training","adjacent","DC","4","3","Q.jpg","L.jpg","1","0","0","",""
"","feedback","","html-keyboard-response","476","441345","0.0-1.0-654.0-0.0","0","0","54068","","null","","","null","72","","","","","","","","","","","","","","","",""
"","time_out","","html-keyboard-response","477","443347","0.0-1.0-656.0-0.0","0","0","54068","","null","","","null","72","","","","","","","","","","","","","","","",""
"","ITI","","html-keyboard-response","478","444350","0.0-1.0-657.0","0","0","54068","","null","","","null","72","","","","","","","","","","","","","","","NaN",""
"","S1","","html-keyboard-response","479","444602","0.0-1.0-659.0","0","0","54068","","null","","","null","73","","","","","","","","","","","","","","","",""
"","ISI","","html-keyboard-response","480","445604","0.0-1.0-660.0","0","0","54068","","null","","","null","73","NaN","","","","","","","","","","","","","","",""
"","S2","","html-keyboard-response","481","445856","0.0-1.0-661.0","0","0","54068","","null","","","null","73","","NaN","","","","","","","","","","","","","",""
"","response","","html-keyboard-response","482","446048","0.0-1.0-662.0-0.0","0","0","54068","","191","","","75","73","","","2","73","training","adjacent","BA","2","1","O.jpg","M.jpg","0","0","1","",""
"","feedback","","html-keyboard-response","483","447051","0.0-1.0-663.0-0.0","0","0","54068","","null","","","null","73","","","","","","","","","","","","","","","",""
"","ITI","","html-keyboard-response","484","448053","0.0-1.0-666.0","0","0","54068","","null","","","null","73","","","","","","","","","","","","","","","NaN",""
"","S1","","html-keyboard-response","485","448304","0.0-1.0-668.0","0","0","54068","","null","","","null","74","","","","","","","","","","","","","","","",""
"","ISI","","html-keyboard-response","486","449307","0.0-1.0-669.0","0","0","54068","","null","","","null","74","NaN","","","","","","","","","","","","","","",""
"","S2","","html-keyboard-response","487","449559","0.0-1.0-670.0","0","0","54068","","null","","","null","74","","NaN","","","","","","","","","","","","","",""
"","response","","html-keyboard-response","488","449746","0.0-1.0-671.0-0.0","0","0","54068","","186","","","75","74","","","2","74","training","adjacent","EF","5","6","P.jpg","N.jpg","0","1","0","",""
"","feedback","","html-keyboard-response","489","450748","0.0-1.0-672.0-0.0","0","0","54068","","null","","","null","74","","","","","","","","","","","","","","","",""
"","time_out","","html-keyboard-response","490","452751","0.0-1.0-674.0-0.0","0","0","54068","","null","","","null","74","","","","","","","","","","","","","","","",""
"","ITI","","html-keyboard-response","491","453752","0.0-1.0-675.0","0","0","54068","","null","","","null","74","","","","","","","","","","","","","","","NaN",""
"","S1","","html-keyboard-response","492","454004","0.0-1.0-677.0","0","0","54068","","null","","","null","75","","","","","","","","","","","","","","","",""
"","ISI","","html-keyboard-response","493","455006","0.0-1.0-678.0","0","0","54068","","null","","","null","75","NaN","","","","","","","","","","","","","","",""
"","S2","","html-keyboard-response","494","455259","0.0-1.0-679.0","0","0","54068","","null","","","null","75","","NaN","","","","","","","","","","","","","",""
"","response","","html-keyboard-response","495","455451","0.0-1.0-680.0-0.0","0","0","54068","","190","","","68","75","","","2","75","training","adjacent","BC","2","3","O.jpg","L.jpg","1","1","1","",""
"","feedback","","html-keyboard-response","496","456453","0.0-1.0-681.0-0.0","0","0","54068","","null","","","null","75","","","","","","","","","","","","","","","",""
"","ITI","","html-keyboard-response","497","457456","0.0-1.0-684.0","0","0","54068","","null","","","null","75","","","","","","","","","","","","","","","NaN",""
"","S1","","html-keyboard-response","498","457708","0.0-1.0-686.0","0","0","54068","","null","","","null","76","","","","","","","","","","","","","","","",""
"","ISI","","html-keyboard-response","499","458710","0.0-1.0-687.0","0","0","54068","","null","","","null","76","NaN","","","","","","","","","","","","","","",""
"","S2","","html-keyboard-response","500","458962","0.0-1.0-688.0","0","0","54068","","null","","","null","76","","NaN","","","","","","","","","","","","","",""
"","response","","html-keyboard-response","501","459095","0.0-1.0-689.0-0.0","0","0","54068","","131","","","75","76","","","2","76","training","adjacent","GF","7","6","R.jpg","N.jpg","0","0","1","",""
"","feedback","","html-keyboard-response","502","460097","0.0-1.0-690.0-0.0","0","0","54068","","null","","","null","76","","","","","","","","","","","","","","","",""
"","ITI","","html-keyboard-response","503","461099","0.0-1.0-693.0","0","0","54068","","null","","","null","76","","","","","","","","","","","","","","","NaN",""
"","S1","","html-keyboard-response","504","461351","0.0-1.0-695.0","0","0","54068","","null","","","null","77","","","","","","","","","","","","","","","",""
"","ISI","","html-keyboard-response","505","462353","0.0-1.0-696.0","0","0","54068","","null","","","null","77","NaN","","","","","","","","","","","","","","",""
"","S2","","html-keyboard-response","506","462606","0.0-1.0-697.0","0","0","54068","","null","","","null","77","","NaN","","","","","","","","","","","","","",""
"","response","","html-keyboard-response","507","462622","0.0-1.0-698.0-0.0","0","0","54068","","15","","","68","77","","","2","77","training","adjacent","DE","4","5","Q.jpg","P.jpg","1","1","1","",""
"","feedback","","html-keyboard-response","508","463625","0.0-1.0-699.0-0.0","0","0","54068","","null","","","null","77","","","","","","","","","","","","","","","",""
"","ITI","","html-keyboard-response","509","464628","0.0-1.0-702.0","0","0","54068","","null","","","null","77","","","","","","","","","","","","","","","NaN",""
"","S1","","html-keyboard-response","510","464880","0.0-1.0-704.0","0","0","54068","","null","","","null","78","","","","","","","","","","","","","","","",""
"","ISI","","html-keyboard-response","511","465882","0.0-1.0-705.0","0","0","54068","","null","","","null","78","NaN","","","","","","","","","","","","","","",""
"","S2","","html-keyboard-response","512","466134","0.0-1.0-706.0","0","0","54068","","null","","","null","78","","NaN","","","","","","","","","","","","","",""
"","response","","html-keyboard-response","513","466342","0.0-1.0-707.0-0.0","0","0","54068","","206","","","75","78","","","2","78","training","adjacent","DE","4","5","Q.jpg","P.jpg","0","1","0","",""
"","feedback","","html-keyboard-response","514","467344","0.0-1.0-708.0-0.0","0","0","54068","","null","","","null","78","","","","","","","","","","","","","","","",""
"","time_out","","html-keyboard-response","515","469346","0.0-1.0-710.0-0.0","0","0","54068","","null","","","null","78","","","","","","","","","","","","","","","",""
"","ITI","","html-keyboard-response","516","470348","0.0-1.0-711.0","0","0","54068","","null","","","null","78","","","","","","","","","","","","","","","NaN",""
"","S1","","html-keyboard-response","517","470600","0.0-1.0-713.0","0","0","54068","","null","","","null","79","","","","","","","","","","","","","","","",""
"","ISI","","html-keyboard-response","518","471602","0.0-1.0-714.0","0","0","54068","","null","","","null","79","NaN","","","","","","","","","","","","","","",""
"","S2","","html-keyboard-response","519","471855","0.0-1.0-715.0","0","0","54068","","null","","","null","79","","NaN","","","","","","","","","","","","","",""
"","response","","html-keyboard-response","520","471939","0.0-1.0-716.0-0.0","0","0","54068","","83","","","68","79","","","2","79","training","adjacent","CB","3","2","L.jpg","O.jpg","1","0","0","",""
"","feedback","","html-keyboard-response","521","472942","0.0-1.0-717.0-0.0","0","0","54068","","null","","","null","79","","","","","","","","","","","","","","","",""
"","time_out","","html-keyboard-response","522","474944","0.0-1.0-719.0-0.0","0","0","54068","","null","","","null","79","","","","","","","","","","","","","","","",""
"","ITI","","html-keyboard-response","523","475946","0.0-1.0-720.0","0","0","54068","","null","","","null","79","","","","","","","","","","","","","","","NaN",""
"","S1","","html-keyboard-response","524","476199","0.0-1.0-722.0","0","0","54068","","null","","","null","80","","","","","","","","","","","","","","","",""
"","ISI","","html-keyboard-response","525","477201","0.0-1.0-723.0","0","0","54068","","null","","","null","80","NaN","","","","","","","","","","","","","","",""
"","S2","","html-keyboard-response","526","477453","0.0-1.0-724.0","0","0","54068","","null","","","null","80","","NaN","","","","","","","","","","","","","",""
"","response","","html-keyboard-response","527","477484","0.0-1.0-725.0-0.0","0","0","54068","","29","","","75","80","","","2","80","training","adjacent","EF","5","6","P.jpg","N.jpg","0","1","0","",""
"","feedback","","html-keyboard-response","528","478486","0.0-1.0-726.0-0.0","0","0","54068","","null","","","null","80","","","","","","","","","","","","","","","",""
"","time_out","","html-keyboard-response","529","480488","0.0-1.0-728.0-0.0","0","0","54068","","null","","","null","80","","","","","","","","","","","","","","","",""
"","ITI","","html-keyboard-response","530","481489","0.0-1.0-729.0","0","0","54068","","null","","","null","80","","","","","","","","","","","","","","","NaN",""
"","S1","","html-keyboard-response","531","481742","0.0-1.0-731.0","0","0","54068","","null","","","null","81","","","","","","","","","","","","","","","",""
"","ISI","","html-keyboard-response","532","482743","0.0-1.0-732.0","0","0","54068","","null","","","null","81","NaN","","","","","","","","","","","","","","",""
"","S2","","html-keyboard-response","533","482995","0.0-1.0-733.0","0","0","54068","","null","","","null","81","","NaN","","","","","","","","","","","","","",""
"","response","","html-keyboard-response","534","483241","0.0-1.0-734.0-0.0","0","0","54068","","246","","","68","81","","","2","81","training","adjacent","DE","4","5","Q.jpg","P.jpg","1","1","1","",""
"","feedback","","html-keyboard-response","535","484243","0.0-1.0-735.0-0.0","0","0","54068","","null","","","null","81","","","","","","","","","","","","","","","",""
"","ITI","","html-keyboard-response","536","485245","0.0-1.0-738.0","0","0","54068","","null","","","null","81","","","","","","","","","","","","","","","NaN",""
"","S1","","html-keyboard-response","537","485498","0.0-1.0-740.0","0","0","54068","","null","","","null","82","","","","","","","","","","","","","","","",""
"","ISI","","html-keyboard-response","538","486499","0.0-1.0-741.0","0","0","54068","","null","","","null","82","NaN","","","","","","","","","","","","","","",""
"","S2","","html-keyboard-response","539","486751","0.0-1.0-742.0","0","0","54068","","null","","","null","82","","NaN","","","","","","","","","","","","","",""
"","response","","html-keyboard-response","540","486843","0.0-1.0-743.0-0.0","0","0","54068","","91","","","75","82","","","2","82","training","adjacent","FG","6","7","N.jpg","R.jpg","0","1","0","",""
"","feedback","","html-keyboard-response","541","487845","0.0-1.0-744.0-0.0","0","0","54068","","null","","","null","82","","","","","","","","","","","","","","","",""
"","time_out","","html-keyboard-response","542","489847","0.0-1.0-746.0-0.0","0","0","54068","","null","","","null","82","","","","","","","","","","","","","","","",""
"","ITI","","html-keyboard-response","543","490849","0.0-1.0-747.0","0","0","54068","","null","","","null","82","","","","","","","","","","","","","","","NaN",""
"","S1","","html-keyboard-response","544","491101","0.0-1.0-749.0","0","0","54068","","null","","","null","83","","","","","","","","","","","","","","","",""
"","ISI","","html-keyboard-response","545","492103","0.0-1.0-750.0","0","0","54068","","null","","","null","83","NaN","","","","","","","","","","","","","","",""
"","S2","","html-keyboard-response","546","492356","0.0-1.0-751.0","0","0","54068","","null","","","null","83","","NaN","","","","","","","","","","","","","",""
"","response","","html-keyboard-response","547","492664","0.0-1.0-752.0-0.0","0","0","54068","","308","","","68","83","","","2","83","training","adjacent","BC","2","3","O.jpg","L.jpg","1","1","1","",""
"","feedback","","html-keyboard-response","548","493666","0.0-1.0-753.0-0.0","0","0","54068","","null","","","null","83","","","","","","","","","","","","","","","",""
"","ITI","","html-keyboard-response","549","494667","0.0-1.0-756.0","0","0","54068","","null","","","null","83","","","","","","","","","","","","","","","NaN",""
"","S1","","html-keyboard-response","550","494920","0.0-1.0-758.0","0","0","54068","","null","","","null","84","","","","","","","","","","","","","","","",""
"","ISI","","html-keyboard-response","551","495922","0.0-1.0-759.0","0","0","54068","","null","","","null","84","NaN","","","","","","","","","","","","","","",""
"","S2","","html-keyboard-response","552","496175","0.0-1.0-760.0","0","0","54068","","null","","","null","84","","NaN","","","","","","","","","","","","","",""
"","response","","html-keyboard-response","553","496597","0.0-1.0-761.0-0.0","0","0","54068","","421","","","75","84","","","2","84","training","adjacent","FG","6","7","N.jpg","R.jpg","0","1","0","",""
"","feedback","","html-keyboard-response","554","497600","0.0-1.0-762.0-0.0","0","0","54068","","null","","","null","84","","","","","","","","","","","","","","","",""
"","time_out","","html-keyboard-response","555","499602","0.0-1.0-764.0-0.0","0","0","54068","","null","","","null","84","","","","","","","","","","","","","","","",""
"","ITI","","html-keyboard-response","556","500604","0.0-1.0-765.0","0","0","54068","","null","","","null","84","","","","","","","","","","","","","","","NaN",""
"","S1","","html-keyboard-response","557","500856","0.0-1.0-767.0","0","0","54068","","null","","","null","85","","","","","","","","","","","","","","","",""
"","ISI","","html-keyboard-response","558","501858","0.0-1.0-768.0","0","0","54068","","null","","","null","85","NaN","","","","","","","","","","","","","","",""
"","S2","","html-keyboard-response","559","502110","0.0-1.0-769.0","0","0","54068","","null","","","null","85","","NaN","","","","","","","","","","","","","",""
"","response","","html-keyboard-response","560","502588","0.0-1.0-770.0-0.0","0","0","54068","","477","","","68","85","","","2","85","training","adjacent","BC","2","3","O.jpg","L.jpg","1","1","1","",""
"","feedback","","html-keyboard-response","561","503590","0.0-1.0-771.0-0.0","0","0","54068","","null","","","null","85","","","","","","","","","","","","","","","",""
"","ITI","","html-keyboard-response","562","504593","0.0-1.0-774.0","0","0","54068","","null","","","null","85","","","","","","","","","","","","","","","NaN",""
"","S1","","html-keyboard-response","563","504844","0.0-1.0-776.0","0","0","54068","","null","","","null","86","","","","","","","","","","","","","","","",""
"","ISI","","html-keyboard-response","564","505846","0.0-1.0-777.0","0","0","54068","","null","","","null","86","NaN","","","","","","","","","","","","","","",""
"","S2","","html-keyboard-response","565","506099","0.0-1.0-778.0","0","0","54068","","null","","","null","86","","NaN","","","","","","","","","","","","","",""
"","response","","html-keyboard-response","566","506383","0.0-1.0-779.0-0.0","0","0","54068","","283","","","75","86","","","2","86","training","adjacent","ED","5","4","P.jpg","Q.jpg","0","0","1","",""
"","feedback","","html-keyboard-response","567","507385","0.0-1.0-780.0-0.0","0","0","54068","","null","","","null","86","","","","","","","","","","","","","","","",""
"","ITI","","html-keyboard-response","568","508388","0.0-1.0-783.0","0","0","54068","","null","","","null","86","","","","","","","","","","","","","","","NaN",""
"","S1","","html-keyboard-response","569","508639","0.0-1.0-785.0","0","0","54068","","null","","","null","87","","","","","","","","","","","","","","","",""
"","ISI","","html-keyboard-response","570","509641","0.0-1.0-786.0","0","0","54068","","null","","","null","87","NaN","","","","","","","","","","","","","","",""
"","S2","","html-keyboard-response","571","509894","0.0-1.0-787.0","0","0","54068","","null","","","null","87","","NaN","","","","","","","","","","","","","",""
"","response","","html-keyboard-response","572","510187","0.0-1.0-788.0-0.0","0","0","54068","","292","","","75","87","","","2","87","training","adjacent","FE","6","5","N.jpg","P.jpg","0","0","1","",""
"","feedback","","html-keyboard-response","573","511189","0.0-1.0-789.0-0.0","0","0","54068","","null","","","null","87","","","","","","","","","","","","","","","",""
"","ITI","","html-keyboard-response","574","512192","0.0-1.0-792.0","0","0","54068","","null","","","null","87","","","","","","","","","","","","","","","NaN",""
"","S1","","html-keyboard-response","575","512443","0.0-1.0-794.0","0","0","54068","","null","","","null","88","","","","","","","","","","","","","","","",""
"","ISI","","html-keyboard-response","576","513446","0.0-1.0-795.0","0","0","54068","","null","","","null","88","NaN","","","","","","","","","","","","","","",""
"","S2","","html-keyboard-response","577","513699","0.0-1.0-796.0","0","0","54068","","null","","","null","88","","NaN","","","","","","","","","","","","","",""
"","response","","html-keyboard-response","578","514728","0.0-1.0-797.0-0.0","0","0","54068","","1029","","","75","88","","","2","88","training","adjacent","DC","4","3","Q.jpg","L.jpg","0","0","1","",""
"","feedback","","html-keyboard-response","579","515731","0.0-1.0-798.0-0.0","0","0","54068","","null","","","null","88","","","","","","","","","","","","","","","",""
"","ITI","","html-keyboard-response","580","516733","0.0-1.0-801.0","0","0","54068","","null","","","null","88","","","","","","","","","","","","","","","NaN",""
"","S1","","html-keyboard-response","581","516985","0.0-1.0-803.0","0","0","54068","","null","","","null","89","","","","","","","","","","","","","","","",""
