"success","ttype","start_time","trial_type","trial_index","time_elapsed","internal_node_id","warning","missed_checkup","PID","view_history","rt","responses","repeat_instructions","key_press","index","keypress_isi","keypress_S2","block","trial_num","phase","group_type","pair_type","S1_stim","S2_stim","S1_img","S2_img","S1_chosen","S1_higher","accuracy","keypress_iti","total_bonus_tally"
"true","full_screen","d04062023hr1913","fullscreen","0","11624","0.0-0.0","0","0","84178","","","","","","","","","","","","","","","","","","","","","",""
"","instructions","","instructions","1","38970","0.0-1.0-0.0-0.0","0","0","84178","[{""page_index"":0,""viewing_time"":5136},{""page_index"":1,""viewing_time"":13733},{""page_index"":2,""viewing_time"":7245},{""page_index"":3,""viewing_time"":1229}]","27343","","","","","","","","","","","","","","","","","","","",""
"","comprehension_check","","survey-multi-choice","2","70471","0.0-1.0-0.0-1.0","0","0","84178","","31496","{""Q0"":""True"",""Q1"":""D"",""Q2"":""Only when the screen 'MAKE A CHOICE' is shown"",""Q3"":""Green mark"",""Q4"":""either D or K""}","1","","","","","","","","","","","","","","","","","",""
"","missed_instruction_checkup","","html-keyboard-response","3","72016","0.0-1.0-0.0-2.0-0.0","0","1","84178","","1541","","","32","","","","","","","","","","","","","","","","",""
"","instructions","","instructions","4","75179","0.0-1.0-0.1-0.1","0","0","84178","[{""page_index"":0,""viewing_time"":1724},{""page_index"":1,""viewing_time"":445},{""page_index"":2,""viewing_time"":453},{""page_index"":3,""viewing_time"":540}]","3162","","","","","","","","","","","","","","","","","","","",""
"","comprehension_check","","survey-multi-choice","5","84962","0.0-1.0-0.1-1.1","0","0","84178","","9780","{""Q0"":""True"",""Q1"":""D"",""Q2"":""Once the second image appears and while the screen 'MAKE A CHOICE' is shown"",""Q3"":""Green mark"",""Q4"":""either D or K""}","0","","","","","","","","","","","","","","","","","",""
"","start_exp","","html-keyboard-response","6","251533","0.0-1.0-1.0","0","0","84178","","166569","","","32","","","","","","","","","","","","","","","","",""
"","S1","","html-keyboard-response","7","251686","0.0-1.0-2.0","0","0","84178","","null","","","null","0","","","","","","","","","","","","","","","",""
"","ISI","","html-keyboard-response","8","253689","0.0-1.0-3.0","0","0","84178","","null","","","null","0","NaN","","","","","","","","","","","","","","",""
"","S2","","html-keyboard-response","9","253842","0.0-1.0-4.0","0","0","84178","","null","","","null","0","","NaN","","","","","","","","","","","","","",""
"","response","","html-keyboard-response","10","254274","0.0-1.0-5.0-0.0","0","0","84178","","431","","","75","0","","","1","0","training","adjacent","ED","5","4","O.jpg","P.jpg","0","0","1","",""
"","feedback","","html-keyboard-response","11","255277","0.0-1.0-6.0-0.0","0","0","84178","","null","","","null","0","","","","","","","","","","","","","","","",""
"","ITI","","html-keyboard-response","12","256280","0.0-1.0-9.0","0","0","84178","","null","","","null","0","","","","","","","","","","","","","","","NaN",""
"","S1","","html-keyboard-response","13","256432","0.0-1.0-11.0","0","0","84178","","null","","","null","1","","","","","","","","","","","","","","","",""
"","ISI","","html-keyboard-response","14","258434","0.0-1.0-12.0","0","0","84178","","null","","","null","1","NaN","","","","","","","","","","","","","","",""
"","S2","","html-keyboard-response","15","258587","0.0-1.0-13.0","0","0","84178","","null","","","null","1","","NaN","","","","","","","","","","","","","",""
"","response","","html-keyboard-response","16","258996","0.0-1.0-14.0-0.0","0","0","84178","","407","","","68","1","","","1","1","training","adjacent","BA","2","1","Q.jpg","L.jpg","1","0","0","",""
"","feedback","","html-keyboard-response","17","259998","0.0-1.0-15.0-0.0","0","0","84178","","null","","","null","1","","","","","","","","","","","","","","","",""
"","time_out","","html-keyboard-response","18","262000","0.0-1.0-17.0-0.0","0","0","84178","","null","","","null","1","","","","","","","","","","","","","","","",""
"","ITI","","html-keyboard-response","19","263002","0.0-1.0-18.0","0","0","84178","","null","","","null","1","","","","","","","","","","","","","","","NaN",""
"","S1","","html-keyboard-response","20","263154","0.0-1.0-20.0","0","0","84178","","null","","","null","2","","","","","","","","","","","","","","","",""
"","ISI","","html-keyboard-response","21","265157","0.0-1.0-21.0","0","0","84178","","null","","","null","2","NaN","","","","","","","","","","","","","","",""
"","S2","","html-keyboard-response","22","265310","0.0-1.0-22.0","0","0","84178","","null","","","null","2","","NaN","","","","","","","","","","","","","",""
"","response","","html-keyboard-response","23","265728","0.0-1.0-23.0-0.0","0","0","84178","","417","","","75","2","","","1","2","training","adjacent","GF","7","6","N.jpg","M.jpg","0","0","1","",""
"","feedback","","html-keyboard-response","24","266731","0.0-1.0-24.0-0.0","0","0","84178","","null","","","null","2","","","","","","","","","","","","","","","",""
"","ITI","","html-keyboard-response","25","267734","0.0-1.0-27.0","0","0","84178","","null","","","null","2","","","","","","","","","","","","","","","NaN",""
"","S1","","html-keyboard-response","26","267894","0.0-1.0-29.0","0","0","84178","","null","","","null","3","","","","","","","","","","","","","","","",""
"","ISI","","html-keyboard-response","27","269897","0.0-1.0-30.0","0","0","84178","","null","","","null","3","NaN","","","","","","","","","","","","","","",""
"","S2","","html-keyboard-response","28","270049","0.0-1.0-31.0","0","0","84178","","null","","","null","3","","NaN","","","","","","","","","","","","","",""
"","response","","html-keyboard-response","29","270289","0.0-1.0-32.0-0.0","0","0","84178","","238","","","68","3","","","1","3","training","adjacent","FG","6","7","M.jpg","N.jpg","1","1","1","",""
"","feedback","","html-keyboard-response","30","271291","0.0-1.0-33.0-0.0","0","0","84178","","null","","","null","3","","","","","","","","","","","","","","","",""
"","ITI","","html-keyboard-response","31","272293","0.0-1.0-36.0","0","0","84178","","null","","","null","3","","","","","","","","","","","","","","","NaN",""
"","S1","","html-keyboard-response","32","272445","0.0-1.0-38.0","0","0","84178","","null","","","null","4","","","","","","","","","","","","","","","",""
"","ISI","","html-keyboard-response","33","274448","0.0-1.0-39.0","0","0","84178","","null","","","null","4","NaN","","","","","","","","","","","","","","",""
"","S2","","html-keyboard-response","34","274601","0.0-1.0-40.0","0","0","84178","","null","","","null","4","","NaN","","","","","","","","","","","","","",""
"","response","","html-keyboard-response","35","275114","0.0-1.0-41.0-0.0","0","0","84178","","512","","","75","4","","","1","4","training","adjacent","AB","1","2","L.jpg","Q.jpg","0","1","0","",""
"","feedback","","html-keyboard-response","36","276117","0.0-1.0-42.0-0.0","0","0","84178","","null","","","null","4","","","","","","","","","","","","","","","",""
"","time_out","","html-keyboard-response","37","278119","0.0-1.0-44.0-0.0","0","0","84178","","null","","","null","4","","","","","","","","","","","","","","","",""
"","ITI","","html-keyboard-response","38","279121","0.0-1.0-45.0","0","0","84178","","null","","","null","4","","","","","","","","","","","","","","","NaN",""
"","S1","","html-keyboard-response","39","279274","0.0-1.0-47.0","0","0","84178","","null","","","null","5","","","","","","","","","","","","","","","",""
"","ISI","","html-keyboard-response","40","281277","0.0-1.0-48.0","0","0","84178","","null","","","null","5","NaN","","","","","","","","","","","","","","",""
"","S2","","html-keyboard-response","41","281430","0.0-1.0-49.0","0","0","84178","","null","","","null","5","","NaN","","","","","","","","","","","","","",""
"","response","","html-keyboard-response","42","281743","0.0-1.0-50.0-0.0","0","0","84178","","312","","","75","5","","","1","5","training","adjacent","BC","2","3","Q.jpg","R.jpg","0","1","0","",""
"","feedback","","html-keyboard-response","43","282746","0.0-1.0-51.0-0.0","0","0","84178","","null","","","null","5","","","","","","","","","","","","","","","",""
"","time_out","","html-keyboard-response","44","284748","0.0-1.0-53.0-0.0","0","0","84178","","null","","","null","5","","","","","","","","","","","","","","","",""
"","ITI","","html-keyboard-response","45","285750","0.0-1.0-54.0","0","0","84178","","null","","","null","5","","","","","","","","","","","","","","","NaN",""
"","S1","","html-keyboard-response","46","285902","0.0-1.0-56.0","0","0","84178","","null","","","null","6","","","","","","","","","","","","","","","",""
"","ISI","","html-keyboard-response","47","287903","0.0-1.0-57.0","0","0","84178","","null","","","null","6","NaN","","","","","","","","","","","","","","",""
"","S2","","html-keyboard-response","48","288056","0.0-1.0-58.0","0","0","84178","","null","","","null","6","","NaN","","","","","","","","","","","","","",""
"","response","","html-keyboard-response","49","288463","0.0-1.0-59.0-0.0","0","0","84178","","405","","","75","6","","","1","6","training","adjacent","DE","4","5","P.jpg","O.jpg","0","1","0","",""
"","feedback","","html-keyboard-response","50","289465","0.0-1.0-60.0-0.0","0","0","84178","","null","","","null","6","","","","","","","","","","","","","","","",""
"","time_out","","html-keyboard-response","51","291468","0.0-1.0-62.0-0.0","0","0","84178","","null","","","null","6","","","","","","","","","","","","","","","",""
"","ITI","","html-keyboard-response","52","292470","0.0-1.0-63.0","0","0","84178","","null","","","null","6","","","","","","","","","","","","","","","NaN",""
"","S1","","html-keyboard-response","53","292622","0.0-1.0-65.0","0","0","84178","","null","","","null","7","","","","","","","","","","","","","","","",""
"","ISI","","html-keyboard-response","54","294624","0.0-1.0-66.0","0","0","84178","","null","","","null","7","NaN","","","","","","","","","","","","","","",""
"","S2","","html-keyboard-response","55","294777","0.0-1.0-67.0","0","0","84178","","null","","","null","7","","NaN","","","","","","","","","","","","","",""
"","response","","html-keyboard-response","56","295288","0.0-1.0-68.0-0.0","0","0","84178","","509","","","75","7","","","1","7","training","adjacent","EF","5","6","O.jpg","M.jpg","0","1","0","",""
"","feedback","","html-keyboard-response","57","296290","0.0-1.0-69.0-0.0","0","0","84178","","null","","","null","7","","","","","","","","","","","","","","","",""
"","time_out","","html-keyboard-response","58","298292","0.0-1.0-71.0-0.0","0","0","84178","","null","","","null","7","","","","","","","","","","","","","","","",""
"","ITI","","html-keyboard-response","59","299295","0.0-1.0-72.0","0","0","84178","","null","","","null","7","","","","","","","","","","","","","","","NaN",""
"","S1","","html-keyboard-response","60","299447","0.0-1.0-74.0","0","0","84178","","null","","","null","8","","","","","","","","","","","","","","","",""
"","ISI","","html-keyboard-response","61","301449","0.0-1.0-75.0","0","0","84178","","null","","","null","8","NaN","","","","","","","","","","","","","","",""
"","S2","","html-keyboard-response","62","301601","0.0-1.0-76.0","0","0","84178","","null","","","null","8","","NaN","","","","","","","","","","","","","",""
"","response","","html-keyboard-response","63","301991","0.0-1.0-77.0-0.0","0","0","84178","","389","","","68","8","","","1","8","training","adjacent","ED","5","4","O.jpg","P.jpg","1","0","0","",""
"","feedback","","html-keyboard-response","64","302994","0.0-1.0-78.0-0.0","0","0","84178","","null","","","null","8","","","","","","","","","","","","","","","",""
"","time_out","","html-keyboard-response","65","304997","0.0-1.0-80.0-0.0","0","0","84178","","null","","","null","8","","","","","","","","","","","","","","","",""
"","ITI","","html-keyboard-response","66","306000","0.0-1.0-81.0","0","0","84178","","null","","","null","8","","","","","","","","","","","","","","","NaN",""
"","S1","","html-keyboard-response","67","306152","0.0-1.0-83.0","0","0","84178","","null","","","null","9","","","","","","","","","","","","","","","",""
"","ISI","","html-keyboard-response","68","308154","0.0-1.0-84.0","0","0","84178","","null","","","null","9","NaN","","","","","","","","","","","","","","",""
"","S2","","html-keyboard-response","69","308315","0.0-1.0-85.0","0","0","84178","","null","","","null","9","","NaN","","","","","","","","","","","","","",""
"","response","","html-keyboard-response","70","308661","0.0-1.0-86.0-0.0","0","0","84178","","345","","","68","9","","","1","9","training","adjacent","AB","1","2","L.jpg","Q.jpg","1","1","1","",""
"","feedback","","html-keyboard-response","71","309664","0.0-1.0-87.0-0.0","0","0","84178","","null","","","null","9","","","","","","","","","","","","","","","",""
"","ITI","","html-keyboard-response","72","310667","0.0-1.0-90.0","0","0","84178","","null","","","null","9","","","","","","","","","","","","","","","NaN",""
"","S1","","html-keyboard-response","73","310819","0.0-1.0-92.0","0","0","84178","","null","","","null","10","","","","","","","","","","","","","","","",""
"","ISI","","html-keyboard-response","74","312821","0.0-1.0-93.0","0","0","84178","","null","","","null","10","NaN","","","","","","","","","","","","","","",""
"","S2","","html-keyboard-response","75","312973","0.0-1.0-94.0","0","0","84178","","null","","","null","10","","NaN","","","","","","","","","","","","","",""
"","response","","html-keyboard-response","76","313432","0.0-1.0-95.0-0.0","0","0","84178","","457","","","75","10","","","1","10","training","adjacent","DE","4","5","P.jpg","O.jpg","0","1","0","",""
"","feedback","","html-keyboard-response","77","314434","0.0-1.0-96.0-0.0","0","0","84178","","null","","","null","10","","","","","","","","","","","","","","","",""
"","time_out","","html-keyboard-response","78","316437","0.0-1.0-98.0-0.0","0","0","84178","","null","","","null","10","","","","","","","","","","","","","","","",""
"","ITI","","html-keyboard-response","79","317440","0.0-1.0-99.0","0","0","84178","","null","","","null","10","","","","","","","","","","","","","","","NaN",""
"","S1","","html-keyboard-response","80","317592","0.0-1.0-101.0","0","0","84178","","null","","","null","11","","","","","","","","","","","","","","","",""
"","ISI","","html-keyboard-response","81","319594","0.0-1.0-102.0","0","0","84178","","null","","","null","11","NaN","","","","","","","","","","","","","","",""
"","S2","","html-keyboard-response","82","319757","0.0-1.0-103.0","0","0","84178","","null","","","null","11","","NaN","","","","","","","","","","","","","",""
"","response","","html-keyboard-response","83","320244","0.0-1.0-104.0-0.0","0","0","84178","","485","","","68","11","","","1","11","training","adjacent","FE","6","5","M.jpg","O.jpg","1","0","0","",""
"","feedback","","html-keyboard-response","84","321246","0.0-1.0-105.0-0.0","0","0","84178","","null","","","null","11","","","","","","","","","","","","","","","",""
"","time_out","","html-keyboard-response","85","323248","0.0-1.0-107.0-0.0","0","0","84178","","null","","","null","11","","","","","","","","","","","","","","","",""
"","ITI","","html-keyboard-response","86","324250","0.0-1.0-108.0","0","0","84178","","null","","","null","11","","","","","","","","","","","","","","","NaN",""
"","S1","","html-keyboard-response","87","324402","0.0-1.0-110.0","0","0","84178","","null","","","null","12","","","","","","","","","","","","","","","",""
"","ISI","","html-keyboard-response","88","326405","0.0-1.0-111.0","0","0","84178","","null","","","null","12","NaN","","","","","","","","","","","","","","",""
"","S2","","html-keyboard-response","89","326557","0.0-1.0-112.0","0","0","84178","","null","","","null","12","","NaN","","","","","","","","","","","","","",""
"","response","","html-keyboard-response","90","326764","0.0-1.0-113.0-0.0","0","0","84178","","205","","","75","12","","","1","12","training","adjacent","CD","3","4","R.jpg","P.jpg","0","1","0","",""
"","feedback","","html-keyboard-response","91","327768","0.0-1.0-114.0-0.0","0","0","84178","","null","","","null","12","","","","","","","","","","","","","","","",""
"","time_out","","html-keyboard-response","92","329770","0.0-1.0-116.0-0.0","0","0","84178","","null","","","null","12","","","","","","","","","","","","","","","",""
"","ITI","","html-keyboard-response","93","330772","0.0-1.0-117.0","0","0","84178","","null","","","null","12","","","","","","","","","","","","","","","NaN",""
"","S1","","html-keyboard-response","94","330924","0.0-1.0-119.0","0","0","84178","","null","","","null","13","","","","","","","","","","","","","","","",""
"","ISI","","html-keyboard-response","95","332926","0.0-1.0-120.0","0","0","84178","","null","","","null","13","NaN","","","","","","","","","","","","","","",""
"","S2","","html-keyboard-response","96","333078","0.0-1.0-121.0","0","0","84178","","null","","","null","13","","NaN","","","","","","","","","","","","","",""
"","response","","html-keyboard-response","97","333668","0.0-1.0-122.0-0.0","0","0","84178","","587","","","68","13","","","1","13","training","adjacent","DC","4","3","P.jpg","R.jpg","1","0","0","",""
"","feedback","","html-keyboard-response","98","334671","0.0-1.0-123.0-0.0","0","0","84178","","null","","","null","13","","","","","","","","","","","","","","","",""
"","time_out","","html-keyboard-response","99","336673","0.0-1.0-125.0-0.0","0","0","84178","","null","","","null","13","","","","","","","","","","","","","","","",""
"","ITI","","html-keyboard-response","100","337675","0.0-1.0-126.0","0","0","84178","","null","","","null","13","","","","","","","","","","","","","","","NaN",""
"","S1","","html-keyboard-response","101","337827","0.0-1.0-128.0","0","0","84178","","null","","","null","14","","","","","","","","","","","","","","","",""
"","ISI","","html-keyboard-response","102","339829","0.0-1.0-129.0","0","0","84178","","null","","","null","14","NaN","","","","","","","","","","","","","","",""
"","S2","","html-keyboard-response","103","339981","0.0-1.0-130.0","0","0","84178","","null","","","null","14","","NaN","","","","","","","","","","","","","",""
"","response","","html-keyboard-response","104","340639","0.0-1.0-131.0-0.0","0","0","84178","","657","","","75","14","","","1","14","training","adjacent","EF","5","6","O.jpg","M.jpg","0","1","0","",""
"","feedback","","html-keyboard-response","105","341642","0.0-1.0-132.0-0.0","0","0","84178","","null","","","null","14","","","","","","","","","","","","","","","",""
"","time_out","","html-keyboard-response","106","343644","0.0-1.0-134.0-0.0","0","0","84178","","null","","","null","14","","","","","","","","","","","","","","","",""
"","ITI","","html-keyboard-response","107","344647","0.0-1.0-135.0","0","0","84178","","null","","","null","14","","","","","","","","","","","","","","","NaN",""
"","S1","","html-keyboard-response","108","344799","0.0-1.0-137.0","0","0","84178","","null","","","null","15","","","","","","","","","","","","","","","",""
"","ISI","","html-keyboard-response","109","346801","0.0-1.0-138.0","0","0","84178","","null","","","null","15","NaN","","","","","","","","","","","","","","",""
"","S2","","html-keyboard-response","110","346953","0.0-1.0-139.0","0","0","84178","","null","","","null","15","","NaN","","","","","","","","","","","","","",""
"","response","","html-keyboard-response","111","347326","0.0-1.0-140.0-0.0","0","0","84178","","371","","","68","15","","","1","15","training","adjacent","DC","4","3","P.jpg","R.jpg","1","0","0","",""
"","feedback","","html-keyboard-response","112","348329","0.0-1.0-141.0-0.0","0","0","84178","","null","","","null","15","","","","","","","","","","","","","","","",""
"","time_out","","html-keyboard-response","113","350332","0.0-1.0-143.0-0.0","0","0","84178","","null","","","null","15","","","","","","","","","","","","","","","",""
"","ITI","","html-keyboard-response","114","351336","0.0-1.0-144.0","0","0","84178","","null","","","null","15","","","","","","","","","","","","","","","NaN",""
"","S1","","html-keyboard-response","115","351489","0.0-1.0-146.0","0","0","84178","","null","","","null","16","","","","","","","","","","","","","","","",""
"","ISI","","html-keyboard-response","116","353491","0.0-1.0-147.0","0","0","84178","","null","","","null","16","NaN","","","","","","","","","","","","","","",""
"","S2","","html-keyboard-response","117","353643","0.0-1.0-148.0","0","0","84178","","null","","","null","16","","NaN","","","","","","","","","","","","","",""
"","response","","html-keyboard-response","118","354030","0.0-1.0-149.0-0.0","0","0","84178","","383","","","68","16","","","1","16","training","adjacent","AB","1","2","L.jpg","Q.jpg","1","1","1","",""
"","feedback","","html-keyboard-response","119","355032","0.0-1.0-150.0-0.0","0","0","84178","","null","","","null","16","","","","","","","","","","","","","","","",""
"","ITI","","html-keyboard-response","120","356034","0.0-1.0-153.0","0","0","84178","","null","","","null","16","","","","","","","","","","","","","","","NaN",""
"","S1","","html-keyboard-response","121","356187","0.0-1.0-155.0","0","0","84178","","null","","","null","17","","","","","","","","","","","","","","","",""
"","ISI","","html-keyboard-response","122","358189","0.0-1.0-156.0","0","0","84178","","null","","","null","17","NaN","","","","","","","","","","","","","","",""
"","S2","","html-keyboard-response","123","358341","0.0-1.0-157.0","0","0","84178","","null","","","null","17","","NaN","","","","","","","","","","","","","",""
"","response","","html-keyboard-response","124","358888","0.0-1.0-158.0-0.0","0","0","84178","","545","","","68","17","","","1","17","training","adjacent","FG","6","7","M.jpg","N.jpg","1","1","1","",""
"","feedback","","html-keyboard-response","125","359890","0.0-1.0-159.0-0.0","0","0","84178","","null","","","null","17","","","","","","","","","","","","","","","",""
"","ITI","","html-keyboard-response","126","360892","0.0-1.0-162.0","0","0","84178","","null","","","null","17","","","","","","","","","","","","","","","NaN",""
"","S1","","html-keyboard-response","127","361044","0.0-1.0-164.0","0","0","84178","","null","","","null","18","","","","","","","","","","","","","","","",""
"","ISI","","html-keyboard-response","128","363047","0.0-1.0-165.0","0","0","84178","","null","","","null","18","NaN","","","","","","","","","","","","","","",""
"","S2","","html-keyboard-response","129","363200","0.0-1.0-166.0","0","0","84178","","null","","","null","18","","NaN","","","","","","","","","","","","","",""
"","response","","html-keyboard-response","130","363508","0.0-1.0-167.0-0.0","0","0","84178","","307","","","68","18","","","1","18","training","adjacent","CB","3","2","R.jpg","Q.jpg","1","0","0","",""
"","feedback","","html-keyboard-response","131","364511","0.0-1.0-168.0-0.0","0","0","84178","","null","","","null","18","","","","","","","","","","","","","","","",""
"","time_out","","html-keyboard-response","132","366514","0.0-1.0-170.0-0.0","0","0","84178","","null","","","null","18","","","","","","","","","","","","","","","",""
"","ITI","","html-keyboard-response","133","367517","0.0-1.0-171.0","0","0","84178","","null","","","null","18","","","","","","","","","","","","","","","NaN",""
"","S1","","html-keyboard-response","134","367669","0.0-1.0-173.0","0","0","84178","","null","","","null","19","","","","","","","","","","","","","","","",""
"","ISI","","html-keyboard-response","135","369682","0.0-1.0-174.0","0","0","84178","","null","","","null","19","NaN","","","","","","","","","","","","","","",""
"","S2","","html-keyboard-response","136","369835","0.0-1.0-175.0","0","0","84178","","null","","","null","19","","NaN","","","","","","","","","","","","","",""
"","response","","html-keyboard-response","137","370157","0.0-1.0-176.0-0.0","0","0","84178","","321","","","75","19","","","1","19","training","adjacent","CD","3","4","R.jpg","P.jpg","0","1","0","",""
"","feedback","","html-keyboard-response","138","371159","0.0-1.0-177.0-0.0","0","0","84178","","null","","","null","19","","","","","","","","","","","","","","","",""
"","time_out","","html-keyboard-response","139","373161","0.0-1.0-179.0-0.0","0","0","84178","","null","","","null","19","","","","","","","","","","","","","","","",""
"","ITI","","html-keyboard-response","140","374163","0.0-1.0-180.0","0","0","84178","","null","","","null","19","","","","","","","","","","","","","","","NaN",""
"","S1","","html-keyboard-response","141","374316","0.0-1.0-182.0","0","0","84178","","null","","","null","20","","","","","","","","","","","","","","","",""
"","ISI","","html-keyboard-response","142","376318","0.0-1.0-183.0","0","0","84178","","null","","","null","20","NaN","","","","","","","","","","","","","","",""
"","S2","","html-keyboard-response","143","376470","0.0-1.0-184.0","0","0","84178","","null","","","null","20","","NaN","","","","","","","","","","","","","",""
"","response","","html-keyboard-response","144","376733","0.0-1.0-185.0-0.0","0","0","84178","","261","","","68","20","","","1","20","training","adjacent","CB","3","2","R.jpg","Q.jpg","1","0","0","",""
"","feedback","","html-keyboard-response","145","377736","0.0-1.0-186.0-0.0","0","0","84178","","null","","","null","20","","","","","","","","","","","","","","","",""
"","time_out","","html-keyboard-response","146","379739","0.0-1.0-188.0-0.0","0","0","84178","","null","","","null","20","","","","","","","","","","","","","","","",""
"","ITI","","html-keyboard-response","147","380741","0.0-1.0-189.0","0","0","84178","","null","","","null","20","","","","","","","","","","","","","","","NaN",""
"","S1","","html-keyboard-response","148","380893","0.0-1.0-191.0","0","0","84178","","null","","","null","21","","","","","","","","","","","","","","","",""
"","ISI","","html-keyboard-response","149","382895","0.0-1.0-192.0","0","0","84178","","null","","","null","21","NaN","","","","","","","","","","","","","","",""
"","S2","","html-keyboard-response","150","383047","0.0-1.0-193.0","0","0","84178","","null","","","null","21","","NaN","","","","","","","","","","","","","",""
"","response","","html-keyboard-response","151","383462","0.0-1.0-194.0-0.0","0","0","84178","","413","","","75","21","","","1","21","training","adjacent","CB","3","2","R.jpg","Q.jpg","0","0","1","",""
"","feedback","","html-keyboard-response","152","384464","0.0-1.0-195.0-0.0","0","0","84178","","null","","","null","21","","","","","","","","","","","","","","","",""
"","ITI","","html-keyboard-response","153","385467","0.0-1.0-198.0","0","0","84178","","null","","","null","21","","","","","","","","","","","","","","","NaN",""
"","S1","","html-keyboard-response","154","385620","0.0-1.0-200.0","0","0","84178","","null","","","null","22","","","","","","","","","","","","","","","",""
"","ISI","","html-keyboard-response","155","387622","0.0-1.0-201.0","0","0","84178","","null","","","null","22","NaN","","","","","","","","","","","","","","",""
"","S2","","html-keyboard-response","156","387774","0.0-1.0-202.0","0","0","84178","","null","","","null","22","","NaN","","","","","","","","","","","","","",""
"","response","","html-keyboard-response","157","388311","0.0-1.0-203.0-0.0","0","0","84178","","536","","","68","22","","","1","22","training","adjacent","AB","1","2","L.jpg","Q.jpg","1","1","1","",""
"","feedback","","html-keyboard-response","158","389314","0.0-1.0-204.0-0.0","0","0","84178","","null","","","null","22","","","","","","","","","","","","","","","",""
"","ITI","","html-keyboard-response","159","390316","0.0-1.0-207.0","0","0","84178","","null","","","null","22","","","","","","","","","","","","","","","NaN",""
"","S1","","html-keyboard-response","160","390470","0.0-1.0-209.0","0","0","84178","","null","","","null","23","","","","","","","","","","","","","","","",""
"","ISI","","html-keyboard-response","161","392471","0.0-1.0-210.0","0","0","84178","","null","","","null","23","NaN","","","","","","","","","","","","","","",""
"","S2","","html-keyboard-response","162","392623","0.0-1.0-211.0","0","0","84178","","null","","","null","23","","NaN","","","","","","","","","","","","","",""
"","response","","html-keyboard-response","163","393093","0.0-1.0-212.0-0.0","0","0","84178","","467","","","75","23","","","1","23","training","adjacent","FE","6","5","M.jpg","O.jpg","0","0","1","",""
"","feedback","","html-keyboard-response","164","394096","0.0-1.0-213.0-0.0","0","0","84178","","null","","","null","23","","","","","","","","","","","","","","","",""
"","ITI","","html-keyboard-response","165","395099","0.0-1.0-216.0","0","0","84178","","null","","","null","23","","","","","","","","","","","","","","","NaN",""
"","S1","","html-keyboard-response","166","395251","0.0-1.0-218.0","0","0","84178","","null","","","null","24","","","","","","","","","","","","","","","",""
"","ISI","","html-keyboard-response","167","397253","0.0-1.0-219.0","0","0","84178","","null","","","null","24","NaN","","","","","","","","","","","","","","",""
"","S2","","html-keyboard-response","168","397416","0.0-1.0-220.0","0","0","84178","","null","","","null","24","","NaN","","","","","","","","","","","","","",""
"","response","","html-keyboard-response","169","397940","0.0-1.0-221.0-0.0","0","0","84178","","523","","","75","24","","","1","24","training","adjacent","DC","4","3","P.jpg","R.jpg","0","0","1","",""
"","feedback","","html-keyboard-response","170","398943","0.0-1.0-222.0-0.0","0","0","84178","","null","","","null","24","","","","","","","","","","","","","","","",""
"","ITI","","html-keyboard-response","171","399946","0.0-1.0-225.0","0","0","84178","","null","","","null","24","","","","","","","","","","","","","","","NaN",""
"","S1","","html-keyboard-response","172","400098","0.0-1.0-227.0","0","0","84178","","null","","","null","25","","","","","","","","","","","","","","","",""
"","ISI","","html-keyboard-response","173","402101","0.0-1.0-228.0","0","0","84178","","null","","","null","25","NaN","","","","","","","","","","","","","","",""
"","S2","","html-keyboard-response","174","402253","0.0-1.0-229.0","0","0","84178","","null","","","null","25","","NaN","","","","","","","","","","","","","",""
"","response","","html-keyboard-response","175","402973","0.0-1.0-230.0-0.0","0","0","84178","","719","","","68","25","","","1","25","training","adjacent","ED","5","4","O.jpg","P.jpg","1","0","0","",""
"","feedback","","html-keyboard-response","176","403975","0.0-1.0-231.0-0.0","0","0","84178","","null","","","null","25","","","","","","","","","","","","","","","",""
"","time_out","","html-keyboard-response","177","405978","0.0-1.0-233.0-0.0","0","0","84178","","null","","","null","25","","","","","","","","","","","","","","","",""
"","ITI","","html-keyboard-response","178","406980","0.0-1.0-234.0","0","0","84178","","null","","","null","25","","","","","","","","","","","","","","","NaN",""
"","S1","","html-keyboard-response","179","407133","0.0-1.0-236.0","0","0","84178","","null","","","null","26","","","","","","","","","","","","","","","",""
"","ISI","","html-keyboard-response","180","409135","0.0-1.0-237.0","0","0","84178","","null","","","null","26","NaN","","","","","","","","","","","","","","",""
"","S2","","html-keyboard-response","181","409288","0.0-1.0-238.0","0","0","84178","","null","","","null","26","","NaN","","","","","","","","","","","","","",""
"","response","","html-keyboard-response","182","409734","0.0-1.0-239.0-0.0","0","0","84178","","445","","","75","26","","","1","26","training","adjacent","BA","2","1","Q.jpg","L.jpg","0","0","1","",""
"","feedback","","html-keyboard-response","183","410736","0.0-1.0-240.0-0.0","0","0","84178","","null","","","null","26","","","","","","","","","","","","","","","",""
"","ITI","","html-keyboard-response","184","411738","0.0-1.0-243.0","0","0","84178","","null","","","null","26","","","","","","","","","","","","","","","NaN",""
"","S1","","html-keyboard-response","185","411891","0.0-1.0-245.0","0","0","84178","","null","","","null","27","","","","","","","","","","","","","","","",""
"","ISI","","html-keyboard-response","186","413893","0.0-1.0-246.0","0","0","84178","","null","","","null","27","NaN","","","","","","","","","","","","","","",""
"","S2","","html-keyboard-response","187","414049","0.0-1.0-247.0","0","0","84178","","null","","","null","27","","NaN","","","","","","","","","","","","","",""
"","response","","html-keyboard-response","188","414559","0.0-1.0-248.0-0.0","0","0","84178","","508","","","75","27","","","1","27","training","adjacent","FE","6","5","M.jpg","O.jpg","0","0","1","",""
"","feedback","","html-keyboard-response","189","415561","0.0-1.0-249.0-0.0","0","0","84178","","null","","","null","27","","","","","","","","","","","","","","","",""
"","ITI","","html-keyboard-response","190","416563","0.0-1.0-252.0","0","0","84178","","null","","","null","27","","","","","","","","","","","","","","","NaN",""
"","S1","","html-keyboard-response","191","416716","0.0-1.0-254.0","0","0","84178","","null","","","null","28","","","","","","","","","","","","","","","",""
"","ISI","","html-keyboard-response","192","418718","0.0-1.0-255.0","0","0","84178","","null","","","null","28","NaN","","","","","","","","","","","","","","",""
"","S2","","html-keyboard-response","193","418871","0.0-1.0-256.0","0","0","84178","","null","","","null","28","","NaN","","","","","","","","","","","","","",""
"","response","","html-keyboard-response","194","419114","0.0-1.0-257.0-0.0","0","0","84178","","242","","","75","28","","","1","28","training","adjacent","GF","7","6","N.jpg","M.jpg","0","0","1","",""
"","feedback","","html-keyboard-response","195","420117","0.0-1.0-258.0-0.0","0","0","84178","","null","","","null","28","","","","","","","","","","","","","","","",""
"","ITI","","html-keyboard-response","196","421119","0.0-1.0-261.0","0","0","84178","","null","","","null","28","","","","","","","","","","","","","","","NaN",""
"","S1","","html-keyboard-response","197","421273","0.0-1.0-263.0","0","0","84178","","null","","","null","29","","","","","","","","","","","","","","","",""
"","ISI","","html-keyboard-response","198","423275","0.0-1.0-264.0","0","0","84178","","null","","","null","29","NaN","","","","","","","","","","","","","","",""
"","S2","","html-keyboard-response","199","423428","0.0-1.0-265.0","0","0","84178","","null","","","null","29","","NaN","","","","","","","","","","","","","",""
"","response","","html-keyboard-response","200","423967","0.0-1.0-266.0-0.0","0","0","84178","","537","","","68","29","","","1","29","training","adjacent","EF","5","6","O.jpg","M.jpg","1","1","1","",""
"","feedback","","html-keyboard-response","201","424970","0.0-1.0-267.0-0.0","0","0","84178","","null","","","null","29","","","","","","","","","","","","","","","",""
"","ITI","","html-keyboard-response","202","425973","0.0-1.0-270.0","0","0","84178","","null","","","null","29","","","","","","","","","","","","","","","NaN",""
"","S1","","html-keyboard-response","203","426125","0.0-1.0-272.0","0","0","84178","","null","","","null","30","","","","","","","","","","","","","","","",""
"","ISI","","html-keyboard-response","204","428128","0.0-1.0-273.0","0","0","84178","","null","","","null","30","NaN","","","","","","","","","","","","","","",""
"","S2","","html-keyboard-response","205","428280","0.0-1.0-274.0","0","0","84178","","null","","","null","30","","NaN","","","","","","","","","","","","","",""
"","response","","html-keyboard-response","206","429087","0.0-1.0-275.0-0.0","0","0","84178","","805","","","75","30","","","1","30","training","adjacent","DE","4","5","P.jpg","O.jpg","0","1","0","",""
"","feedback","","html-keyboard-response","207","430090","0.0-1.0-276.0-0.0","0","0","84178","","null","","","null","30","","","","","","","","","","","","","","","",""
"","time_out","","html-keyboard-response","208","432093","0.0-1.0-278.0-0.0","0","0","84178","","null","","","null","30","","","","","","","","","","","","","","","",""
"","ITI","","html-keyboard-response","209","433095","0.0-1.0-279.0","0","0","84178","","null","","","null","30","","","","","","","","","","","","","","","NaN",""
"","S1","","html-keyboard-response","210","433247","0.0-1.0-281.0","0","0","84178","","null","","","null","31","","","","","","","","","","","","","","","",""
"","ISI","","html-keyboard-response","211","435249","0.0-1.0-282.0","0","0","84178","","null","","","null","31","NaN","","","","","","","","","","","","","","",""
"","S2","","html-keyboard-response","212","435402","0.0-1.0-283.0","0","0","84178","","null","","","null","31","","NaN","","","","","","","","","","","","","",""
"","response","","html-keyboard-response","213","435932","0.0-1.0-284.0-0.0","0","0","84178","","529","","","68","31","","","1","31","training","adjacent","EF","5","6","O.jpg","M.jpg","1","1","1","",""
"","feedback","","html-keyboard-response","214","436935","0.0-1.0-285.0-0.0","0","0","84178","","null","","","null","31","","","","","","","","","","","","","","","",""
"","ITI","","html-keyboard-response","215","437937","0.0-1.0-288.0","0","0","84178","","null","","","null","31","","","","","","","","","","","","","","","NaN",""
"","S1","","html-keyboard-response","216","438089","0.0-1.0-290.0","0","0","84178","","null","","","null","32","","","","","","","","","","","","","","","",""
"","ISI","","html-keyboard-response","217","440091","0.0-1.0-291.0","0","0","84178","","null","","","null","32","NaN","","","","","","","","","","","","","","",""
"","S2","","html-keyboard-response","218","440243","0.0-1.0-292.0","0","0","84178","","null","","","null","32","","NaN","","","","","","","","","","","","","",""
"","response","","html-keyboard-response","219","441161","0.0-1.0-293.0-0.0","0","0","84178","","917","","","68","32","","","1","32","training","adjacent","CD","3","4","R.jpg","P.jpg","1","1","1","",""
"","feedback","","html-keyboard-response","220","442164","0.0-1.0-294.0-0.0","0","0","84178","","null","","","null","32","","","","","","","","","","","","","","","",""
"","ITI","","html-keyboard-response","221","443166","0.0-1.0-297.0","0","0","84178","","null","","","null","32","","","","","","","","","","","","","","","NaN",""
"","S1","","html-keyboard-response","222","443319","0.0-1.0-299.0","0","0","84178","","null","","","null","33","","","","","","","","","","","","","","","",""
"","ISI","","html-keyboard-response","223","445320","0.0-1.0-300.0","0","0","84178","","null","","","null","33","NaN","","","","","","","","","","","","","","",""
"","S2","","html-keyboard-response","224","445473","0.0-1.0-301.0","0","0","84178","","null","","","null","33","","NaN","","","","","","","","","","","","","",""
"","response","","html-keyboard-response","225","445818","0.0-1.0-302.0-0.0","0","0","84178","","344","","","75","33","","","1","33","training","adjacent","BA","2","1","Q.jpg","L.jpg","0","0","1","",""
"","feedback","","html-keyboard-response","226","446820","0.0-1.0-303.0-0.0","0","0","84178","","null","","","null","33","","","","","","","","","","","","","","","",""
"","ITI","","html-keyboard-response","227","447823","0.0-1.0-306.0","0","0","84178","","null","","","null","33","","","","","","","","","","","","","","","NaN",""
"","S1","","html-keyboard-response","228","447983","0.0-1.0-308.0","0","0","84178","","null","","","null","34","","","","","","","","","","","","","","","",""
"","ISI","","html-keyboard-response","229","449986","0.0-1.0-309.0","0","0","84178","","null","","","null","34","NaN","","","","","","","","","","","","","","",""
"","S2","","html-keyboard-response","230","450138","0.0-1.0-310.0","0","0","84178","","null","","","null","34","","NaN","","","","","","","","","","","","","",""
"","response","","html-keyboard-response","231","451159","0.0-1.0-311.0-0.0","0","0","84178","","1019","","","68","34","","","1","34","training","adjacent","BC","2","3","Q.jpg","R.jpg","1","1","1","",""
"","feedback","","html-keyboard-response","232","452163","0.0-1.0-312.0-0.0","0","0","84178","","null","","","null","34","","","","","","","","","","","","","","","",""
"","ITI","","html-keyboard-response","233","453166","0.0-1.0-315.0","0","0","84178","","null","","","null","34","","","","","","","","","","","","","","","NaN",""
"","S1","","html-keyboard-response","234","453318","0.0-1.0-317.0","0","0","84178","","null","","","null","35","","","","","","","","","","","","","","","",""
"","ISI","","html-keyboard-response","235","455321","0.0-1.0-318.0","0","0","84178","","null","","","null","35","NaN","","","","","","","","","","","","","","",""
"","S2","","html-keyboard-response","236","455473","0.0-1.0-319.0","0","0","84178","","null","","","null","35","","NaN","","","","","","","","","","","","","",""
"","response","","html-keyboard-response","237","455658","0.0-1.0-320.0-0.0","0","0","84178","","183","","","75","35","","","1","35","training","adjacent","GF","7","6","N.jpg","M.jpg","0","0","1","",""
"","feedback","","html-keyboard-response","238","456661","0.0-1.0-321.0-0.0","0","0","84178","","null","","","null","35","","","","","","","","","","","","","","","",""
"","ITI","","html-keyboard-response","239","457663","0.0-1.0-324.0","0","0","84178","","null","","","null","35","","","","","","","","","","","","","","","NaN",""
"","S1","","html-keyboard-response","240","457815","0.0-1.0-326.0","0","0","84178","","null","","","null","36","","","","","","","","","","","","","","","",""
"","ISI","","html-keyboard-response","241","459817","0.0-1.0-327.0","0","0","84178","","null","","","null","36","NaN","","","","","","","","","","","","","","",""
"","S2","","html-keyboard-response","242","459970","0.0-1.0-328.0","0","0","84178","","null","","","null","36","","NaN","","","","","","","","","","","","","",""
"","response","","html-keyboard-response","243","460770","0.0-1.0-329.0-0.0","0","0","84178","","799","","","68","36","","","1","36","training","adjacent","DE","4","5","P.jpg","O.jpg","1","1","1","",""
"","feedback","","html-keyboard-response","244","461772","0.0-1.0-330.0-0.0","0","0","84178","","null","","","null","36","","","","","","","","","","","","","","","",""
"","ITI","","html-keyboard-response","245","462775","0.0-1.0-333.0","0","0","84178","","null","","","null","36","","","","","","","","","","","","","","","NaN",""
"","S1","","html-keyboard-response","246","462927","0.0-1.0-335.0","0","0","84178","","null","","","null","37","","","","","","","","","","","","","","","",""
"","ISI","","html-keyboard-response","247","464931","0.0-1.0-336.0","0","0","84178","","null","","","null","37","NaN","","","","","","","","","","","","","","",""
"","S2","","html-keyboard-response","248","465085","0.0-1.0-337.0","0","0","84178","","null","","","null","37","","NaN","","","","","","","","","","","","","",""
"","response","","html-keyboard-response","249","465828","0.0-1.0-338.0-0.0","0","0","84178","","742","","","75","37","","","1","37","training","adjacent","BC","2","3","Q.jpg","R.jpg","0","1","0","",""
"","feedback","","html-keyboard-response","250","466831","0.0-1.0-339.0-0.0","0","0","84178","","null","","","null","37","","","","","","","","","","","","","","","",""
"","time_out","","html-keyboard-response","251","468833","0.0-1.0-341.0-0.0","0","0","84178","","null","","","null","37","","","","","","","","","","","","","","","",""
"","ITI","","html-keyboard-response","252","469835","0.0-1.0-342.0","0","0","84178","","null","","","null","37","","","","","","","","","","","","","","","NaN",""
"","S1","","html-keyboard-response","253","469988","0.0-1.0-344.0","0","0","84178","","null","","","null","38","","","","","","","","","","","","","","","",""
"","ISI","","html-keyboard-response","254","471990","0.0-1.0-345.0","0","0","84178","","null","","","null","38","NaN","","","","","","","","","","","","","","",""
"","S2","","html-keyboard-response","255","472143","0.0-1.0-346.0","0","0","84178","","null","","","null","38","","NaN","","","","","","","","","","","","","",""
"","response","","html-keyboard-response","256","472644","0.0-1.0-347.0-0.0","0","0","84178","","500","","","68","38","","","1","38","training","adjacent","FG","6","7","M.jpg","N.jpg","1","1","1","",""
"","feedback","","html-keyboard-response","257","473647","0.0-1.0-348.0-0.0","0","0","84178","","null","","","null","38","","","","","","","","","","","","","","","",""
"","ITI","","html-keyboard-response","258","474649","0.0-1.0-351.0","0","0","84178","","null","","","null","38","","","","","","","","","","","","","","","NaN",""
"","S1","","html-keyboard-response","259","474801","0.0-1.0-353.0","0","0","84178","","null","","","null","39","","","","","","","","","","","","","","","",""
"","ISI","","html-keyboard-response","260","476803","0.0-1.0-354.0","0","0","84178","","null","","","null","39","NaN","","","","","","","","","","","","","","",""
"","S2","","html-keyboard-response","261","476956","0.0-1.0-355.0","0","0","84178","","null","","","null","39","","NaN","","","","","","","","","","","","","",""
"","response","","html-keyboard-response","262","477603","0.0-1.0-356.0-0.0","0","0","84178","","645","","","75","39","","","1","39","training","adjacent","GF","7","6","N.jpg","M.jpg","0","0","1","",""
"","feedback","","html-keyboard-response","263","478606","0.0-1.0-357.0-0.0","0","0","84178","","null","","","null","39","","","","","","","","","","","","","","","",""
"","ITI","","html-keyboard-response","264","479608","0.0-1.0-360.0","0","0","84178","","null","","","null","39","","","","","","","","","","","","","","","NaN",""
"","S1","","html-keyboard-response","265","479760","0.0-1.0-362.0","0","0","84178","","null","","","null","40","","","","","","","","","","","","","","","",""
"","ISI","","html-keyboard-response","266","481762","0.0-1.0-363.0","0","0","84178","","null","","","null","40","NaN","","","","","","","","","","","","","","",""
"","S2","","html-keyboard-response","267","481914","0.0-1.0-364.0","0","0","84178","","null","","","null","40","","NaN","","","","","","","","","","","","","",""
"","response","","html-keyboard-response","268","482662","0.0-1.0-365.0-0.0","0","0","84178","","746","","","75","40","","","1","40","training","adjacent","FE","6","5","M.jpg","O.jpg","0","0","1","",""
"","feedback","","html-keyboard-response","269","483664","0.0-1.0-366.0-0.0","0","0","84178","","null","","","null","40","","","","","","","","","","","","","","","",""
"","ITI","","html-keyboard-response","270","484666","0.0-1.0-369.0","0","0","84178","","null","","","null","40","","","","","","","","","","","","","","","NaN",""
"","S1","","html-keyboard-response","271","484819","0.0-1.0-371.0","0","0","84178","","null","","","null","41","","","","","","","","","","","","","","","",""
"","ISI","","html-keyboard-response","272","486821","0.0-1.0-372.0","0","0","84178","","null","","","null","41","NaN","","","","","","","","","","","","","","",""
"","S2","","html-keyboard-response","273","486973","0.0-1.0-373.0","0","0","84178","","null","","","null","41","","NaN","","","","","","","","","","","","","",""
"","response","","html-keyboard-response","274","487430","0.0-1.0-374.0-0.0","0","0","84178","","456","","","68","41","","","1","41","training","adjacent","FG","6","7","M.jpg","N.jpg","1","1","1","",""
"","feedback","","html-keyboard-response","275","488433","0.0-1.0-375.0-0.0","0","0","84178","","null","","","null","41","","","","","","","","","","","","","","","",""
"","ITI","","html-keyboard-response","276","489435","0.0-1.0-378.0","0","0","84178","","null","","","null","41","","","","","","","","","","","","","","","NaN",""
"","S1","","html-keyboard-response","277","489588","0.0-1.0-380.0","0","0","84178","","null","","","null","42","","","","","","","","","","","","","","","",""
"","ISI","","html-keyboard-response","278","491589","0.0-1.0-381.0","0","0","84178","","null","","","null","42","NaN","","","","","","","","","","","","","","",""
"","S2","","html-keyboard-response","279","491742","0.0-1.0-382.0","0","0","84178","","null","","","null","42","","NaN","","","","","","","","","","","","","",""
"","response","","html-keyboard-response","280","492056","0.0-1.0-383.0-0.0","0","0","84178","","313","","","75","42","","","1","42","training","adjacent","BA","2","1","Q.jpg","L.jpg","0","0","1","",""
"","feedback","","html-keyboard-response","281","493059","0.0-1.0-384.0-0.0","0","0","84178","","null","","","null","42","","","","","","","","","","","","","","","",""
"","ITI","","html-keyboard-response","282","494061","0.0-1.0-387.0","0","0","84178","","null","","","null","42","","","","","","","","","","","","","","","NaN",""
"","S1","","html-keyboard-response","283","494214","0.0-1.0-389.0","0","0","84178","","null","","","null","43","","","","","","","","","","","","","","","",""
"","ISI","","html-keyboard-response","284","496217","0.0-1.0-390.0","0","0","84178","","null","","","null","43","NaN","","","","","","","","","","","","","","",""
"","S2","","html-keyboard-response","285","496369","0.0-1.0-391.0","0","0","84178","","null","","","null","43","","NaN","","","","","","","","","","","","","",""
"","response","","html-keyboard-response","286","497073","0.0-1.0-392.0-0.0","0","0","84178","","702","","","75","43","","","1","43","training","adjacent","CD","3","4","R.jpg","P.jpg","0","1","0","",""
"","feedback","","html-keyboard-response","287","498076","0.0-1.0-393.0-0.0","0","0","84178","","null","","","null","43","","","","","","","","","","","","","","","",""
"","time_out","","html-keyboard-response","288","500078","0.0-1.0-395.0-0.0","0","0","84178","","null","","","null","43","","","","","","","","","","","","","","","",""
"","ITI","","html-keyboard-response","289","501080","0.0-1.0-396.0","0","0","84178","","null","","","null","43","","","","","","","","","","","","","","","NaN",""
"","S1","","html-keyboard-response","290","501233","0.0-1.0-398.0","0","0","84178","","null","","","null","44","","","","","","","","","","","","","","","",""
"","ISI","","html-keyboard-response","291","503236","0.0-1.0-399.0","0","0","84178","","null","","","null","44","NaN","","","","","","","","","","","","","","",""
"","S2","","html-keyboard-response","292","503388","0.0-1.0-400.0","0","0","84178","","null","","","null","44","","NaN","","","","","","","","","","","","","",""
"","response","","html-keyboard-response","293","503780","0.0-1.0-401.0-0.0","0","0","84178","","391","","","75","44","","","1","44","training","adjacent","BC","2","3","Q.jpg","R.jpg","0","1","0","",""
"","feedback","","html-keyboard-response","294","504782","0.0-1.0-402.0-0.0","0","0","84178","","null","","","null","44","","","","","","","","","","","","","","","",""
"","time_out","","html-keyboard-response","295","506785","0.0-1.0-404.0-0.0","0","0","84178","","null","","","null","44","","","","","","","","","","","","","","","",""
"","ITI","","html-keyboard-response","296","507793","0.0-1.0-405.0","0","0","84178","","null","","","null","44","","","","","","","","","","","","","","","NaN",""
"","S1","","html-keyboard-response","297","507946","0.0-1.0-407.0","0","0","84178","","null","","","null","45","","","","","","","","","","","","","","","",""
"","ISI","","html-keyboard-response","298","509948","0.0-1.0-408.0","0","0","84178","","null","","","null","45","NaN","","","","","","","","","","","","","","",""
"","S2","","html-keyboard-response","299","510100","0.0-1.0-409.0","0","0","84178","","null","","","null","45","","NaN","","","","","","","","","","","","","",""
"","response","","html-keyboard-response","300","510868","0.0-1.0-410.0-0.0","0","0","84178","","766","","","75","45","","","1","45","training","adjacent","ED","5","4","O.jpg","P.jpg","0","0","1","",""
"","feedback","","html-keyboard-response","301","511871","0.0-1.0-411.0-0.0","0","0","84178","","null","","","null","45","","","","","","","","","","","","","","","",""
"","ITI","","html-keyboard-response","302","512873","0.0-1.0-414.0","0","0","84178","","null","","","null","45","","","","","","","","","","","","","","","NaN",""
"","S1","","html-keyboard-response","303","513025","0.0-1.0-416.0","0","0","84178","","null","","","null","46","","","","","","","","","","","","","","","",""
"","ISI","","html-keyboard-response","304","515027","0.0-1.0-417.0","0","0","84178","","null","","","null","46","NaN","","","","","","","","","","","","","","",""
"","S2","","html-keyboard-response","305","515180","0.0-1.0-418.0","0","0","84178","","null","","","null","46","","NaN","","","","","","","","","","","","","",""
"","response","","html-keyboard-response","306","515702","0.0-1.0-419.0-0.0","0","0","84178","","521","","","68","46","","","1","46","training","adjacent","CB","3","2","R.jpg","Q.jpg","1","0","0","",""
"","feedback","","html-keyboard-response","307","516704","0.0-1.0-420.0-0.0","0","0","84178","","null","","","null","46","","","","","","","","","","","","","","","",""
"","time_out","","html-keyboard-response","308","518707","0.0-1.0-422.0-0.0","0","0","84178","","null","","","null","46","","","","","","","","","","","","","","","",""
"","ITI","","html-keyboard-response","309","519709","0.0-1.0-423.0","0","0","84178","","null","","","null","46","","","","","","","","","","","","","","","NaN",""
"","S1","","html-keyboard-response","310","519862","0.0-1.0-425.0","0","0","84178","","null","","","null","47","","","","","","","","","","","","","","","",""
"","ISI","","html-keyboard-response","311","521864","0.0-1.0-426.0","0","0","84178","","null","","","null","47","NaN","","","","","","","","","","","","","","",""
"","S2","","html-keyboard-response","312","522022","0.0-1.0-427.0","0","0","84178","","null","","","null","47","","NaN","","","","","","","","","","","","","",""
"","response","","html-keyboard-response","313","522892","0.0-1.0-428.0-0.0","0","0","84178","","869","","","68","47","","","1","47","training","adjacent","DC","4","3","P.jpg","R.jpg","1","0","0","",""
"","feedback","","html-keyboard-response","314","523894","0.0-1.0-429.0-0.0","0","0","84178","","null","","","null","47","","","","","","","","","","","","","","","",""
"","time_out","","html-keyboard-response","315","525896","0.0-1.0-431.0-0.0","0","0","84178","","null","","","null","47","","","","","","","","","","","","","","","",""
"","ITI","","html-keyboard-response","316","526898","0.0-1.0-432.0","0","0","84178","","null","","","null","47","","","","","","","","","","","","","","","NaN",""
"","block_over","","html-keyboard-response","317","529721","0.0-1.0-433.0-0.0","0","0","84178","","2820","","","32","47","","","","","","","","","","","","","","","",""
"","S1","","html-keyboard-response","318","529873","0.0-1.0-434.0","0","0","84178","","null","","","null","48","","","","","","","","","","","","","","","",""
"","ISI","","html-keyboard-response","319","531875","0.0-1.0-435.0","0","0","84178","","null","","","null","48","NaN","","","","","","","","","","","","","","",""
"","S2","","html-keyboard-response","320","532029","0.0-1.0-436.0","0","0","84178","","null","","","null","48","","NaN","","","","","","","","","","","","","",""
"","response","","html-keyboard-response","321","532434","0.0-1.0-437.0-0.0","0","0","84178","","404","","","68","48","","","2","48","training","adjacent","FG","6","7","M.jpg","N.jpg","1","1","1","",""
"","feedback","","html-keyboard-response","322","533437","0.0-1.0-438.0-0.0","0","0","84178","","null","","","null","48","","","","","","","","","","","","","","","",""
"","ITI","","html-keyboard-response","323","534440","0.0-1.0-441.0","0","0","84178","","null","","","null","48","","","","","","","","","","","","","","","NaN",""
"","S1","","html-keyboard-response","324","534592","0.0-1.0-443.0","0","0","84178","","null","","","null","49","","","","","","","","","","","","","","","",""
"","ISI","","html-keyboard-response","325","536594","0.0-1.0-444.0","0","0","84178","","null","","","null","49","NaN","","","","","","","","","","","","","","",""
"","S2","","html-keyboard-response","326","536757","0.0-1.0-445.0","0","0","84178","","null","","","null","49","","NaN","","","","","","","","","","","","","",""
"","response","","html-keyboard-response","327","537329","0.0-1.0-446.0-0.0","0","0","84178","","569","","","75","49","","","2","49","training","adjacent","ED","5","4","O.jpg","P.jpg","0","0","1","",""
"","feedback","","html-keyboard-response","328","538331","0.0-1.0-447.0-0.0","0","0","84178","","null","","","null","49","","","","","","","","","","","","","","","",""
"","ITI","","html-keyboard-response","329","539334","0.0-1.0-450.0","0","0","84178","","null","","","null","49","","","","","","","","","","","","","","","NaN",""
"","S1","","html-keyboard-response","330","539486","0.0-1.0-452.0","0","0","84178","","null","","","null","50","","","","","","","","","","","","","","","",""
"","ISI","","html-keyboard-response","331","541489","0.0-1.0-453.0","0","0","84178","","null","","","null","50","NaN","","","","","","","","","","","","","","",""
"","S2","","html-keyboard-response","332","541641","0.0-1.0-454.0","0","0","84178","","null","","","null","50","","NaN","","","","","","","","","","","","","",""
"","response","","html-keyboard-response","333","542158","0.0-1.0-455.0-0.0","0","0","84178","","515","","","75","50","","","2","50","training","adjacent","DE","4","5","P.jpg","O.jpg","0","1","0","",""
"","feedback","","html-keyboard-response","334","543161","0.0-1.0-456.0-0.0","0","0","84178","","null","","","null","50","","","","","","","","","","","","","","","",""
"","time_out","","html-keyboard-response","335","545163","0.0-1.0-458.0-0.0","0","0","84178","","null","","","null","50","","","","","","","","","","","","","","","",""
"","ITI","","html-keyboard-response","336","546165","0.0-1.0-459.0","0","0","84178","","null","","","null","50","","","","","","","","","","","","","","","NaN",""
"","S1","","html-keyboard-response","337","546317","0.0-1.0-461.0","0","0","84178","","null","","","null","51","","","","","","","","","","","","","","","",""
"","ISI","","html-keyboard-response","338","548319","0.0-1.0-462.0","0","0","84178","","null","","","null","51","NaN","","","","","","","","","","","","","","",""
"","S2","","html-keyboard-response","339","548472","0.0-1.0-463.0","0","0","84178","","null","","","null","51","","NaN","","","","","","","","","","","","","",""
"","response","","html-keyboard-response","340","549299","0.0-1.0-464.0-0.0","0","0","84178","","826","","","68","51","","","2","51","training","adjacent","BC","2","3","Q.jpg","R.jpg","1","1","1","",""
"","feedback","","html-keyboard-response","341","550301","0.0-1.0-465.0-0.0","0","0","84178","","null","","","null","51","","","","","","","","","","","","","","","",""
"","ITI","","html-keyboard-response","342","551304","0.0-1.0-468.0","0","0","84178","","null","","","null","51","","","","","","","","","","","","","","","NaN",""
"","S1","","html-keyboard-response","343","551465","0.0-1.0-470.0","0","0","84178","","null","","","null","52","","","","","","","","","","","","","","","",""
"","ISI","","html-keyboard-response","344","553467","0.0-1.0-471.0","0","0","84178","","null","","","null","52","NaN","","","","","","","","","","","","","","",""
"","S2","","html-keyboard-response","345","553619","0.0-1.0-472.0","0","0","84178","","null","","","null","52","","NaN","","","","","","","","","","","","","",""
"","response","","html-keyboard-response","346","554211","0.0-1.0-473.0-0.0","0","0","84178","","590","","","75","52","","","2","52","training","adjacent","CB","3","2","R.jpg","Q.jpg","0","0","1","",""
"","feedback","","html-keyboard-response","347","555214","0.0-1.0-474.0-0.0","0","0","84178","","null","","","null","52","","","","","","","","","","","","","","","",""
"","ITI","","html-keyboard-response","348","556217","0.0-1.0-477.0","0","0","84178","","null","","","null","52","","","","","","","","","","","","","","","NaN",""
"","S1","","html-keyboard-response","349","556369","0.0-1.0-479.0","0","0","84178","","null","","","null","53","","","","","","","","","","","","","","","",""
"","ISI","","html-keyboard-response","350","558372","0.0-1.0-480.0","0","0","84178","","null","","","null","53","NaN","","","","","","","","","","","","","","",""
"","S2","","html-keyboard-response","351","558530","0.0-1.0-481.0","0","0","84178","","null","","","null","53","","NaN","","","","","","","","","","","","","",""
"","response","","html-keyboard-response","352","559207","0.0-1.0-482.0-0.0","0","0","84178","","676","","","68","53","","","2","53","training","adjacent","EF","5","6","O.jpg","M.jpg","1","1","1","",""
"","feedback","","html-keyboard-response","353","560210","0.0-1.0-483.0-0.0","0","0","84178","","null","","","null","53","","","","","","","","","","","","","","","",""
"","ITI","","html-keyboard-response","354","561212","0.0-1.0-486.0","0","0","84178","","null","","","null","53","","","","","","","","","","","","","","","NaN",""
"","S1","","html-keyboard-response","355","561364","0.0-1.0-488.0","0","0","84178","","null","","","null","54","","","","","","","","","","","","","","","",""
"","ISI","","html-keyboard-response","356","563366","0.0-1.0-489.0","0","0","84178","","null","","","null","54","NaN","","","","","","","","","","","","","","",""
"","S2","","html-keyboard-response","357","563519","0.0-1.0-490.0","0","0","84178","","null","","","null","54","","NaN","","","","","","","","","","","","","",""
"","response","","html-keyboard-response","358","564559","0.0-1.0-491.0-0.0","0","0","84178","","1039","","","75","54","","","2","54","training","adjacent","BA","2","1","Q.jpg","L.jpg","0","0","1","",""
"","feedback","","html-keyboard-response","359","565562","0.0-1.0-492.0-0.0","0","0","84178","","null","","","null","54","","","","","","","","","","","","","","","",""
"","ITI","","html-keyboard-response","360","566564","0.0-1.0-495.0","0","0","84178","","null","","","null","54","","","","","","","","","","","","","","","NaN",""
"","S1","","html-keyboard-response","361","566717","0.0-1.0-497.0","0","0","84178","","null","","","null","55","","","","","","","","","","","","","","","",""
"","ISI","","html-keyboard-response","362","568718","0.0-1.0-498.0","0","0","84178","","null","","","null","55","NaN","","","","","","","","","","","","","","",""
"","S2","","html-keyboard-response","363","568870","0.0-1.0-499.0","0","0","84178","","null","","","null","55","","NaN","","","","","","","","","","","","","",""
"","response","","html-keyboard-response","364","569406","0.0-1.0-500.0-0.0","0","0","84178","","534","","","75","55","","","2","55","training","adjacent","CB","3","2","R.jpg","Q.jpg","0","0","1","",""
"","feedback","","html-keyboard-response","365","570408","0.0-1.0-501.0-0.0","0","0","84178","","null","","","null","55","","","","","","","","","","","","","","","",""
"","ITI","","html-keyboard-response","366","571410","0.0-1.0-504.0","0","0","84178","","null","","","null","55","","","","","","","","","","","","","","","NaN",""
"","S1","","html-keyboard-response","367","571563","0.0-1.0-506.0","0","0","84178","","null","","","null","56","","","","","","","","","","","","","","","",""
"","ISI","","html-keyboard-response","368","573565","0.0-1.0-507.0","0","0","84178","","null","","","null","56","NaN","","","","","","","","","","","","","","",""
"","S2","","html-keyboard-response","369","573717","0.0-1.0-508.0","0","0","84178","","null","","","null","56","","NaN","","","","","","","","","","","","","",""
"","response","","html-keyboard-response","370","574573","0.0-1.0-509.0-0.0","0","0","84178","","854","","","68","56","","","2","56","training","adjacent","DE","4","5","P.jpg","O.jpg","1","1","1","",""
"","feedback","","html-keyboard-response","371","575576","0.0-1.0-510.0-0.0","0","0","84178","","null","","","null","56","","","","","","","","","","","","","","","",""
"","ITI","","html-keyboard-response","372","576579","0.0-1.0-513.0","0","0","84178","","null","","","null","56","","","","","","","","","","","","","","","NaN",""
"","S1","","html-keyboard-response","373","576731","0.0-1.0-515.0","0","0","84178","","null","","","null","57","","","","","","","","","","","","","","","",""
"","ISI","","html-keyboard-response","374","578734","0.0-1.0-516.0","0","0","84178","","null","","","null","57","NaN","","","","","","","","","","","","","","",""
"","S2","","html-keyboard-response","375","578886","0.0-1.0-517.0","0","0","84178","","null","","","null","57","","NaN","","","","","","","","","","","","","",""
"","response","","html-keyboard-response","376","579293","0.0-1.0-518.0-0.0","0","0","84178","","406","","","75","57","","","2","57","training","adjacent","BA","2","1","Q.jpg","L.jpg","0","0","1","",""
"","feedback","","html-keyboard-response","377","580296","0.0-1.0-519.0-0.0","0","0","84178","","null","","","null","57","","","","","","","","","","","","","","","",""
"","ITI","","html-keyboard-response","378","581298","0.0-1.0-522.0","0","0","84178","","null","","","null","57","","","","","","","","","","","","","","","NaN",""
"","S1","","html-keyboard-response","379","581451","0.0-1.0-524.0","0","0","84178","","null","","","null","58","","","","","","","","","","","","","","","",""
"","ISI","","html-keyboard-response","380","583453","0.0-1.0-525.0","0","0","84178","","null","","","null","58","NaN","","","","","","","","","","","","","","",""
"","S2","","html-keyboard-response","381","583613","0.0-1.0-526.0","0","0","84178","","null","","","null","58","","NaN","","","","","","","","","","","","","",""
"","response","","html-keyboard-response","382","584029","0.0-1.0-527.0-0.0","0","0","84178","","414","","","68","58","","","2","58","training","adjacent","FG","6","7","M.jpg","N.jpg","1","1","1","",""
"","feedback","","html-keyboard-response","383","585031","0.0-1.0-528.0-0.0","0","0","84178","","null","","","null","58","","","","","","","","","","","","","","","",""
"","ITI","","html-keyboard-response","384","586034","0.0-1.0-531.0","0","0","84178","","null","","","null","58","","","","","","","","","","","","","","","NaN",""
"","S1","","html-keyboard-response","385","586187","0.0-1.0-533.0","0","0","84178","","null","","","null","59","","","","","","","","","","","","","","","",""
"","ISI","","html-keyboard-response","386","588189","0.0-1.0-534.0","0","0","84178","","null","","","null","59","NaN","","","","","","","","","","","","","","",""
"","S2","","html-keyboard-response","387","588342","0.0-1.0-535.0","0","0","84178","","null","","","null","59","","NaN","","","","","","","","","","","","","",""
"","response","","html-keyboard-response","388","589581","0.0-1.0-536.0-0.0","0","0","84178","","1237","","","75","59","","","2","59","training","adjacent","ED","5","4","O.jpg","P.jpg","0","0","1","",""
"","feedback","","html-keyboard-response","389","590583","0.0-1.0-537.0-0.0","0","0","84178","","null","","","null","59","","","","","","","","","","","","","","","",""
"","ITI","","html-keyboard-response","390","591586","0.0-1.0-540.0","0","0","84178","","null","","","null","59","","","","","","","","","","","","","","","NaN",""
"","S1","","html-keyboard-response","391","591739","0.0-1.0-542.0","0","0","84178","","null","","","null","60","","","","","","","","","","","","","","","",""
"","ISI","","html-keyboard-response","392","593740","0.0-1.0-543.0","0","0","84178","","null","","","null","60","NaN","","","","","","","","","","","","","","",""
"","S2","","html-keyboard-response","393","593892","0.0-1.0-544.0","0","0","84178","","null","","","null","60","","NaN","","","","","","","","","","","","","",""
"","response","","html-keyboard-response","394","594385","0.0-1.0-545.0-0.0","0","0","84178","","490","","","68","60","","","2","60","training","adjacent","CD","3","4","R.jpg","P.jpg","1","1","1","",""
"","feedback","","html-keyboard-response","395","595387","0.0-1.0-546.0-0.0","0","0","84178","","null","","","null","60","","","","","","","","","","","","","","","",""
"","ITI","","html-keyboard-response","396","596390","0.0-1.0-549.0","0","0","84178","","null","","","null","60","","","","","","","","","","","","","","","NaN",""
"","S1","","html-keyboard-response","397","596542","0.0-1.0-551.0","0","0","84178","","null","","","null","61","","","","","","","","","","","","","","","",""
"","ISI","","html-keyboard-response","398","598544","0.0-1.0-552.0","0","0","84178","","null","","","null","61","NaN","","","","","","","","","","","","","","",""
"","S2","","html-keyboard-response","399","598709","0.0-1.0-553.0","0","0","84178","","null","","","null","61","","NaN","","","","","","","","","","","","","",""
"","response","","html-keyboard-response","400","599238","0.0-1.0-554.0-0.0","0","0","84178","","528","","","68","61","","","2","61","training","adjacent","AB","1","2","L.jpg","Q.jpg","1","1","1","",""
"","feedback","","html-keyboard-response","401","600241","0.0-1.0-555.0-0.0","0","0","84178","","null","","","null","61","","","","","","","","","","","","","","","",""
"","ITI","","html-keyboard-response","402","601243","0.0-1.0-558.0","0","0","84178","","null","","","null","61","","","","","","","","","","","","","","","NaN",""
"","S1","","html-keyboard-response","403","601399","0.0-1.0-560.0","0","0","84178","","null","","","null","62","","","","","","","","","","","","","","","",""
"","ISI","","html-keyboard-response","404","603401","0.0-1.0-561.0","0","0","84178","","null","","","null","62","NaN","","","","","","","","","","","","","","",""
"","S2","","html-keyboard-response","405","603553","0.0-1.0-562.0","0","0","84178","","null","","","null","62","","NaN","","","","","","","","","","","","","",""
"","response","","html-keyboard-response","406","603984","0.0-1.0-563.0-0.0","0","0","84178","","429","","","68","62","","","2","62","training","adjacent","FG","6","7","M.jpg","N.jpg","1","1","1","",""
"","feedback","","html-keyboard-response","407","604987","0.0-1.0-564.0-0.0","0","0","84178","","null","","","null","62","","","","","","","","","","","","","","","",""
"","ITI","","html-keyboard-response","408","605989","0.0-1.0-567.0","0","0","84178","","null","","","null","62","","","","","","","","","","","","","","","NaN",""
"","S1","","html-keyboard-response","409","606141","0.0-1.0-569.0","0","0","84178","","null","","","null","63","","","","","","","","","","","","","","","",""
"","ISI","","html-keyboard-response","410","608143","0.0-1.0-570.0","0","0","84178","","null","","","null","63","NaN","","","","","","","","","","","","","","",""
"","S2","","html-keyboard-response","411","608296","0.0-1.0-571.0","0","0","84178","","null","","","null","63","","NaN","","","","","","","","","","","","","",""
"","response","","html-keyboard-response","412","609154","0.0-1.0-572.0-0.0","0","0","84178","","856","","","75","63","","","2","63","training","adjacent","EF","5","6","O.jpg","M.jpg","0","1","0","",""
"","feedback","","html-keyboard-response","413","610157","0.0-1.0-573.0-0.0","0","0","84178","","null","","","null","63","","","","","","","","","","","","","","","",""
"","time_out","","html-keyboard-response","414","612159","0.0-1.0-575.0-0.0","0","0","84178","","null","","","null","63","","","","","","","","","","","","","","","",""
"","ITI","","html-keyboard-response","415","613162","0.0-1.0-576.0","0","0","84178","","null","","","null","63","","","","","","","","","","","","","","","NaN",""
"","S1","","html-keyboard-response","416","613315","0.0-1.0-578.0","0","0","84178","","null","","","null","64","","","","","","","","","","","","","","","",""
"","ISI","","html-keyboard-response","417","615317","0.0-1.0-579.0","0","0","84178","","null","","","null","64","NaN","","","","","","","","","","","","","","",""
"","S2","","html-keyboard-response","418","615470","0.0-1.0-580.0","0","0","84178","","null","","","null","64","","NaN","","","","","","","","","","","","","",""
"","response","","html-keyboard-response","419","615827","0.0-1.0-581.0-0.0","0","0","84178","","355","","","68","64","","","2","64","training","adjacent","AB","1","2","L.jpg","Q.jpg","1","1","1","",""
"","feedback","","html-keyboard-response","420","616829","0.0-1.0-582.0-0.0","0","0","84178","","null","","","null","64","","","","","","","","","","","","","","","",""
"","ITI","","html-keyboard-response","421","617832","0.0-1.0-585.0","0","0","84178","","null","","","null","64","","","","","","","","","","","","","","","NaN",""
"","S1","","html-keyboard-response","422","617983","0.0-1.0-587.0","0","0","84178","","null","","","null","65","","","","","","","","","","","","","","","",""
"","ISI","","html-keyboard-response","423","619986","0.0-1.0-588.0","0","0","84178","","null","","","null","65","NaN","","","","","","","","","","","","","","",""
"","S2","","html-keyboard-response","424","620138","0.0-1.0-589.0","0","0","84178","","null","","","null","65","","NaN","","","","","","","","","","","","","",""
"","response","","html-keyboard-response","425","621290","0.0-1.0-590.0-0.0","0","0","84178","","1151","","","68","65","","","2","65","training","adjacent","CD","3","4","R.jpg","P.jpg","1","1","1","",""
"","feedback","","html-keyboard-response","426","622294","0.0-1.0-591.0-0.0","0","0","84178","","null","","","null","65","","","","","","","","","","","","","","","",""
"","ITI","","html-keyboard-response","427","623297","0.0-1.0-594.0","0","0","84178","","null","","","null","65","","","","","","","","","","","","","","","NaN",""
"","S1","","html-keyboard-response","428","623448","0.0-1.0-596.0","0","0","84178","","null","","","null","66","","","","","","","","","","","","","","","",""
"","ISI","","html-keyboard-response","429","625451","0.0-1.0-597.0","0","0","84178","","null","","","null","66","NaN","","","","","","","","","","","","","","",""
"","S2","","html-keyboard-response","430","625603","0.0-1.0-598.0","0","0","84178","","null","","","null","66","","NaN","","","","","","","","","","","","","",""
"","response","","html-keyboard-response","431","626152","0.0-1.0-599.0-0.0","0","0","84178","","547","","","68","66","","","2","66","training","adjacent","FE","6","5","M.jpg","O.jpg","1","0","0","",""
"","feedback","","html-keyboard-response","432","627154","0.0-1.0-600.0-0.0","0","0","84178","","null","","","null","66","","","","","","","","","","","","","","","",""
"","time_out","","html-keyboard-response","433","629157","0.0-1.0-602.0-0.0","0","0","84178","","null","","","null","66","","","","","","","","","","","","","","","",""
"","ITI","","html-keyboard-response","434","630159","0.0-1.0-603.0","0","0","84178","","null","","","null","66","","","","","","","","","","","","","","","NaN",""
"","S1","","html-keyboard-response","435","630312","0.0-1.0-605.0","0","0","84178","","null","","","null","67","","","","","","","","","","","","","","","",""
"","ISI","","html-keyboard-response","436","632314","0.0-1.0-606.0","0","0","84178","","null","","","null","67","NaN","","","","","","","","","","","","","","",""
"","S2","","html-keyboard-response","437","632466","0.0-1.0-607.0","0","0","84178","","null","","","null","67","","NaN","","","","","","","","","","","","","",""
"","response","","html-keyboard-response","438","632801","0.0-1.0-608.0-0.0","0","0","84178","","334","","","75","67","","","2","67","training","adjacent","BA","2","1","Q.jpg","L.jpg","0","0","1","",""
"","feedback","","html-keyboard-response","439","633804","0.0-1.0-609.0-0.0","0","0","84178","","null","","","null","67","","","","","","","","","","","","","","","",""
"","ITI","","html-keyboard-response","440","634807","0.0-1.0-612.0","0","0","84178","","null","","","null","67","","","","","","","","","","","","","","","NaN",""
"","S1","","html-keyboard-response","441","634959","0.0-1.0-614.0","0","0","84178","","null","","","null","68","","","","","","","","","","","","","","","",""
"","ISI","","html-keyboard-response","442","636962","0.0-1.0-615.0","0","0","84178","","null","","","null","68","NaN","","","","","","","","","","","","","","",""
"","S2","","html-keyboard-response","443","637115","0.0-1.0-616.0","0","0","84178","","null","","","null","68","","NaN","","","","","","","","","","","","","",""
"","response","","html-keyboard-response","444","637626","0.0-1.0-617.0-0.0","0","0","84178","","510","","","75","68","","","2","68","training","adjacent","FE","6","5","M.jpg","O.jpg","0","0","1","",""
"","feedback","","html-keyboard-response","445","638632","0.0-1.0-618.0-0.0","0","0","84178","","null","","","null","68","","","","","","","","","","","","","","","",""
"","ITI","","html-keyboard-response","446","639635","0.0-1.0-621.0","0","0","84178","","null","","","null","68","","","","","","","","","","","","","","","NaN",""
"","S1","","html-keyboard-response","447","639787","0.0-1.0-623.0","0","0","84178","","null","","","null","69","","","","","","","","","","","","","","","",""
"","ISI","","html-keyboard-response","448","641790","0.0-1.0-624.0","0","0","84178","","null","","","null","69","NaN","","","","","","","","","","","","","","",""
"","S2","","html-keyboard-response","449","641943","0.0-1.0-625.0","0","0","84178","","null","","","null","69","","NaN","","","","","","","","","","","","","",""
"","response","","html-keyboard-response","450","642633","0.0-1.0-626.0-0.0","0","0","84178","","688","","","68","69","","","2","69","training","adjacent","CB","3","2","R.jpg","Q.jpg","1","0","0","",""
"","feedback","","html-keyboard-response","451","643636","0.0-1.0-627.0-0.0","0","0","84178","","null","","","null","69","","","","","","","","","","","","","","","",""
"","time_out","","html-keyboard-response","452","645638","0.0-1.0-629.0-0.0","0","0","84178","","null","","","null","69","","","","","","","","","","","","","","","",""
"","ITI","","html-keyboard-response","453","646640","0.0-1.0-630.0","0","0","84178","","null","","","null","69","","","","","","","","","","","","","","","NaN",""
"","S1","","html-keyboard-response","454","646793","0.0-1.0-632.0","0","0","84178","","null","","","null","70","","","","","","","","","","","","","","","",""
"","ISI","","html-keyboard-response","455","648795","0.0-1.0-633.0","0","0","84178","","null","","","null","70","NaN","","","","","","","","","","","","","","",""
"","S2","","html-keyboard-response","456","648948","0.0-1.0-634.0","0","0","84178","","null","","","null","70","","NaN","","","","","","","","","","","","","",""
"","response","","html-keyboard-response","457","649340","0.0-1.0-635.0-0.0","0","0","84178","","390","","","68","70","","","2","70","training","adjacent","FG","6","7","M.jpg","N.jpg","1","1","1","",""
"","feedback","","html-keyboard-response","458","650343","0.0-1.0-636.0-0.0","0","0","84178","","null","","","null","70","","","","","","","","","","","","","","","",""
"","ITI","","html-keyboard-response","459","651346","0.0-1.0-639.0","0","0","84178","","null","","","null","70","","","","","","","","","","","","","","","NaN",""
"","S1","","html-keyboard-response","460","651499","0.0-1.0-641.0","0","0","84178","","null","","","null","71","","","","","","","","","","","","","","","",""
"","ISI","","html-keyboard-response","461","653501","0.0-1.0-642.0","0","0","84178","","null","","","null","71","NaN","","","","","","","","","","","","","","",""
"","S2","","html-keyboard-response","462","653653","0.0-1.0-643.0","0","0","84178","","null","","","null","71","","NaN","","","","","","","","","","","","","",""
"","response","","html-keyboard-response","463","654034","0.0-1.0-644.0-0.0","0","0","84178","","378","","","75","71","","","2","71","training","adjacent","BC","2","3","Q.jpg","R.jpg","0","1","0","",""
"","feedback","","html-keyboard-response","464","655037","0.0-1.0-645.0-0.0","0","0","84178","","null","","","null","71","","","","","","","","","","","","","","","",""
"","time_out","","html-keyboard-response","465","657039","0.0-1.0-647.0-0.0","0","0","84178","","null","","","null","71","","","","","","","","","","","","","","","",""
"","ITI","","html-keyboard-response","466","658041","0.0-1.0-648.0","0","0","84178","","null","","","null","71","","","","","","","","","","","","","","","NaN",""
"","S1","","html-keyboard-response","467","658193","0.0-1.0-650.0","0","0","84178","","null","","","null","72","","","","","","","","","","","","","","","",""
"","ISI","","html-keyboard-response","468","660196","0.0-1.0-651.0","0","0","84178","","null","","","null","72","NaN","","","","","","","","","","","","","","",""
"","S2","","html-keyboard-response","469","660348","0.0-1.0-652.0","0","0","84178","","null","","","null","72","","NaN","","","","","","","","","","","","","",""
"","response","","html-keyboard-response","470","661201","0.0-1.0-653.0-0.0","0","0","84178","","851","","","75","72","","","2","72","training","adjacent","BA","2","1","Q.jpg","L.jpg","0","0","1","",""
"","feedback","","html-keyboard-response","471","662205","0.0-1.0-654.0-0.0","0","0","84178","","null","","","null","72","","","","","","","","","","","","","","","",""
"","ITI","","html-keyboard-response","472","663208","0.0-1.0-657.0","0","0","84178","","null","","","null","72","","","","","","","","","","","","","","","NaN",""
"","S1","","html-keyboard-response","473","663361","0.0-1.0-659.0","0","0","84178","","null","","","null","73","","","","","","","","","","","","","","","",""
"","ISI","","html-keyboard-response","474","665363","0.0-1.0-660.0","0","0","84178","","null","","","null","73","NaN","","","","","","","","","","","","","","",""
"","S2","","html-keyboard-response","475","665515","0.0-1.0-661.0","0","0","84178","","null","","","null","73","","NaN","","","","","","","","","","","","","",""
"","response","","html-keyboard-response","476","666830","0.0-1.0-662.0-0.0","0","0","84178","","1313","","","75","73","","","2","73","training","adjacent","DC","4","3","P.jpg","R.jpg","0","0","1","",""
"","feedback","","html-keyboard-response","477","667832","0.0-1.0-663.0-0.0","0","0","84178","","null","","","null","73","","","","","","","","","","","","","","","",""
"","ITI","","html-keyboard-response","478","668835","0.0-1.0-666.0","0","0","84178","","null","","","null","73","","","","","","","","","","","","","","","NaN",""
"","S1","","html-keyboard-response","479","668988","0.0-1.0-668.0","0","0","84178","","null","","","null","74","","","","","","","","","","","","","","","",""
"","ISI","","html-keyboard-response","480","670990","0.0-1.0-669.0","0","0","84178","","null","","","null","74","NaN","","","","","","","","","","","","","","",""
"","S2","","html-keyboard-response","481","671142","0.0-1.0-670.0","0","0","84178","","null","","","null","74","","NaN","","","","","","","","","","","","","",""
"","response","","html-keyboard-response","482","672072","0.0-1.0-671.0-0.0","0","0","84178","","928","","","75","74","","","2","74","training","adjacent","ED","5","4","O.jpg","P.jpg","0","0","1","",""
"","feedback","","html-keyboard-response","483","673074","0.0-1.0-672.0-0.0","0","0","84178","","null","","","null","74","","","","","","","","","","","","","","","",""
"","ITI","","html-keyboard-response","484","674077","0.0-1.0-675.0","0","0","84178","","null","","","null","74","","","","","","","","","","","","","","","NaN",""
"","S1","","html-keyboard-response","485","674230","0.0-1.0-677.0","0","0","84178","","null","","","null","75","","","","","","","","","","","","","","","",""
"","ISI","","html-keyboard-response","486","676232","0.0-1.0-678.0","0","0","84178","","null","","","null","75","NaN","","","","","","","","","","","","","","",""
"","S2","","html-keyboard-response","487","676384","0.0-1.0-679.0","0","0","84178","","null","","","null","75","","NaN","","","","","","","","","","","","","",""
"","response","","html-keyboard-response","488","677199","0.0-1.0-680.0-0.0","0","0","84178","","814","","","75","75","","","2","75","training","adjacent","DC","4","3","P.jpg","R.jpg","0","0","1","",""
"","feedback","","html-keyboard-response","489","678202","0.0-1.0-681.0-0.0","0","0","84178","","null","","","null","75","","","","","","","","","","","","","","","",""
"","ITI","","html-keyboard-response","490","679204","0.0-1.0-684.0","0","0","84178","","null","","","null","75","","","","","","","","","","","","","","","NaN",""
"","S1","","html-keyboard-response","491","679356","0.0-1.0-686.0","0","0","84178","","null","","","null","76","","","","","","","","","","","","","","","",""
"","ISI","","html-keyboard-response","492","681358","0.0-1.0-687.0","0","0","84178","","null","","","null","76","NaN","","","","","","","","","","","","","","",""
"","S2","","html-keyboard-response","493","681510","0.0-1.0-688.0","0","0","84178","","null","","","null","76","","NaN","","","","","","","","","","","","","",""
"","response","","html-keyboard-response","494","681903","0.0-1.0-689.0-0.0","0","0","84178","","392","","","68","76","","","2","76","training","adjacent","BC","2","3","Q.jpg","R.jpg","1","1","1","",""
"","feedback","","html-keyboard-response","495","682906","0.0-1.0-690.0-0.0","0","0","84178","","null","","","null","76","","","","","","","","","","","","","","","",""
"","ITI","","html-keyboard-response","496","683908","0.0-1.0-693.0","0","0","84178","","null","","","null","76","","","","","","","","","","","","","","","NaN",""
"","S1","","html-keyboard-response","497","684060","0.0-1.0-695.0","0","0","84178","","null","","","null","77","","","","","","","","","","","","","","","",""
"","ISI","","html-keyboard-response","498","686062","0.0-1.0-696.0","0","0","84178","","null","","","null","77","NaN","","","","","","","","","","","","","","",""
"","S2","","html-keyboard-response","499","686215","0.0-1.0-697.0","0","0","84178","","null","","","null","77","","NaN","","","","","","","","","","","","","",""
"","response","","html-keyboard-response","500","686501","0.0-1.0-698.0-0.0","0","0","84178","","285","","","75","77","","","2","77","training","adjacent","GF","7","6","N.jpg","M.jpg","0","0","1","",""
"","feedback","","html-keyboard-response","501","687504","0.0-1.0-699.0-0.0","0","0","84178","","null","","","null","77","","","","","","","","","","","","","","","",""
"","ITI","","html-keyboard-response","502","688506","0.0-1.0-702.0","0","0","84178","","null","","","null","77","","","","","","","","","","","","","","","NaN",""
"","S1","","html-keyboard-response","503","688658","0.0-1.0-704.0","0","0","84178","","null","","","null","78","","","","","","","","","","","","","","","",""
"","ISI","","html-keyboard-response","504","690661","0.0-1.0-705.0","0","0","84178","","null","","","null","78","NaN","","","","","","","","","","","","","","",""
"","S2","","html-keyboard-response","505","690813","0.0-1.0-706.0","0","0","84178","","null","","","null","78","","NaN","","","","","","","","","","","","","",""
"","response","","html-keyboard-response","506","691680","0.0-1.0-707.0-0.0","0","0","84178","","866","","","68","78","","","2","78","training","adjacent","EF","5","6","O.jpg","M.jpg","1","1","1","",""
"","feedback","","html-keyboard-response","507","692682","0.0-1.0-708.0-0.0","0","0","84178","","null","","","null","78","","","","","","","","","","","","","","","",""
"","ITI","","html-keyboard-response","508","693685","0.0-1.0-711.0","0","0","84178","","null","","","null","78","","","","","","","","","","","","","","","NaN",""
"","S1","","html-keyboard-response","509","693838","0.0-1.0-713.0","0","0","84178","","null","","","null","79","","","","","","","","","","","","","","","",""
"","ISI","","html-keyboard-response","510","695840","0.0-1.0-714.0","0","0","84178","","null","","","null","79","NaN","","","","","","","","","","","","","","",""
"","S2","","html-keyboard-response","511","695993","0.0-1.0-715.0","0","0","84178","","null","","","null","79","","NaN","","","","","","","","","","","","","",""
"","response","","html-keyboard-response","512","696352","0.0-1.0-716.0-0.0","0","0","84178","","358","","","68","79","","","2","79","training","adjacent","AB","1","2","L.jpg","Q.jpg","1","1","1","",""
"","feedback","","html-keyboard-response","513","697355","0.0-1.0-717.0-0.0","0","0","84178","","null","","","null","79","","","","","","","","","","","","","","","",""
"","ITI","","html-keyboard-response","514","698358","0.0-1.0-720.0","0","0","84178","","null","","","null","79","","","","","","","","","","","","","","","NaN",""
"","S1","","html-keyboard-response","515","698509","0.0-1.0-722.0","0","0","84178","","null","","","null","80","","","","","","","","","","","","","","","",""
"","ISI","","html-keyboard-response","516","700512","0.0-1.0-723.0","0","0","84178","","null","","","null","80","NaN","","","","","","","","","","","","","","",""
"","S2","","html-keyboard-response","517","700664","0.0-1.0-724.0","0","0","84178","","null","","","null","80","","NaN","","","","","","","","","","","","","",""
"","response","","html-keyboard-response","518","701430","0.0-1.0-725.0-0.0","0","0","84178","","765","","","75","80","","","2","80","training","adjacent","FE","6","5","M.jpg","O.jpg","0","0","1","",""
"","feedback","","html-keyboard-response","519","702432","0.0-1.0-726.0-0.0","0","0","84178","","null","","","null","80","","","","","","","","","","","","","","","",""
"","ITI","","html-keyboard-response","520","703434","0.0-1.0-729.0","0","0","84178","","null","","","null","80","","","","","","","","","","","","","","","NaN",""
"","S1","","html-keyboard-response","521","703589","0.0-1.0-731.0","0","0","84178","","null","","","null","81","","","","","","","","","","","","","","","",""
"","ISI","","html-keyboard-response","522","705591","0.0-1.0-732.0","0","0","84178","","null","","","null","81","NaN","","","","","","","","","","","","","","",""
"","S2","","html-keyboard-response","523","705744","0.0-1.0-733.0","0","0","84178","","null","","","null","81","","NaN","","","","","","","","","","","","","",""
"","response","","html-keyboard-response","524","706147","0.0-1.0-734.0-0.0","0","0","84178","","402","","","75","81","","","2","81","training","adjacent","GF","7","6","N.jpg","M.jpg","0","0","1","",""
"","feedback","","html-keyboard-response","525","707150","0.0-1.0-735.0-0.0","0","0","84178","","null","","","null","81","","","","","","","","","","","","","","","",""
"","ITI","","html-keyboard-response","526","708153","0.0-1.0-738.0","0","0","84178","","null","","","null","81","","","","","","","","","","","","","","","NaN",""
"","S1","","html-keyboard-response","527","708305","0.0-1.0-740.0","0","0","84178","","null","","","null","82","","","","","","","","","","","","","","","",""
"","ISI","","html-keyboard-response","528","710307","0.0-1.0-741.0","0","0","84178","","null","","","null","82","NaN","","","","","","","","","","","","","","",""
"","S2","","html-keyboard-response","529","710459","0.0-1.0-742.0","0","0","84178","","null","","","null","82","","NaN","","","","","","","","","","","","","",""
"","response","","html-keyboard-response","530","711188","0.0-1.0-743.0-0.0","0","0","84178","","727","","","68","82","","","2","82","training","adjacent","EF","5","6","O.jpg","M.jpg","1","1","1","",""
"","feedback","","html-keyboard-response","531","712190","0.0-1.0-744.0-0.0","0","0","84178","","null","","","null","82","","","","","","","","","","","","","","","",""
"","ITI","","html-keyboard-response","532","713193","0.0-1.0-747.0","0","0","84178","","null","","","null","82","","","","","","","","","","","","","","","NaN",""
"","S1","","html-keyboard-response","533","713345","0.0-1.0-749.0","0","0","84178","","null","","","null","83","","","","","","","","","","","","","","","",""
"","ISI","","html-keyboard-response","534","715347","0.0-1.0-750.0","0","0","84178","","null","","","null","83","NaN","","","","","","","","","","","","","","",""
"","S2","","html-keyboard-response","535","715499","0.0-1.0-751.0","0","0","84178","","null","","","null","83","","NaN","","","","","","","","","","","","","",""
"","response","","html-keyboard-response","536","716079","0.0-1.0-752.0-0.0","0","0","84178","","578","","","75","83","","","2","83","training","adjacent","ED","5","4","O.jpg","P.jpg","0","0","1","",""
"","feedback","","html-keyboard-response","537","717082","0.0-1.0-753.0-0.0","0","0","84178","","null","","","null","83","","","","","","","","","","","","","","","",""
"","ITI","","html-keyboard-response","538","718084","0.0-1.0-756.0","0","0","84178","","null","","","null","83","","","","","","","","","","","","","","","NaN",""
"","S1","","html-keyboard-response","539","718237","0.0-1.0-758.0","0","0","84178","","null","","","null","84","","","","","","","","","","","","","","","",""
"","ISI","","html-keyboard-response","540","720239","0.0-1.0-759.0","0","0","84178","","null","","","null","84","NaN","","","","","","","","","","","","","","",""
"","S2","","html-keyboard-response","541","720391","0.0-1.0-760.0","0","0","84178","","null","","","null","84","","NaN","","","","","","","","","","","","","",""
"","response","","html-keyboard-response","542","721164","0.0-1.0-761.0-0.0","0","0","84178","","771","","","68","84","","","2","84","training","adjacent","DE","4","5","P.jpg","O.jpg","1","1","1","",""
"","feedback","","html-keyboard-response","543","722167","0.0-1.0-762.0-0.0","0","0","84178","","null","","","null","84","","","","","","","","","","","","","","","",""
"","ITI","","html-keyboard-response","544","723169","0.0-1.0-765.0","0","0","84178","","null","","","null","84","","","","","","","","","","","","","","","NaN",""
"","S1","","html-keyboard-response","545","723322","0.0-1.0-767.0","0","0","84178","","null","","","null","85","","","","","","","","","","","","","","","",""
"","ISI","","html-keyboard-response","546","725323","0.0-1.0-768.0","0","0","84178","","null","","","null","85","NaN","","","","","","","","","","","","","","",""
"","S2","","html-keyboard-response","547","725476","0.0-1.0-769.0","0","0","84178","","null","","","null","85","","NaN","","","","","","","","","","","","","",""
"","response","","html-keyboard-response","548","726226","0.0-1.0-770.0-0.0","0","0","84178","","749","","","75","85","","","2","85","training","adjacent","DC","4","3","P.jpg","R.jpg","0","0","1","",""
"","feedback","","html-keyboard-response","549","727229","0.0-1.0-771.0-0.0","0","0","84178","","null","","","null","85","","","","","","","","","","","","","","","",""
"","ITI","","html-keyboard-response","550","728231","0.0-1.0-774.0","0","0","84178","","null","","","null","85","","","","","","","","","","","","","","","NaN",""
"","S1","","html-keyboard-response","551","728383","0.0-1.0-776.0","0","0","84178","","null","","","null","86","","","","","","","","","","","","","","","",""
"","ISI","","html-keyboard-response","552","730385","0.0-1.0-777.0","0","0","84178","","null","","","null","86","NaN","","","","","","","","","","","","","","",""
"","S2","","html-keyboard-response","553","730538","0.0-1.0-778.0","0","0","84178","","null","","","null","86","","NaN","","","","","","","","","","","","","",""
"","response","","html-keyboard-response","554","731318","0.0-1.0-779.0-0.0","0","0","84178","","779","","","68","86","","","2","86","training","adjacent","DE","4","5","P.jpg","O.jpg","1","1","1","",""
"","feedback","","html-keyboard-response","555","732322","0.0-1.0-780.0-0.0","0","0","84178","","null","","","null","86","","","","","","","","","","","","","","","",""
"","ITI","","html-keyboard-response","556","733324","0.0-1.0-783.0","0","0","84178","","null","","","null","86","","","","","","","","","","","","","","","NaN",""
"","S1","","html-keyboard-response","557","733478","0.0-1.0-785.0","0","0","84178","","null","","","null","87","","","","","","","","","","","","","","","",""
"","ISI","","html-keyboard-response","558","735480","0.0-1.0-786.0","0","0","84178","","null","","","null","87","NaN","","","","","","","","","","","","","","",""
"","S2","","html-keyboard-response","559","735632","0.0-1.0-787.0","0","0","84178","","null","","","null","87","","NaN","","","","","","","","","","","","","",""
"","response","","html-keyboard-response","560","736614","0.0-1.0-788.0-0.0","0","0","84178","","980","","","68","87","","","2","87","training","adjacent","BC","2","3","Q.jpg","R.jpg","1","1","1","",""
"","feedback","","html-keyboard-response","561","737617","0.0-1.0-789.0-0.0","0","0","84178","","null","","","null","87","","","","","","","","","","","","","","","",""
"","ITI","","html-keyboard-response","562","738620","0.0-1.0-792.0","0","0","84178","","null","","","null","87","","","","","","","","","","","","","","","NaN",""
"","S1","","html-keyboard-response","563","738772","0.0-1.0-794.0","0","0","84178","","null","","","null","88","","","","","","","","","","","","","","","",""
"","ISI","","html-keyboard-response","564","740774","0.0-1.0-795.0","0","0","84178","","null","","","null","88","NaN","","","","","","","","","","","","","","",""
"","S2","","html-keyboard-response","565","740927","0.0-1.0-796.0","0","0","84178","","null","","","null","88","","NaN","","","","","","","","","","","","","",""
"","response","","html-keyboard-response","566","741460","0.0-1.0-797.0-0.0","0","0","84178","","530","","","75","88","","","2","88","training","adjacent","CD","3","4","R.jpg","P.jpg","0","1","0","",""
"","feedback","","html-keyboard-response","567","742462","0.0-1.0-798.0-0.0","0","0","84178","","null","","","null","88","","","","","","","","","","","","","","","",""
"","time_out","","html-keyboard-response","568","744465","0.0-1.0-800.0-0.0","0","0","84178","","null","","","null","88","","","","","","","","","","","","","","","",""
"","ITI","","html-keyboard-response","569","745467","0.0-1.0-801.0","0","0","84178","","null","","","null","88","","","","","","","","","","","","","","","NaN",""
"","S1","","html-keyboard-response","570","745620","0.0-1.0-803.0","0","0","84178","","null","","","null","89","","","","","","","","","","","","","","","",""
"","ISI","","html-keyboard-response","571","747622","0.0-1.0-804.0","0","0","84178","","null","","","null","89","NaN","","","","","","","","","","","","","","",""
"","S2","","html-keyboard-response","572","747774","0.0-1.0-805.0","0","0","84178","","null","","","null","89","","NaN","","","","","","","","","","","","","",""
"","response","","html-keyboard-response","573","748041","0.0-1.0-806.0-0.0","0","0","84178","","266","","","75","89","","","2","89","training","adjacent","GF","7","6","N.jpg","M.jpg","0","0","1","",""
"","feedback","","html-keyboard-response","574","749044","0.0-1.0-807.0-0.0","0","0","84178","","null","","","null","89","","","","","","","","","","","","","","","",""
"","ITI","","html-keyboard-response","575","750047","0.0-1.0-810.0","0","0","84178","","null","","","null","89","","","","","","","","","","","","","","","NaN",""
"","S1","","html-keyboard-response","576","750199","0.0-1.0-812.0","0","0","84178","","null","","","null","90","","","","","","","","","","","","","","","",""
"","ISI","","html-keyboard-response","577","752202","0.0-1.0-813.0","0","0","84178","","null","","","null","90","NaN","","","","","","","","","","","","","","",""
"","S2","","html-keyboard-response","578","752354","0.0-1.0-814.0","0","0","84178","","null","","","null","90","","NaN","","","","","","","","","","","","","",""
"","response","","html-keyboard-response","579","752887","0.0-1.0-815.0-0.0","0","0","84178","","531","","","75","90","","","2","90","training","adjacent","DC","4","3","P.jpg","R.jpg","0","0","1","",""
"","feedback","","html-keyboard-response","580","753889","0.0-1.0-816.0-0.0","0","0","84178","","null","","","null","90","","","","","","","","","","","","","","","",""
