"success","ttype","start_time","trial_type","trial_index","time_elapsed","internal_node_id","warning","missed_checkup","PID","view_history","rt","responses","repeat_instructions","key_press","index","keypress_isi","keypress_S2","block","trial_num","phase","group_type","pair_type","S1_stim","S2_stim","S1_img","S2_img","S1_chosen","S1_higher","accuracy","keypress_iti","total_bonus_tally"
"true","full_screen","d08052022hr1630","fullscreen","0","8629","0.0-0.0","0","0","62135","","","","","","","","","","","","","","","","","","","","","",""
"","instructions","","instructions","1","49952","0.0-1.0-0.0-0.0","0","0","62135","[{""page_index"":0,""viewing_time"":3058},{""page_index"":1,""viewing_time"":26288},{""page_index"":2,""viewing_time"":10466},{""page_index"":3,""viewing_time"":1508}]","41320","","","","","","","","","","","","","","","","","","","",""
"","comprehension_check","","survey-multi-choice","2","82850","0.0-1.0-0.0-1.0","0","0","62135","","32895","{""Q0"":""True"",""Q1"":""K"",""Q2"":""Only when the screen 'MAKE A CHOICE' is shown"",""Q3"":""Green mark"",""Q4"":""either D or K""}","1","","","","","","","","","","","","","","","","","",""
"","missed_instruction_checkup","","html-keyboard-response","3","84866","0.0-1.0-0.0-2.0-0.0","0","1","62135","","2014","","","32","","","","","","","","","","","","","","","","",""
"","instructions","","instructions","4","100722","0.0-1.0-0.1-0.1","0","0","62135","[{""page_index"":0,""viewing_time"":3418},{""page_index"":1,""viewing_time"":9643},{""page_index"":2,""viewing_time"":2248},{""page_index"":3,""viewing_time"":545}]","15854","","","","","","","","","","","","","","","","","","","",""
"","comprehension_check","","survey-multi-choice","5","117092","0.0-1.0-0.1-1.1","0","0","62135","","16365","{""Q0"":""True"",""Q1"":""K"",""Q2"":""Once the second image appears and while the screen 'MAKE A CHOICE' is shown"",""Q3"":""Green mark"",""Q4"":""either D or K""}","0","","","","","","","","","","","","","","","","","",""
"","start_exp","","html-keyboard-response","6","118376","0.0-1.0-1.0","0","0","62135","","1282","","","32","","","","","","","","","","","","","","","","",""
"","S1","","html-keyboard-response","7","118630","0.0-1.0-2.0","0","0","62135","","null","","","null","0","","","","","","","","","","","","","","","",""
"","ISI","","html-keyboard-response","8","120632","0.0-1.0-3.0","0","0","62135","","null","","","null","0","NaN","","","","","","","","","","","","","","",""
"","S2","","html-keyboard-response","9","120886","0.0-1.0-4.0","0","0","62135","","null","","","null","0","","NaN","","","","","","","","","","","","","",""
"","response","","html-keyboard-response","10","121526","0.0-1.0-5.0-0.0","0","0","62135","","637","","","75","0","","","1","0","training","adjacent","BA","2","1","M.jpg","P.jpg","1","0","0","",""
"","feedback","","html-keyboard-response","11","122529","0.0-1.0-6.0-0.0","0","0","62135","","null","","","null","0","","","","","","","","","","","","","","","",""
"","time_out","","html-keyboard-response","12","124533","0.0-1.0-8.0-0.0","0","0","62135","","null","","","null","0","","","","","","","","","","","","","","","",""
"","ITI","","html-keyboard-response","13","125537","0.0-1.0-9.0","0","0","62135","","null","","","null","0","","","","","","","","","","","","","","","NaN",""
"","S1","","html-keyboard-response","14","125791","0.0-1.0-11.0","0","0","62135","","null","","","null","1","","","","","","","","","","","","","","","",""
"","ISI","","html-keyboard-response","15","127795","0.0-1.0-12.0","0","0","62135","","null","","","null","1","NaN","","","","","","","","","","","","","","",""
"","S2","","html-keyboard-response","16","128049","0.0-1.0-13.0","0","0","62135","","null","","","null","1","","NaN","","","","","","","","","","","","","",""
"","response","","html-keyboard-response","17","128726","0.0-1.0-14.0-0.0","0","0","62135","","676","","","68","1","","","1","1","training","adjacent","FE","6","5","O.jpg","L.jpg","0","0","1","",""
"","feedback","","html-keyboard-response","18","129731","0.0-1.0-15.0-0.0","0","0","62135","","null","","","null","1","","","","","","","","","","","","","","","",""
"","ITI","","html-keyboard-response","19","130735","0.0-1.0-18.0","0","0","62135","","null","","","null","1","","","","","","","","","","","","","","","NaN",""
"","S1","","html-keyboard-response","20","130987","0.0-1.0-20.0","0","0","62135","","null","","","null","2","","","","","","","","","","","","","","","",""
"","ISI","","html-keyboard-response","21","132990","0.0-1.0-21.0","0","0","62135","","null","","","null","2","NaN","","","","","","","","","","","","","","",""
"","S2","","html-keyboard-response","22","133244","0.0-1.0-22.0","0","0","62135","","null","","","null","2","","NaN","","","","","","","","","","","","","",""
"","response","","html-keyboard-response","23","133792","0.0-1.0-23.0-0.0","0","0","62135","","540","","","75","2","","","1","2","training","adjacent","CD","3","4","N.jpg","R.jpg","1","1","1","",""
"","feedback","","html-keyboard-response","24","134794","0.0-1.0-24.0-0.0","0","0","62135","","null","","","null","2","","","","","","","","","","","","","","","",""
"","ITI","","html-keyboard-response","25","135802","0.0-1.0-27.0","0","0","62135","","null","","","null","2","","","","","","","","","","","","","","","NaN",""
"","S1","","html-keyboard-response","26","136055","0.0-1.0-29.0","0","0","62135","","null","","","null","3","","","","","","","","","","","","","","","",""
"","ISI","","html-keyboard-response","27","138056","0.0-1.0-30.0","0","0","62135","","null","","","null","3","NaN","","","","","","","","","","","","","","",""
"","S2","","html-keyboard-response","28","138310","0.0-1.0-31.0","0","0","62135","","null","","","null","3","","NaN","","","","","","","","","","","","","",""
"","response","","html-keyboard-response","29","138969","0.0-1.0-32.0-0.0","0","0","62135","","657","","","75","3","","","1","3","training","adjacent","DE","4","5","R.jpg","L.jpg","1","1","1","",""
"","feedback","","html-keyboard-response","30","139973","0.0-1.0-33.0-0.0","0","0","62135","","null","","","null","3","","","","","","","","","","","","","","","",""
"","ITI","","html-keyboard-response","31","140976","0.0-1.0-36.0","0","0","62135","","null","","","null","3","","","","","","","","","","","","","","","NaN",""
"","S1","","html-keyboard-response","32","141230","0.0-1.0-38.0","0","0","62135","","null","","","null","4","","","","","","","","","","","","","","","",""
"","ISI","","html-keyboard-response","33","143233","0.0-1.0-39.0","0","0","62135","","null","","","null","4","NaN","","","","","","","","","","","","","","",""
"","S2","","html-keyboard-response","34","143486","0.0-1.0-40.0","0","0","62135","","null","","","null","4","","NaN","","","","","","","","","","","","","",""
"","response","","html-keyboard-response","35","143775","0.0-1.0-41.0-0.0","0","0","62135","","287","","","75","4","","","1","4","training","adjacent","DE","4","5","R.jpg","L.jpg","1","1","1","",""
"","feedback","","html-keyboard-response","36","144778","0.0-1.0-42.0-0.0","0","0","62135","","null","","","null","4","","","","","","","","","","","","","","","",""
"","ITI","","html-keyboard-response","37","145781","0.0-1.0-45.0","0","0","62135","","null","","","null","4","","","","","","","","","","","","","","","NaN",""
"","S1","","html-keyboard-response","38","146035","0.0-1.0-47.0","0","0","62135","","null","","","null","5","","","","","","","","","","","","","","","",""
"","ISI","","html-keyboard-response","39","148037","0.0-1.0-48.0","0","0","62135","","null","","","null","5","NaN","","","","","","","","","","","","","","",""
"","S2","","html-keyboard-response","40","148290","0.0-1.0-49.0","0","0","62135","","null","","","null","5","","NaN","","","","","","","","","","","","","",""
"","response","","html-keyboard-response","41","148547","0.0-1.0-50.0-0.0","0","0","62135","","255","","","75","5","","","1","5","training","adjacent","DC","4","3","R.jpg","N.jpg","1","0","0","",""
"","feedback","","html-keyboard-response","42","149551","0.0-1.0-51.0-0.0","0","0","62135","","null","","","null","5","","","","","","","","","","","","","","","",""
"","time_out","","html-keyboard-response","43","151563","0.0-1.0-53.0-0.0","0","0","62135","","null","","","null","5","","","","","","","","","","","","","","","",""
"","ITI","","html-keyboard-response","44","152566","0.0-1.0-54.0","0","0","62135","","null","","","null","5","","","","","","","","","","","","","","","NaN",""
"","S1","","html-keyboard-response","45","152819","0.0-1.0-56.0","0","0","62135","","null","","","null","6","","","","","","","","","","","","","","","",""
"","ISI","","html-keyboard-response","46","154821","0.0-1.0-57.0","0","0","62135","","null","","","null","6","NaN","","","","","","","","","","","","","","",""
"","S2","","html-keyboard-response","47","155078","0.0-1.0-58.0","0","0","62135","","null","","","null","6","","NaN","","","","","","","","","","","","","",""
"","response","","html-keyboard-response","48","155891","0.0-1.0-59.0-0.0","0","0","62135","","812","","","68","6","","","1","6","training","adjacent","EF","5","6","L.jpg","O.jpg","0","1","0","",""
"","feedback","","html-keyboard-response","49","156894","0.0-1.0-60.0-0.0","0","0","62135","","null","","","null","6","","","","","","","","","","","","","","","",""
"","time_out","","html-keyboard-response","50","158897","0.0-1.0-62.0-0.0","0","0","62135","","null","","","null","6","","","","","","","","","","","","","","","",""
"","ITI","","html-keyboard-response","51","159902","0.0-1.0-63.0","0","0","62135","","null","","","null","6","","","","","","","","","","","","","","","NaN",""
"","S1","","html-keyboard-response","52","160155","0.0-1.0-65.0","0","0","62135","","null","","","null","7","","","","","","","","","","","","","","","",""
"","ISI","","html-keyboard-response","53","162157","0.0-1.0-66.0","0","0","62135","","null","","","null","7","NaN","","","","","","","","","","","","","","",""
"","S2","","html-keyboard-response","54","162409","0.0-1.0-67.0","0","0","62135","","null","","","null","7","","NaN","","","","","","","","","","","","","",""
"","response","","html-keyboard-response","55","162692","0.0-1.0-68.0-0.0","0","0","62135","","281","","","75","7","","","1","7","training","adjacent","AB","1","2","P.jpg","M.jpg","1","1","1","",""
"","feedback","","html-keyboard-response","56","163696","0.0-1.0-69.0-0.0","0","0","62135","","null","","","null","7","","","","","","","","","","","","","","","",""
"","ITI","","html-keyboard-response","57","164699","0.0-1.0-72.0","0","0","62135","","null","","","null","7","","","","","","","","","","","","","","","NaN",""
"","S1","","html-keyboard-response","58","164954","0.0-1.0-74.0","0","0","62135","","null","","","null","8","","","","","","","","","","","","","","","",""
"","ISI","","html-keyboard-response","59","166968","0.0-1.0-75.0","0","0","62135","","null","","","null","8","NaN","","","","","","","","","","","","","","",""
"","S2","","html-keyboard-response","60","167221","0.0-1.0-76.0","0","0","62135","","null","","","null","8","","NaN","","","","","","","","","","","","","",""
"","response","","html-keyboard-response","61","167780","0.0-1.0-77.0-0.0","0","0","62135","","556","","","75","8","","","1","8","training","adjacent","BC","2","3","M.jpg","N.jpg","1","1","1","",""
"","feedback","","html-keyboard-response","62","168782","0.0-1.0-78.0-0.0","0","0","62135","","null","","","null","8","","","","","","","","","","","","","","","",""
"","ITI","","html-keyboard-response","63","169785","0.0-1.0-81.0","0","0","62135","","null","","","null","8","","","","","","","","","","","","","","","NaN",""
"","S1","","html-keyboard-response","64","170039","0.0-1.0-83.0","0","0","62135","","null","","","null","9","","","","","","","","","","","","","","","",""
"","ISI","","html-keyboard-response","65","172041","0.0-1.0-84.0","0","0","62135","","null","","","null","9","NaN","","","","","","","","","","","","","","",""
"","S2","","html-keyboard-response","66","172293","0.0-1.0-85.0","0","0","62135","","null","","","null","9","","NaN","","","","","","","","","","","","","",""
"","response","","html-keyboard-response","67","172534","0.0-1.0-86.0-0.0","0","0","62135","","238","","","75","9","","","1","9","training","adjacent","CD","3","4","N.jpg","R.jpg","1","1","1","",""
"","feedback","","html-keyboard-response","68","173537","0.0-1.0-87.0-0.0","0","0","62135","","null","","","null","9","","","","","","","","","","","","","","","",""
"","ITI","","html-keyboard-response","69","174540","0.0-1.0-90.0","0","0","62135","","null","","","null","9","","","","","","","","","","","","","","","NaN",""
"","S1","","html-keyboard-response","70","174799","0.0-1.0-92.0","0","0","62135","","null","","","null","10","","","","","","","","","","","","","","","",""
"","ISI","","html-keyboard-response","71","176804","0.0-1.0-93.0","0","0","62135","","null","","","null","10","NaN","","","","","","","","","","","","","","",""
"","S2","","html-keyboard-response","72","177058","0.0-1.0-94.0","0","0","62135","","null","","","null","10","","NaN","","","","","","","","","","","","","",""
"","response","","html-keyboard-response","73","177362","0.0-1.0-95.0-0.0","0","0","62135","","303","","","75","10","","","1","10","training","adjacent","GF","7","6","Q.jpg","O.jpg","1","0","0","",""
"","feedback","","html-keyboard-response","74","178365","0.0-1.0-96.0-0.0","0","0","62135","","null","","","null","10","","","","","","","","","","","","","","","",""
"","time_out","","html-keyboard-response","75","180368","0.0-1.0-98.0-0.0","0","0","62135","","null","","","null","10","","","","","","","","","","","","","","","",""
"","ITI","","html-keyboard-response","76","181372","0.0-1.0-99.0","0","0","62135","","null","","","null","10","","","","","","","","","","","","","","","NaN",""
"","S1","","html-keyboard-response","77","181626","0.0-1.0-101.0","0","0","62135","","null","","","null","11","","","","","","","","","","","","","","","",""
"","ISI","","html-keyboard-response","78","183630","0.0-1.0-102.0","0","0","62135","","null","","","null","11","NaN","","","","","","","","","","","","","","",""
"","S2","","html-keyboard-response","79","183889","0.0-1.0-103.0","0","0","62135","","null","","","null","11","","NaN","","","","","","","","","","","","","",""
"","response","","html-keyboard-response","80","184300","0.0-1.0-104.0-0.0","0","0","62135","","409","","","75","11","","","1","11","training","adjacent","FG","6","7","O.jpg","Q.jpg","1","1","1","",""
"","feedback","","html-keyboard-response","81","185305","0.0-1.0-105.0-0.0","0","0","62135","","null","","","null","11","","","","","","","","","","","","","","","",""
"","ITI","","html-keyboard-response","82","186309","0.0-1.0-108.0","0","0","62135","","null","","","null","11","","","","","","","","","","","","","","","NaN",""
"","S1","","html-keyboard-response","83","186562","0.0-1.0-110.0","0","0","62135","","null","","","null","12","","","","","","","","","","","","","","","",""
"","ISI","","html-keyboard-response","84","188566","0.0-1.0-111.0","0","0","62135","","null","","","null","12","NaN","","","","","","","","","","","","","","",""
"","S2","","html-keyboard-response","85","188819","0.0-1.0-112.0","0","0","62135","","null","","","null","12","","NaN","","","","","","","","","","","","","",""
"","response","","html-keyboard-response","86","189015","0.0-1.0-113.0-0.0","0","0","62135","","195","","","75","12","","","1","12","training","adjacent","CB","3","2","N.jpg","M.jpg","1","0","0","",""
"","feedback","","html-keyboard-response","87","190018","0.0-1.0-114.0-0.0","0","0","62135","","null","","","null","12","","","","","","","","","","","","","","","",""
"","time_out","","html-keyboard-response","88","192021","0.0-1.0-116.0-0.0","0","0","62135","","null","","","null","12","","","","","","","","","","","","","","","",""
"","ITI","","html-keyboard-response","89","193026","0.0-1.0-117.0","0","0","62135","","null","","","null","12","","","","","","","","","","","","","","","NaN",""
"","S1","","html-keyboard-response","90","193280","0.0-1.0-119.0","0","0","62135","","null","","","null","13","","","","","","","","","","","","","","","",""
"","ISI","","html-keyboard-response","91","195283","0.0-1.0-120.0","0","0","62135","","null","","","null","13","NaN","","","","","","","","","","","","","","",""
"","S2","","html-keyboard-response","92","195538","0.0-1.0-121.0","0","0","62135","","null","","","null","13","","NaN","","","","","","","","","","","","","",""
"","response","","html-keyboard-response","93","196044","0.0-1.0-122.0-0.0","0","0","62135","","504","","","75","13","","","1","13","training","adjacent","BA","2","1","M.jpg","P.jpg","1","0","0","",""
"","feedback","","html-keyboard-response","94","197048","0.0-1.0-123.0-0.0","0","0","62135","","null","","","null","13","","","","","","","","","","","","","","","",""
"","time_out","","html-keyboard-response","95","199051","0.0-1.0-125.0-0.0","0","0","62135","","null","","","null","13","","","","","","","","","","","","","","","",""
"","ITI","","html-keyboard-response","96","200056","0.0-1.0-126.0","0","0","62135","","null","","","null","13","","","","","","","","","","","","","","","NaN",""
"","S1","","html-keyboard-response","97","200309","0.0-1.0-128.0","0","0","62135","","null","","","null","14","","","","","","","","","","","","","","","",""
"","ISI","","html-keyboard-response","98","202314","0.0-1.0-129.0","0","0","62135","","null","","","null","14","NaN","","","","","","","","","","","","","","",""
"","S2","","html-keyboard-response","99","202566","0.0-1.0-130.0","0","0","62135","","null","","","null","14","","NaN","","","","","","","","","","","","","",""
"","response","","html-keyboard-response","100","203084","0.0-1.0-131.0-0.0","0","0","62135","","515","","","75","14","","","1","14","training","adjacent","DE","4","5","R.jpg","L.jpg","1","1","1","",""
"","feedback","","html-keyboard-response","101","204088","0.0-1.0-132.0-0.0","0","0","62135","","null","","","null","14","","","","","","","","","","","","","","","",""
"","ITI","","html-keyboard-response","102","205092","0.0-1.0-135.0","0","0","62135","","null","","","null","14","","","","","","","","","","","","","","","NaN",""
"","S1","","html-keyboard-response","103","205346","0.0-1.0-137.0","0","0","62135","","null","","","null","15","","","","","","","","","","","","","","","",""
"","ISI","","html-keyboard-response","104","207350","0.0-1.0-138.0","0","0","62135","","null","","","null","15","NaN","","","","","","","","","","","","","","",""
"","S2","","html-keyboard-response","105","207605","0.0-1.0-139.0","0","0","62135","","null","","","null","15","","NaN","","","","","","","","","","","","","",""
"","response","","html-keyboard-response","106","208193","0.0-1.0-140.0-0.0","0","0","62135","","584","","","75","15","","","1","15","training","adjacent","FG","6","7","O.jpg","Q.jpg","1","1","1","",""
"","feedback","","html-keyboard-response","107","209197","0.0-1.0-141.0-0.0","0","0","62135","","null","","","null","15","","","","","","","","","","","","","","","",""
"","ITI","","html-keyboard-response","108","210200","0.0-1.0-144.0","0","0","62135","","null","","","null","15","","","","","","","","","","","","","","","NaN",""
"","S1","","html-keyboard-response","109","210454","0.0-1.0-146.0","0","0","62135","","null","","","null","16","","","","","","","","","","","","","","","",""
"","ISI","","html-keyboard-response","110","212457","0.0-1.0-147.0","0","0","62135","","null","","","null","16","NaN","","","","","","","","","","","","","","",""
"","S2","","html-keyboard-response","111","212710","0.0-1.0-148.0","0","0","62135","","null","","","null","16","","NaN","","","","","","","","","","","","","",""
"","response","","html-keyboard-response","112","213157","0.0-1.0-149.0-0.0","0","0","62135","","446","","","75","16","","","1","16","training","adjacent","FE","6","5","O.jpg","L.jpg","1","0","0","",""
"","feedback","","html-keyboard-response","113","214160","0.0-1.0-150.0-0.0","0","0","62135","","null","","","null","16","","","","","","","","","","","","","","","",""
"","time_out","","html-keyboard-response","114","216164","0.0-1.0-152.0-0.0","0","0","62135","","null","","","null","16","","","","","","","","","","","","","","","",""
"","ITI","","html-keyboard-response","115","217167","0.0-1.0-153.0","0","0","62135","","null","","","null","16","","","","","","","","","","","","","","","NaN",""
"","S1","","html-keyboard-response","116","217420","0.0-1.0-155.0","0","0","62135","","null","","","null","17","","","","","","","","","","","","","","","",""
"","ISI","","html-keyboard-response","117","219425","0.0-1.0-156.0","0","0","62135","","null","","","null","17","NaN","","","","","","","","","","","","","","",""
"","S2","","html-keyboard-response","118","219679","0.0-1.0-157.0","0","0","62135","","null","","","null","17","","NaN","","","","","","","","","","","","","",""
"","response","","html-keyboard-response","119","219848","0.0-1.0-158.0-0.0","0","0","62135","","166","","","68","17","","","1","17","training","adjacent","GF","7","6","Q.jpg","O.jpg","0","0","1","",""
"","feedback","","html-keyboard-response","120","220851","0.0-1.0-159.0-0.0","0","0","62135","","null","","","null","17","","","","","","","","","","","","","","","",""
"","ITI","","html-keyboard-response","121","221856","0.0-1.0-162.0","0","0","62135","","null","","","null","17","","","","","","","","","","","","","","","NaN",""
"","S1","","html-keyboard-response","122","222110","0.0-1.0-164.0","0","0","62135","","null","","","null","18","","","","","","","","","","","","","","","",""
"","ISI","","html-keyboard-response","123","224114","0.0-1.0-165.0","0","0","62135","","null","","","null","18","NaN","","","","","","","","","","","","","","",""
"","S2","","html-keyboard-response","124","224368","0.0-1.0-166.0","0","0","62135","","null","","","null","18","","NaN","","","","","","","","","","","","","",""
"","response","","html-keyboard-response","125","224516","0.0-1.0-167.0-0.0","0","0","62135","","145","","","75","18","","","1","18","training","adjacent","AB","1","2","P.jpg","M.jpg","1","1","1","",""
"","feedback","","html-keyboard-response","126","225521","0.0-1.0-168.0-0.0","0","0","62135","","null","","","null","18","","","","","","","","","","","","","","","",""
"","ITI","","html-keyboard-response","127","226525","0.0-1.0-171.0","0","0","62135","","null","","","null","18","","","","","","","","","","","","","","","NaN",""
"","S1","","html-keyboard-response","128","226779","0.0-1.0-173.0","0","0","62135","","null","","","null","19","","","","","","","","","","","","","","","",""
"","ISI","","html-keyboard-response","129","228784","0.0-1.0-174.0","0","0","62135","","null","","","null","19","NaN","","","","","","","","","","","","","","",""
"","S2","","html-keyboard-response","130","229037","0.0-1.0-175.0","0","0","62135","","null","","","null","19","","NaN","","","","","","","","","","","","","",""
"","response","","html-keyboard-response","131","229644","0.0-1.0-176.0-0.0","0","0","62135","","606","","","68","19","","","1","19","training","adjacent","FE","6","5","O.jpg","L.jpg","0","0","1","",""
"","feedback","","html-keyboard-response","132","230647","0.0-1.0-177.0-0.0","0","0","62135","","null","","","null","19","","","","","","","","","","","","","","","",""
"","ITI","","html-keyboard-response","133","231651","0.0-1.0-180.0","0","0","62135","","null","","","null","19","","","","","","","","","","","","","","","NaN",""
"","S1","","html-keyboard-response","134","231905","0.0-1.0-182.0","0","0","62135","","null","","","null","20","","","","","","","","","","","","","","","",""
"","ISI","","html-keyboard-response","135","233908","0.0-1.0-183.0","0","0","62135","","null","","","null","20","NaN","","","","","","","","","","","","","","",""
"","S2","","html-keyboard-response","136","234160","0.0-1.0-184.0","0","0","62135","","null","","","null","20","","NaN","","","","","","","","","","","","","",""
"","response","","html-keyboard-response","137","234266","0.0-1.0-185.0-0.0","0","0","62135","","105","","","75","20","","","1","20","training","adjacent","CB","3","2","N.jpg","M.jpg","1","0","0","",""
"","feedback","","html-keyboard-response","138","235270","0.0-1.0-186.0-0.0","0","0","62135","","null","","","null","20","","","","","","","","","","","","","","","",""
"","time_out","","html-keyboard-response","139","237273","0.0-1.0-188.0-0.0","0","0","62135","","null","","","null","20","","","","","","","","","","","","","","","",""
"","ITI","","html-keyboard-response","140","238277","0.0-1.0-189.0","0","0","62135","","null","","","null","20","","","","","","","","","","","","","","","NaN",""
"","S1","","html-keyboard-response","141","238532","0.0-1.0-191.0","0","0","62135","","null","","","null","21","","","","","","","","","","","","","","","",""
"","ISI","","html-keyboard-response","142","240536","0.0-1.0-192.0","0","0","62135","","null","","","null","21","NaN","","","","","","","","","","","","","","",""
"","S2","","html-keyboard-response","143","240790","0.0-1.0-193.0","0","0","62135","","null","","","null","21","","NaN","","","","","","","","","","","","","",""
"","response","","html-keyboard-response","144","241052","0.0-1.0-194.0-0.0","0","0","62135","","259","","","68","21","","","1","21","training","adjacent","DC","4","3","R.jpg","N.jpg","0","0","1","",""
"","feedback","","html-keyboard-response","145","242057","0.0-1.0-195.0-0.0","0","0","62135","","null","","","null","21","","","","","","","","","","","","","","","",""
"","ITI","","html-keyboard-response","146","243060","0.0-1.0-198.0","0","0","62135","","null","","","null","21","","","","","","","","","","","","","","","NaN",""
"","S1","","html-keyboard-response","147","243312","0.0-1.0-200.0","0","0","62135","","null","","","null","22","","","","","","","","","","","","","","","",""
"","ISI","","html-keyboard-response","148","245315","0.0-1.0-201.0","0","0","62135","","null","","","null","22","NaN","","","","","","","","","","","","","","",""
"","S2","","html-keyboard-response","149","245568","0.0-1.0-202.0","0","0","62135","","null","","","null","22","","NaN","","","","","","","","","","","","","",""
"","response","","html-keyboard-response","150","245784","0.0-1.0-203.0-0.0","0","0","62135","","213","","","75","22","","","1","22","training","adjacent","BC","2","3","M.jpg","N.jpg","1","1","1","",""
"","feedback","","html-keyboard-response","151","246789","0.0-1.0-204.0-0.0","0","0","62135","","null","","","null","22","","","","","","","","","","","","","","","",""
"","ITI","","html-keyboard-response","152","247792","0.0-1.0-207.0","0","0","62135","","null","","","null","22","","","","","","","","","","","","","","","NaN",""
"","S1","","html-keyboard-response","153","248045","0.0-1.0-209.0","0","0","62135","","null","","","null","23","","","","","","","","","","","","","","","",""
"","ISI","","html-keyboard-response","154","250048","0.0-1.0-210.0","0","0","62135","","null","","","null","23","NaN","","","","","","","","","","","","","","",""
"","S2","","html-keyboard-response","155","250301","0.0-1.0-211.0","0","0","62135","","null","","","null","23","","NaN","","","","","","","","","","","","","",""
"","response","","html-keyboard-response","156","250908","0.0-1.0-212.0-0.0","0","0","62135","","605","","","68","23","","","1","23","training","adjacent","FE","6","5","O.jpg","L.jpg","0","0","1","",""
"","feedback","","html-keyboard-response","157","251914","0.0-1.0-213.0-0.0","0","0","62135","","null","","","null","23","","","","","","","","","","","","","","","",""
"","ITI","","html-keyboard-response","158","252918","0.0-1.0-216.0","0","0","62135","","null","","","null","23","","","","","","","","","","","","","","","NaN",""
"","S1","","html-keyboard-response","159","253180","0.0-1.0-218.0","0","0","62135","","null","","","null","24","","","","","","","","","","","","","","","",""
"","ISI","","html-keyboard-response","160","255183","0.0-1.0-219.0","0","0","62135","","null","","","null","24","NaN","","","","","","","","","","","","","","",""
"","S2","","html-keyboard-response","161","255438","0.0-1.0-220.0","0","0","62135","","null","","","null","24","","NaN","","","","","","","","","","","","","",""
"","response","","html-keyboard-response","162","256338","0.0-1.0-221.0-0.0","0","0","62135","","898","","","68","24","","","1","24","training","adjacent","BA","2","1","M.jpg","P.jpg","0","0","1","",""
"","feedback","","html-keyboard-response","163","257342","0.0-1.0-222.0-0.0","0","0","62135","","null","","","null","24","","","","","","","","","","","","","","","",""
"","ITI","","html-keyboard-response","164","258346","0.0-1.0-225.0","0","0","62135","","null","","","null","24","","","","","","","","","","","","","","","NaN",""
"","S1","","html-keyboard-response","165","258600","0.0-1.0-227.0","0","0","62135","","null","","","null","25","","","","","","","","","","","","","","","",""
"","ISI","","html-keyboard-response","166","260604","0.0-1.0-228.0","0","0","62135","","null","","","null","25","NaN","","","","","","","","","","","","","","",""
"","S2","","html-keyboard-response","167","260858","0.0-1.0-229.0","0","0","62135","","null","","","null","25","","NaN","","","","","","","","","","","","","",""
"","response","","html-keyboard-response","168","261402","0.0-1.0-230.0-0.0","0","0","62135","","543","","","75","25","","","1","25","training","adjacent","ED","5","4","L.jpg","R.jpg","1","0","0","",""
"","feedback","","html-keyboard-response","169","262407","0.0-1.0-231.0-0.0","0","0","62135","","null","","","null","25","","","","","","","","","","","","","","","",""
"","time_out","","html-keyboard-response","170","264411","0.0-1.0-233.0-0.0","0","0","62135","","null","","","null","25","","","","","","","","","","","","","","","",""
"","ITI","","html-keyboard-response","171","265415","0.0-1.0-234.0","0","0","62135","","null","","","null","25","","","","","","","","","","","","","","","NaN",""
"","S1","","html-keyboard-response","172","265669","0.0-1.0-236.0","0","0","62135","","null","","","null","26","","","","","","","","","","","","","","","",""
"","ISI","","html-keyboard-response","173","267673","0.0-1.0-237.0","0","0","62135","","null","","","null","26","NaN","","","","","","","","","","","","","","",""
"","S2","","html-keyboard-response","174","267927","0.0-1.0-238.0","0","0","62135","","null","","","null","26","","NaN","","","","","","","","","","","","","",""
"","response","","html-keyboard-response","175","268826","0.0-1.0-239.0-0.0","0","0","62135","","898","","","75","26","","","1","26","training","adjacent","CB","3","2","N.jpg","M.jpg","1","0","0","",""
"","feedback","","html-keyboard-response","176","269828","0.0-1.0-240.0-0.0","0","0","62135","","null","","","null","26","","","","","","","","","","","","","","","",""
"","time_out","","html-keyboard-response","177","271830","0.0-1.0-242.0-0.0","0","0","62135","","null","","","null","26","","","","","","","","","","","","","","","",""
"","ITI","","html-keyboard-response","178","272835","0.0-1.0-243.0","0","0","62135","","null","","","null","26","","","","","","","","","","","","","","","NaN",""
"","S1","","html-keyboard-response","179","273088","0.0-1.0-245.0","0","0","62135","","null","","","null","27","","","","","","","","","","","","","","","",""
"","ISI","","html-keyboard-response","180","275091","0.0-1.0-246.0","0","0","62135","","null","","","null","27","NaN","","","","","","","","","","","","","","",""
"","S2","","html-keyboard-response","181","275345","0.0-1.0-247.0","0","0","62135","","null","","","null","27","","NaN","","","","","","","","","","","","","",""
"","response","","html-keyboard-response","182","275711","0.0-1.0-248.0-0.0","0","0","62135","","364","","","68","27","","","1","27","training","adjacent","EF","5","6","L.jpg","O.jpg","0","1","0","",""
"","feedback","","html-keyboard-response","183","276714","0.0-1.0-249.0-0.0","0","0","62135","","null","","","null","27","","","","","","","","","","","","","","","",""
"","time_out","","html-keyboard-response","184","278716","0.0-1.0-251.0-0.0","0","0","62135","","null","","","null","27","","","","","","","","","","","","","","","",""
"","ITI","","html-keyboard-response","185","279719","0.0-1.0-252.0","0","0","62135","","null","","","null","27","","","","","","","","","","","","","","","NaN",""
"","S1","","html-keyboard-response","186","279974","0.0-1.0-254.0","0","0","62135","","null","","","null","28","","","","","","","","","","","","","","","",""
"","ISI","","html-keyboard-response","187","281977","0.0-1.0-255.0","0","0","62135","","null","","","null","28","NaN","","","","","","","","","","","","","","",""
"","S2","","html-keyboard-response","188","282230","0.0-1.0-256.0","0","0","62135","","null","","","null","28","","NaN","","","","","","","","","","","","","",""
"","response","","html-keyboard-response","189","282576","0.0-1.0-257.0-0.0","0","0","62135","","344","","","68","28","","","1","28","training","adjacent","BA","2","1","M.jpg","P.jpg","0","0","1","",""
"","feedback","","html-keyboard-response","190","283579","0.0-1.0-258.0-0.0","0","0","62135","","null","","","null","28","","","","","","","","","","","","","","","",""
"","ITI","","html-keyboard-response","191","284584","0.0-1.0-261.0","0","0","62135","","null","","","null","28","","","","","","","","","","","","","","","NaN",""
"","S1","","html-keyboard-response","192","284837","0.0-1.0-263.0","0","0","62135","","null","","","null","29","","","","","","","","","","","","","","","",""
"","ISI","","html-keyboard-response","193","286839","0.0-1.0-264.0","0","0","62135","","null","","","null","29","NaN","","","","","","","","","","","","","","",""
"","S2","","html-keyboard-response","194","287093","0.0-1.0-265.0","0","0","62135","","null","","","null","29","","NaN","","","","","","","","","","","","","",""
"","response","","html-keyboard-response","195","287519","0.0-1.0-266.0-0.0","0","0","62135","","424","","","68","29","","","1","29","training","adjacent","GF","7","6","Q.jpg","O.jpg","0","0","1","",""
"","feedback","","html-keyboard-response","196","288521","0.0-1.0-267.0-0.0","0","0","62135","","null","","","null","29","","","","","","","","","","","","","","","",""
"","ITI","","html-keyboard-response","197","289525","0.0-1.0-270.0","0","0","62135","","null","","","null","29","","","","","","","","","","","","","","","NaN",""
"","S1","","html-keyboard-response","198","289779","0.0-1.0-272.0","0","0","62135","","null","","","null","30","","","","","","","","","","","","","","","",""
"","ISI","","html-keyboard-response","199","291789","0.0-1.0-273.0","0","0","62135","","null","","","null","30","NaN","","","","","","","","","","","","","","",""
"","S2","","html-keyboard-response","200","292042","0.0-1.0-274.0","0","0","62135","","null","","","null","30","","NaN","","","","","","","","","","","","","",""
"","response","","html-keyboard-response","201","292308","0.0-1.0-275.0-0.0","0","0","62135","","264","","","75","30","","","1","30","training","adjacent","DC","4","3","R.jpg","N.jpg","1","0","0","",""
"","feedback","","html-keyboard-response","202","293314","0.0-1.0-276.0-0.0","0","0","62135","","null","","","null","30","","","","","","","","","","","","","","","",""
"","time_out","","html-keyboard-response","203","295317","0.0-1.0-278.0-0.0","0","0","62135","","null","","","null","30","","","","","","","","","","","","","","","",""
"","ITI","","html-keyboard-response","204","296320","0.0-1.0-279.0","0","0","62135","","null","","","null","30","","","","","","","","","","","","","","","NaN",""
"","S1","","html-keyboard-response","205","296575","0.0-1.0-281.0","0","0","62135","","null","","","null","31","","","","","","","","","","","","","","","",""
"","ISI","","html-keyboard-response","206","298579","0.0-1.0-282.0","0","0","62135","","null","","","null","31","NaN","","","","","","","","","","","","","","",""
"","S2","","html-keyboard-response","207","298831","0.0-1.0-283.0","0","0","62135","","null","","","null","31","","NaN","","","","","","","","","","","","","",""
"","response","","html-keyboard-response","208","299404","0.0-1.0-284.0-0.0","0","0","62135","","570","","","68","31","","","1","31","training","adjacent","BC","2","3","M.jpg","N.jpg","0","1","0","",""
"","feedback","","html-keyboard-response","209","300408","0.0-1.0-285.0-0.0","0","0","62135","","null","","","null","31","","","","","","","","","","","","","","","",""
"","time_out","","html-keyboard-response","210","302412","0.0-1.0-287.0-0.0","0","0","62135","","null","","","null","31","","","","","","","","","","","","","","","",""
"","ITI","","html-keyboard-response","211","303415","0.0-1.0-288.0","0","0","62135","","null","","","null","31","","","","","","","","","","","","","","","NaN",""
"","S1","","html-keyboard-response","212","303669","0.0-1.0-290.0","0","0","62135","","null","","","null","32","","","","","","","","","","","","","","","",""
"","ISI","","html-keyboard-response","213","305672","0.0-1.0-291.0","0","0","62135","","null","","","null","32","NaN","","","","","","","","","","","","","","",""
"","S2","","html-keyboard-response","214","305926","0.0-1.0-292.0","0","0","62135","","null","","","null","32","","NaN","","","","","","","","","","","","","",""
"","response","","html-keyboard-response","215","306192","0.0-1.0-293.0-0.0","0","0","62135","","263","","","68","32","","","1","32","training","adjacent","EF","5","6","L.jpg","O.jpg","0","1","0","",""
"","feedback","","html-keyboard-response","216","307197","0.0-1.0-294.0-0.0","0","0","62135","","null","","","null","32","","","","","","","","","","","","","","","",""
"","time_out","","html-keyboard-response","217","309200","0.0-1.0-296.0-0.0","0","0","62135","","null","","","null","32","","","","","","","","","","","","","","","",""
"","ITI","","html-keyboard-response","218","310205","0.0-1.0-297.0","0","0","62135","","null","","","null","32","","","","","","","","","","","","","","","NaN",""
"","S1","","html-keyboard-response","219","310459","0.0-1.0-299.0","0","0","62135","","null","","","null","33","","","","","","","","","","","","","","","",""
"","ISI","","html-keyboard-response","220","312462","0.0-1.0-300.0","0","0","62135","","null","","","null","33","NaN","","","","","","","","","","","","","","",""
"","S2","","html-keyboard-response","221","312716","0.0-1.0-301.0","0","0","62135","","null","","","null","33","","NaN","","","","","","","","","","","","","",""
"","response","","html-keyboard-response","222","313120","0.0-1.0-302.0-0.0","0","0","62135","","401","","","75","33","","","1","33","training","adjacent","CB","3","2","N.jpg","M.jpg","1","0","0","",""
"","feedback","","html-keyboard-response","223","314133","0.0-1.0-303.0-0.0","0","0","62135","","null","","","null","33","","","","","","","","","","","","","","","",""
"","time_out","","html-keyboard-response","224","316136","0.0-1.0-305.0-0.0","0","0","62135","","null","","","null","33","","","","","","","","","","","","","","","",""
"","ITI","","html-keyboard-response","225","317140","0.0-1.0-306.0","0","0","62135","","null","","","null","33","","","","","","","","","","","","","","","NaN",""
"","S1","","html-keyboard-response","226","317395","0.0-1.0-308.0","0","0","62135","","null","","","null","34","","","","","","","","","","","","","","","",""
"","ISI","","html-keyboard-response","227","319397","0.0-1.0-309.0","0","0","62135","","null","","","null","34","NaN","","","","","","","","","","","","","","",""
"","S2","","html-keyboard-response","228","319650","0.0-1.0-310.0","0","0","62135","","null","","","null","34","","NaN","","","","","","","","","","","","","",""
"","response","","html-keyboard-response","229","320252","0.0-1.0-311.0-0.0","0","0","62135","","599","","","68","34","","","1","34","training","adjacent","ED","5","4","L.jpg","R.jpg","0","0","1","",""
"","feedback","","html-keyboard-response","230","321257","0.0-1.0-312.0-0.0","0","0","62135","","null","","","null","34","","","","","","","","","","","","","","","",""
"","ITI","","html-keyboard-response","231","322260","0.0-1.0-315.0","0","0","62135","","null","","","null","34","","","","","","","","","","","","","","","NaN",""
"","S1","","html-keyboard-response","232","322513","0.0-1.0-317.0","0","0","62135","","null","","","null","35","","","","","","","","","","","","","","","",""
"","ISI","","html-keyboard-response","233","324516","0.0-1.0-318.0","0","0","62135","","null","","","null","35","NaN","","","","","","","","","","","","","","",""
"","S2","","html-keyboard-response","234","324770","0.0-1.0-319.0","0","0","62135","","null","","","null","35","","NaN","","","","","","","","","","","","","",""
"","response","","html-keyboard-response","235","324930","0.0-1.0-320.0-0.0","0","0","62135","","158","","","68","35","","","1","35","training","adjacent","AB","1","2","P.jpg","M.jpg","0","1","0","",""
"","feedback","","html-keyboard-response","236","325932","0.0-1.0-321.0-0.0","0","0","62135","","null","","","null","35","","","","","","","","","","","","","","","",""
"","time_out","","html-keyboard-response","237","327937","0.0-1.0-323.0-0.0","0","0","62135","","null","","","null","35","","","","","","","","","","","","","","","",""
"","ITI","","html-keyboard-response","238","328940","0.0-1.0-324.0","0","0","62135","","null","","","null","35","","","","","","","","","","","","","","","NaN",""
"","S1","","html-keyboard-response","239","329194","0.0-1.0-326.0","0","0","62135","","null","","","null","36","","","","","","","","","","","","","","","",""
"","ISI","","html-keyboard-response","240","331199","0.0-1.0-327.0","0","0","62135","","null","","","null","36","NaN","","","","","","","","","","","","","","",""
"","S2","","html-keyboard-response","241","331453","0.0-1.0-328.0","0","0","62135","","null","","","null","36","","NaN","","","","","","","","","","","","","",""
"","response","","html-keyboard-response","242","332070","0.0-1.0-329.0-0.0","0","0","62135","","614","","","68","36","","","1","36","training","adjacent","EF","5","6","L.jpg","O.jpg","0","1","0","",""
"","feedback","","html-keyboard-response","243","333074","0.0-1.0-330.0-0.0","0","0","62135","","null","","","null","36","","","","","","","","","","","","","","","",""
"","time_out","","html-keyboard-response","244","335077","0.0-1.0-332.0-0.0","0","0","62135","","null","","","null","36","","","","","","","","","","","","","","","",""
"","ITI","","html-keyboard-response","245","336079","0.0-1.0-333.0","0","0","62135","","null","","","null","36","","","","","","","","","","","","","","","NaN",""
"","S1","","html-keyboard-response","246","336333","0.0-1.0-335.0","0","0","62135","","null","","","null","37","","","","","","","","","","","","","","","",""
"","ISI","","html-keyboard-response","247","338336","0.0-1.0-336.0","0","0","62135","","null","","","null","37","NaN","","","","","","","","","","","","","","",""
"","S2","","html-keyboard-response","248","338590","0.0-1.0-337.0","0","0","62135","","null","","","null","37","","NaN","","","","","","","","","","","","","",""
"","response","","html-keyboard-response","249","338648","0.0-1.0-338.0-0.0","0","0","62135","","55","","","75","37","","","1","37","training","adjacent","DC","4","3","R.jpg","N.jpg","1","0","0","",""
"","feedback","","html-keyboard-response","250","339653","0.0-1.0-339.0-0.0","0","0","62135","","null","","","null","37","","","","","","","","","","","","","","","",""
"","time_out","","html-keyboard-response","251","341657","0.0-1.0-341.0-0.0","0","0","62135","","null","","","null","37","","","","","","","","","","","","","","","",""
"","ITI","","html-keyboard-response","252","342660","0.0-1.0-342.0","0","0","62135","","null","","","null","37","","","","","","","","","","","","","","","NaN",""
"","S1","","html-keyboard-response","253","342914","0.0-1.0-344.0","0","0","62135","","null","","","null","38","","","","","","","","","","","","","","","",""
"","ISI","","html-keyboard-response","254","344917","0.0-1.0-345.0","0","0","62135","","null","","","null","38","NaN","","","","","","","","","","","","","","",""
"","S2","","html-keyboard-response","255","345171","0.0-1.0-346.0","0","0","62135","","null","","","null","38","","NaN","","","","","","","","","","","","","",""
"","response","","html-keyboard-response","256","345428","0.0-1.0-347.0-0.0","0","0","62135","","254","","","75","38","","","1","38","training","adjacent","ED","5","4","L.jpg","R.jpg","1","0","0","",""
"","feedback","","html-keyboard-response","257","346432","0.0-1.0-348.0-0.0","0","0","62135","","null","","","null","38","","","","","","","","","","","","","","","",""
"","time_out","","html-keyboard-response","258","348436","0.0-1.0-350.0-0.0","0","0","62135","","null","","","null","38","","","","","","","","","","","","","","","",""
"","ITI","","html-keyboard-response","259","349439","0.0-1.0-351.0","0","0","62135","","null","","","null","38","","","","","","","","","","","","","","","NaN",""
"","S1","","html-keyboard-response","260","349692","0.0-1.0-353.0","0","0","62135","","null","","","null","39","","","","","","","","","","","","","","","",""
"","ISI","","html-keyboard-response","261","351695","0.0-1.0-354.0","0","0","62135","","null","","","null","39","NaN","","","","","","","","","","","","","","",""
"","S2","","html-keyboard-response","262","351949","0.0-1.0-355.0","0","0","62135","","null","","","null","39","","NaN","","","","","","","","","","","","","",""
"","response","","html-keyboard-response","263","352144","0.0-1.0-356.0-0.0","0","0","62135","","192","","","75","39","","","1","39","training","adjacent","BC","2","3","M.jpg","N.jpg","1","1","1","",""
"","feedback","","html-keyboard-response","264","353147","0.0-1.0-357.0-0.0","0","0","62135","","null","","","null","39","","","","","","","","","","","","","","","",""
"","ITI","","html-keyboard-response","265","354151","0.0-1.0-360.0","0","0","62135","","null","","","null","39","","","","","","","","","","","","","","","NaN",""
"","S1","","html-keyboard-response","266","354410","0.0-1.0-362.0","0","0","62135","","null","","","null","40","","","","","","","","","","","","","","","",""
"","ISI","","html-keyboard-response","267","356413","0.0-1.0-363.0","0","0","62135","","null","","","null","40","NaN","","","","","","","","","","","","","","",""
"","S2","","html-keyboard-response","268","356667","0.0-1.0-364.0","0","0","62135","","null","","","null","40","","NaN","","","","","","","","","","","","","",""
"","response","","html-keyboard-response","269","357230","0.0-1.0-365.0-0.0","0","0","62135","","562","","","68","40","","","1","40","training","adjacent","AB","1","2","P.jpg","M.jpg","0","1","0","",""
"","feedback","","html-keyboard-response","270","358231","0.0-1.0-366.0-0.0","0","0","62135","","null","","","null","40","","","","","","","","","","","","","","","",""
"","time_out","","html-keyboard-response","271","360235","0.0-1.0-368.0-0.0","0","0","62135","","null","","","null","40","","","","","","","","","","","","","","","",""
"","ITI","","html-keyboard-response","272","361238","0.0-1.0-369.0","0","0","62135","","null","","","null","40","","","","","","","","","","","","","","","NaN",""
"","S1","","html-keyboard-response","273","361490","0.0-1.0-371.0","0","0","62135","","null","","","null","41","","","","","","","","","","","","","","","",""
"","ISI","","html-keyboard-response","274","363503","0.0-1.0-372.0","0","0","62135","","null","","","null","41","NaN","","","","","","","","","","","","","","",""
"","S2","","html-keyboard-response","275","363757","0.0-1.0-373.0","0","0","62135","","null","","","null","41","","NaN","","","","","","","","","","","","","",""
"","response","","html-keyboard-response","276","364132","0.0-1.0-374.0-0.0","0","0","62135","","372","","","75","41","","","1","41","training","adjacent","CD","3","4","N.jpg","R.jpg","1","1","1","",""
"","feedback","","html-keyboard-response","277","365135","0.0-1.0-375.0-0.0","0","0","62135","","null","","","null","41","","","","","","","","","","","","","","","",""
"","ITI","","html-keyboard-response","278","366137","0.0-1.0-378.0","0","0","62135","","null","","","null","41","","","","","","","","","","","","","","","NaN",""
"","S1","","html-keyboard-response","279","366390","0.0-1.0-380.0","0","0","62135","","null","","","null","42","","","","","","","","","","","","","","","",""
"","ISI","","html-keyboard-response","280","368394","0.0-1.0-381.0","0","0","62135","","null","","","null","42","NaN","","","","","","","","","","","","","","",""
"","S2","","html-keyboard-response","281","368648","0.0-1.0-382.0","0","0","62135","","null","","","null","42","","NaN","","","","","","","","","","","","","",""
"","response","","html-keyboard-response","282","369155","0.0-1.0-383.0-0.0","0","0","62135","","506","","","68","42","","","1","42","training","adjacent","GF","7","6","Q.jpg","O.jpg","0","0","1","",""
"","feedback","","html-keyboard-response","283","370159","0.0-1.0-384.0-0.0","0","0","62135","","null","","","null","42","","","","","","","","","","","","","","","",""
"","ITI","","html-keyboard-response","284","371164","0.0-1.0-387.0","0","0","62135","","null","","","null","42","","","","","","","","","","","","","","","NaN",""
"","S1","","html-keyboard-response","285","371417","0.0-1.0-389.0","0","0","62135","","null","","","null","43","","","","","","","","","","","","","","","",""
"","ISI","","html-keyboard-response","286","373421","0.0-1.0-390.0","0","0","62135","","null","","","null","43","NaN","","","","","","","","","","","","","","",""
"","S2","","html-keyboard-response","287","373675","0.0-1.0-391.0","0","0","62135","","null","","","null","43","","NaN","","","","","","","","","","","","","",""
"","response","","html-keyboard-response","288","373912","0.0-1.0-392.0-0.0","0","0","62135","","234","","","75","43","","","1","43","training","adjacent","ED","5","4","L.jpg","R.jpg","1","0","0","",""
"","feedback","","html-keyboard-response","289","374917","0.0-1.0-393.0-0.0","0","0","62135","","null","","","null","43","","","","","","","","","","","","","","","",""
"","time_out","","html-keyboard-response","290","376921","0.0-1.0-395.0-0.0","0","0","62135","","null","","","null","43","","","","","","","","","","","","","","","",""
"","ITI","","html-keyboard-response","291","377925","0.0-1.0-396.0","0","0","62135","","null","","","null","43","","","","","","","","","","","","","","","NaN",""
"","S1","","html-keyboard-response","292","378179","0.0-1.0-398.0","0","0","62135","","null","","","null","44","","","","","","","","","","","","","","","",""
"","ISI","","html-keyboard-response","293","380182","0.0-1.0-399.0","0","0","62135","","null","","","null","44","NaN","","","","","","","","","","","","","","",""
"","S2","","html-keyboard-response","294","380435","0.0-1.0-400.0","0","0","62135","","null","","","null","44","","NaN","","","","","","","","","","","","","",""
"","response","","html-keyboard-response","295","381396","0.0-1.0-401.0-0.0","0","0","62135","","958","","","75","44","","","1","44","training","adjacent","FG","6","7","O.jpg","Q.jpg","1","1","1","",""
"","feedback","","html-keyboard-response","296","382399","0.0-1.0-402.0-0.0","0","0","62135","","null","","","null","44","","","","","","","","","","","","","","","",""
"","ITI","","html-keyboard-response","297","383404","0.0-1.0-405.0","0","0","62135","","null","","","null","44","","","","","","","","","","","","","","","NaN",""
"","S1","","html-keyboard-response","298","383656","0.0-1.0-407.0","0","0","62135","","null","","","null","45","","","","","","","","","","","","","","","",""
"","ISI","","html-keyboard-response","299","385659","0.0-1.0-408.0","0","0","62135","","null","","","null","45","NaN","","","","","","","","","","","","","","",""
"","S2","","html-keyboard-response","300","385913","0.0-1.0-409.0","0","0","62135","","null","","","null","45","","NaN","","","","","","","","","","","","","",""
"","response","","html-keyboard-response","301","386976","0.0-1.0-410.0-0.0","0","0","62135","","1060","","","75","45","","","1","45","training","adjacent","DE","4","5","R.jpg","L.jpg","1","1","1","",""
"","feedback","","html-keyboard-response","302","387980","0.0-1.0-411.0-0.0","0","0","62135","","null","","","null","45","","","","","","","","","","","","","","","",""
"","ITI","","html-keyboard-response","303","388984","0.0-1.0-414.0","0","0","62135","","null","","","null","45","","","","","","","","","","","","","","","NaN",""
"","S1","","html-keyboard-response","304","389237","0.0-1.0-416.0","0","0","62135","","null","","","null","46","","","","","","","","","","","","","","","",""
"","ISI","","html-keyboard-response","305","391239","0.0-1.0-417.0","0","0","62135","","null","","","null","46","NaN","","","","","","","","","","","","","","",""
"","S2","","html-keyboard-response","306","391493","0.0-1.0-418.0","0","0","62135","","null","","","null","46","","NaN","","","","","","","","","","","","","",""
"","response","","html-keyboard-response","307","392522","0.0-1.0-419.0-0.0","0","0","62135","","1028","","","75","46","","","1","46","training","adjacent","CD","3","4","N.jpg","R.jpg","1","1","1","",""
"","feedback","","html-keyboard-response","308","393525","0.0-1.0-420.0-0.0","0","0","62135","","null","","","null","46","","","","","","","","","","","","","","","",""
"","ITI","","html-keyboard-response","309","394528","0.0-1.0-423.0","0","0","62135","","null","","","null","46","","","","","","","","","","","","","","","NaN",""
"","S1","","html-keyboard-response","310","394782","0.0-1.0-425.0","0","0","62135","","null","","","null","47","","","","","","","","","","","","","","","",""
"","ISI","","html-keyboard-response","311","396785","0.0-1.0-426.0","0","0","62135","","null","","","null","47","NaN","","","","","","","","","","","","","","",""
"","S2","","html-keyboard-response","312","397039","0.0-1.0-427.0","0","0","62135","","null","","","null","47","","NaN","","","","","","","","","","","","","",""
"","response","","html-keyboard-response","313","397688","0.0-1.0-428.0-0.0","0","0","62135","","646","","","75","47","","","1","47","training","adjacent","FG","6","7","O.jpg","Q.jpg","1","1","1","",""
"","feedback","","html-keyboard-response","314","398693","0.0-1.0-429.0-0.0","0","0","62135","","null","","","null","47","","","","","","","","","","","","","","","",""
"","ITI","","html-keyboard-response","315","399696","0.0-1.0-432.0","0","0","62135","","null","","","null","47","","","","","","","","","","","","","","","NaN",""
"","block_over","","html-keyboard-response","316","404518","0.0-1.0-433.0-0.0","0","0","62135","","4819","","","32","47","","","","","","","","","","","","","","","",""
"","S1","","html-keyboard-response","317","404771","0.0-1.0-434.0","0","0","62135","","null","","","null","48","","","","","","","","","","","","","","","",""
"","ISI","","html-keyboard-response","318","406787","0.0-1.0-435.0","0","0","62135","","null","","","null","48","NaN","","","","","","","","","","","","","","",""
"","S2","","html-keyboard-response","319","407041","0.0-1.0-436.0","0","0","62135","","null","","","null","48","","NaN","","","","","","","","","","","","","",""
"","response","","html-keyboard-response","320","408064","0.0-1.0-437.0-0.0","0","0","62135","","1021","","","75","48","","","2","48","training","adjacent","BC","2","3","M.jpg","N.jpg","1","1","1","",""
"","feedback","","html-keyboard-response","321","409068","0.0-1.0-438.0-0.0","0","0","62135","","null","","","null","48","","","","","","","","","","","","","","","",""
"","ITI","","html-keyboard-response","322","410072","0.0-1.0-441.0","0","0","62135","","null","","","null","48","","","","","","","","","","","","","","","NaN",""
"","S1","","html-keyboard-response","323","410326","0.0-1.0-443.0","0","0","62135","","null","","","null","49","","","","","","","","","","","","","","","",""
"","ISI","","html-keyboard-response","324","412329","0.0-1.0-444.0","0","0","62135","","null","","","null","49","NaN","","","","","","","","","","","","","","",""
"","S2","","html-keyboard-response","325","412581","0.0-1.0-445.0","0","0","62135","","null","","","null","49","","NaN","","","","","","","","","","","","","",""
"","response","","html-keyboard-response","326","412822","0.0-1.0-446.0-0.0","0","0","62135","","239","","","75","49","","","2","49","training","adjacent","GF","7","6","Q.jpg","O.jpg","1","0","0","",""
"","feedback","","html-keyboard-response","327","413826","0.0-1.0-447.0-0.0","0","0","62135","","null","","","null","49","","","","","","","","","","","","","","","",""
"","time_out","","html-keyboard-response","328","415828","0.0-1.0-449.0-0.0","0","0","62135","","null","","","null","49","","","","","","","","","","","","","","","",""
"","ITI","","html-keyboard-response","329","416830","0.0-1.0-450.0","0","0","62135","","null","","","null","49","","","","","","","","","","","","","","","NaN",""
"","S1","","html-keyboard-response","330","417083","0.0-1.0-452.0","0","0","62135","","null","","","null","50","","","","","","","","","","","","","","","",""
"","ISI","","html-keyboard-response","331","419086","0.0-1.0-453.0","0","0","62135","","null","","","null","50","NaN","","","","","","","","","","","","","","",""
"","S2","","html-keyboard-response","332","419340","0.0-1.0-454.0","0","0","62135","","null","","","null","50","","NaN","","","","","","","","","","","","","",""
"","response","","html-keyboard-response","333","420021","0.0-1.0-455.0-0.0","0","0","62135","","677","","","75","50","","","2","50","training","adjacent","AB","1","2","P.jpg","M.jpg","1","1","1","",""
"","feedback","","html-keyboard-response","334","421026","0.0-1.0-456.0-0.0","0","0","62135","","null","","","null","50","","","","","","","","","","","","","","","",""
"","ITI","","html-keyboard-response","335","422028","0.0-1.0-459.0","0","0","62135","","null","","","null","50","","","","","","","","","","","","","","","NaN",""
"","S1","","html-keyboard-response","336","422282","0.0-1.0-461.0","0","0","62135","","null","","","null","51","","","","","","","","","","","","","","","",""
"","ISI","","html-keyboard-response","337","424285","0.0-1.0-462.0","0","0","62135","","null","","","null","51","NaN","","","","","","","","","","","","","","",""
"","S2","","html-keyboard-response","338","424540","0.0-1.0-463.0","0","0","62135","","null","","","null","51","","NaN","","","","","","","","","","","","","",""
"","response","","html-keyboard-response","339","425146","0.0-1.0-464.0-0.0","0","0","62135","","605","","","68","51","","","2","51","training","adjacent","CD","3","4","N.jpg","R.jpg","0","1","0","",""
"","feedback","","html-keyboard-response","340","426150","0.0-1.0-465.0-0.0","0","0","62135","","null","","","null","51","","","","","","","","","","","","","","","",""
"","time_out","","html-keyboard-response","341","428154","0.0-1.0-467.0-0.0","0","0","62135","","null","","","null","51","","","","","","","","","","","","","","","",""
"","ITI","","html-keyboard-response","342","429156","0.0-1.0-468.0","0","0","62135","","null","","","null","51","","","","","","","","","","","","","","","NaN",""
"","S1","","html-keyboard-response","343","429410","0.0-1.0-470.0","0","0","62135","","null","","","null","52","","","","","","","","","","","","","","","",""
"","ISI","","html-keyboard-response","344","431415","0.0-1.0-471.0","0","0","62135","","null","","","null","52","NaN","","","","","","","","","","","","","","",""
"","S2","","html-keyboard-response","345","431669","0.0-1.0-472.0","0","0","62135","","null","","","null","52","","NaN","","","","","","","","","","","","","",""
"","response","","html-keyboard-response","346","432174","0.0-1.0-473.0-0.0","0","0","62135","","502","","","75","52","","","2","52","training","adjacent","CD","3","4","N.jpg","R.jpg","1","1","1","",""
"","feedback","","html-keyboard-response","347","433177","0.0-1.0-474.0-0.0","0","0","62135","","null","","","null","52","","","","","","","","","","","","","","","",""
"","ITI","","html-keyboard-response","348","434181","0.0-1.0-477.0","0","0","62135","","null","","","null","52","","","","","","","","","","","","","","","NaN",""
"","S1","","html-keyboard-response","349","434435","0.0-1.0-479.0","0","0","62135","","null","","","null","53","","","","","","","","","","","","","","","",""
"","ISI","","html-keyboard-response","350","436438","0.0-1.0-480.0","0","0","62135","","null","","","null","53","NaN","","","","","","","","","","","","","","",""
"","S2","","html-keyboard-response","351","436690","0.0-1.0-481.0","0","0","62135","","null","","","null","53","","NaN","","","","","","","","","","","","","",""
"","response","","html-keyboard-response","352","438435","0.0-1.0-482.0-0.0","0","0","62135","","1745","","","68","53","","","2","53","training","adjacent","ED","5","4","L.jpg","R.jpg","0","0","1","",""
"","feedback","","html-keyboard-response","353","439439","0.0-1.0-483.0-0.0","0","0","62135","","null","","","null","53","","","","","","","","","","","","","","","",""
"","ITI","","html-keyboard-response","354","440444","0.0-1.0-486.0","0","0","62135","","null","","","null","53","","","","","","","","","","","","","","","NaN",""
"","S1","","html-keyboard-response","355","440697","0.0-1.0-488.0","0","0","62135","","null","","","null","54","","","","","","","","","","","","","","","",""
"","ISI","","html-keyboard-response","356","442701","0.0-1.0-489.0","0","0","62135","","null","","","null","54","NaN","","","","","","","","","","","","","","",""
"","S2","","html-keyboard-response","357","442955","0.0-1.0-490.0","0","0","62135","","null","","","null","54","","NaN","","","","","","","","","","","","","",""
"","response","","html-keyboard-response","358","443221","0.0-1.0-491.0-0.0","0","0","62135","","262","","","75","54","","","2","54","training","adjacent","BC","2","3","M.jpg","N.jpg","1","1","1","",""
"","feedback","","html-keyboard-response","359","444223","0.0-1.0-492.0-0.0","0","0","62135","","null","","","null","54","","","","","","","","","","","","","","","",""
"","ITI","","html-keyboard-response","360","445233","0.0-1.0-495.0","0","0","62135","","null","","","null","54","","","","","","","","","","","","","","","NaN",""
"","S1","","html-keyboard-response","361","445486","0.0-1.0-497.0","0","0","62135","","null","","","null","55","","","","","","","","","","","","","","","",""
"","ISI","","html-keyboard-response","362","447490","0.0-1.0-498.0","0","0","62135","","null","","","null","55","NaN","","","","","","","","","","","","","","",""
"","S2","","html-keyboard-response","363","447744","0.0-1.0-499.0","0","0","62135","","null","","","null","55","","NaN","","","","","","","","","","","","","",""
"","response","","html-keyboard-response","364","449083","0.0-1.0-500.0-0.0","0","0","62135","","1337","","","75","55","","","2","55","training","adjacent","FE","6","5","O.jpg","L.jpg","1","0","0","",""
"","feedback","","html-keyboard-response","365","450086","0.0-1.0-501.0-0.0","0","0","62135","","null","","","null","55","","","","","","","","","","","","","","","",""
"","time_out","","html-keyboard-response","366","452089","0.0-1.0-503.0-0.0","0","0","62135","","null","","","null","55","","","","","","","","","","","","","","","",""
"","ITI","","html-keyboard-response","367","453092","0.0-1.0-504.0","0","0","62135","","null","","","null","55","","","","","","","","","","","","","","","NaN",""
"","S1","","html-keyboard-response","368","453344","0.0-1.0-506.0","0","0","62135","","null","","","null","56","","","","","","","","","","","","","","","",""
"","ISI","","html-keyboard-response","369","455347","0.0-1.0-507.0","0","0","62135","","null","","","null","56","NaN","","","","","","","","","","","","","","",""
"","S2","","html-keyboard-response","370","455599","0.0-1.0-508.0","0","0","62135","","null","","","null","56","","NaN","","","","","","","","","","","","","",""
"","response","","html-keyboard-response","371","456293","0.0-1.0-509.0-0.0","0","0","62135","","693","","","75","56","","","2","56","training","adjacent","BA","2","1","M.jpg","P.jpg","1","0","0","",""
"","feedback","","html-keyboard-response","372","457295","0.0-1.0-510.0-0.0","0","0","62135","","null","","","null","56","","","","","","","","","","","","","","","",""
"","time_out","","html-keyboard-response","373","459297","0.0-1.0-512.0-0.0","0","0","62135","","null","","","null","56","","","","","","","","","","","","","","","",""
"","ITI","","html-keyboard-response","374","460300","0.0-1.0-513.0","0","0","62135","","null","","","null","56","","","","","","","","","","","","","","","NaN",""
"","S1","","html-keyboard-response","375","460554","0.0-1.0-515.0","0","0","62135","","null","","","null","57","","","","","","","","","","","","","","","",""
"","ISI","","html-keyboard-response","376","462556","0.0-1.0-516.0","0","0","62135","","null","","","null","57","NaN","","","","","","","","","","","","","","",""
"","S2","","html-keyboard-response","377","462809","0.0-1.0-517.0","0","0","62135","","null","","","null","57","","NaN","","","","","","","","","","","","","",""
"","response","","html-keyboard-response","378","464563","0.0-1.0-518.0-0.0","0","0","62135","","null","","","null","57","","","2","57","training","adjacent","ED","5","4","L.jpg","R.jpg","NaN","0","0","",""
"","too_slow_prompt","","html-keyboard-response","379","465567","0.0-1.0-520.0-0.0","1","0","62135","","null","","","null","","","","","","","","","","","","","","","","",""
"","time_out","","html-keyboard-response","380","467569","0.0-1.0-521.0-0.0","0","0","62135","","null","","","null","57","","","","","","","","","","","","","","","",""
"","ITI","","html-keyboard-response","381","468574","0.0-1.0-522.0","0","0","62135","","null","","","null","57","","","","","","","","","","","","","","","NaN",""
"","S1","","html-keyboard-response","382","468828","0.0-1.0-524.0","0","0","62135","","null","","","null","58","","","","","","","","","","","","","","","",""
"","ISI","","html-keyboard-response","383","470830","0.0-1.0-525.0","0","0","62135","","null","","","null","58","NaN","","","","","","","","","","","","","","",""
"","S2","","html-keyboard-response","384","471083","0.0-1.0-526.0","0","0","62135","","null","","","null","58","","NaN","","","","","","","","","","","","","",""
"","response","","html-keyboard-response","385","471648","0.0-1.0-527.0-0.0","0","0","62135","","562","","","75","58","","","2","58","training","adjacent","FE","6","5","O.jpg","L.jpg","1","0","0","",""
"","feedback","","html-keyboard-response","386","472652","0.0-1.0-528.0-0.0","0","0","62135","","null","","","null","58","","","","","","","","","","","","","","","",""
"","time_out","","html-keyboard-response","387","474656","0.0-1.0-530.0-0.0","0","0","62135","","null","","","null","58","","","","","","","","","","","","","","","",""
"","ITI","","html-keyboard-response","388","475661","0.0-1.0-531.0","0","0","62135","","null","","","null","58","","","","","","","","","","","","","","","NaN",""
"","S1","","html-keyboard-response","389","475916","0.0-1.0-533.0","0","0","62135","","null","","","null","59","","","","","","","","","","","","","","","",""
"","ISI","","html-keyboard-response","390","477918","0.0-1.0-534.0","0","0","62135","","null","","","null","59","NaN","","","","","","","","","","","","","","",""
"","S2","","html-keyboard-response","391","478170","0.0-1.0-535.0","0","0","62135","","null","","","null","59","","NaN","","","","","","","","","","","","","",""
"","response","","html-keyboard-response","392","479378","0.0-1.0-536.0-0.0","0","0","62135","","1207","","","68","59","","","2","59","training","adjacent","GF","7","6","Q.jpg","O.jpg","0","0","1","",""
"","feedback","","html-keyboard-response","393","480390","0.0-1.0-537.0-0.0","0","0","62135","","null","","","null","59","","","","","","","","","","","","","","","",""
"","ITI","","html-keyboard-response","394","481392","0.0-1.0-540.0","0","0","62135","","null","","","null","59","","","","","","","","","","","","","","","NaN",""
"","S1","","html-keyboard-response","395","481645","0.0-1.0-542.0","0","0","62135","","null","","","null","60","","","","","","","","","","","","","","","",""
"","ISI","","html-keyboard-response","396","483647","0.0-1.0-543.0","0","0","62135","","null","","","null","60","NaN","","","","","","","","","","","","","","",""
"","S2","","html-keyboard-response","397","483900","0.0-1.0-544.0","0","0","62135","","null","","","null","60","","NaN","","","","","","","","","","","","","",""
"","response","","html-keyboard-response","398","484490","0.0-1.0-545.0-0.0","0","0","62135","","588","","","75","60","","","2","60","training","adjacent","BA","2","1","M.jpg","P.jpg","1","0","0","",""
"","feedback","","html-keyboard-response","399","485492","0.0-1.0-546.0-0.0","0","0","62135","","null","","","null","60","","","","","","","","","","","","","","","",""
"","time_out","","html-keyboard-response","400","487496","0.0-1.0-548.0-0.0","0","0","62135","","null","","","null","60","","","","","","","","","","","","","","","",""
"","ITI","","html-keyboard-response","401","488498","0.0-1.0-549.0","0","0","62135","","null","","","null","60","","","","","","","","","","","","","","","NaN",""
"","S1","","html-keyboard-response","402","488751","0.0-1.0-551.0","0","0","62135","","null","","","null","61","","","","","","","","","","","","","","","",""
"","ISI","","html-keyboard-response","403","490754","0.0-1.0-552.0","0","0","62135","","null","","","null","61","NaN","","","","","","","","","","","","","","",""
"","S2","","html-keyboard-response","404","491007","0.0-1.0-553.0","0","0","62135","","null","","","null","61","","NaN","","","","","","","","","","","","","",""
"","response","","html-keyboard-response","405","492392","0.0-1.0-554.0-0.0","0","0","62135","","1383","","","75","61","","","2","61","training","adjacent","DC","4","3","R.jpg","N.jpg","1","0","0","",""
"","feedback","","html-keyboard-response","406","493397","0.0-1.0-555.0-0.0","0","0","62135","","null","","","null","61","","","","","","","","","","","","","","","",""
"","time_out","","html-keyboard-response","407","495401","0.0-1.0-557.0-0.0","0","0","62135","","null","","","null","61","","","","","","","","","","","","","","","",""
"","ITI","","html-keyboard-response","408","496405","0.0-1.0-558.0","0","0","62135","","null","","","null","61","","","","","","","","","","","","","","","NaN",""
"","S1","","html-keyboard-response","409","496660","0.0-1.0-560.0","0","0","62135","","null","","","null","62","","","","","","","","","","","","","","","",""
"","ISI","","html-keyboard-response","410","498670","0.0-1.0-561.0","0","0","62135","","null","","","null","62","NaN","","","","","","","","","","","","","","",""
"","S2","","html-keyboard-response","411","498924","0.0-1.0-562.0","0","0","62135","","null","","","null","62","","NaN","","","","","","","","","","","","","",""
"","response","","html-keyboard-response","412","499814","0.0-1.0-563.0-0.0","0","0","62135","","888","","","68","62","","","2","62","training","adjacent","GF","7","6","Q.jpg","O.jpg","0","0","1","",""
"","feedback","","html-keyboard-response","413","500818","0.0-1.0-564.0-0.0","0","0","62135","","null","","","null","62","","","","","","","","","","","","","","","",""
"","ITI","","html-keyboard-response","414","501821","0.0-1.0-567.0","0","0","62135","","null","","","null","62","","","","","","","","","","","","","","","NaN",""
"","S1","","html-keyboard-response","415","502075","0.0-1.0-569.0","0","0","62135","","null","","","null","63","","","","","","","","","","","","","","","",""
"","ISI","","html-keyboard-response","416","504079","0.0-1.0-570.0","0","0","62135","","null","","","null","63","NaN","","","","","","","","","","","","","","",""
"","S2","","html-keyboard-response","417","504342","0.0-1.0-571.0","0","0","62135","","null","","","null","63","","NaN","","","","","","","","","","","","","",""
"","response","","html-keyboard-response","418","505148","0.0-1.0-572.0-0.0","0","0","62135","","803","","","75","63","","","2","63","training","adjacent","ED","5","4","L.jpg","R.jpg","1","0","0","",""
"","feedback","","html-keyboard-response","419","506151","0.0-1.0-573.0-0.0","0","0","62135","","null","","","null","63","","","","","","","","","","","","","","","",""
"","time_out","","html-keyboard-response","420","508156","0.0-1.0-575.0-0.0","0","0","62135","","null","","","null","63","","","","","","","","","","","","","","","",""
"","ITI","","html-keyboard-response","421","509158","0.0-1.0-576.0","0","0","62135","","null","","","null","63","","","","","","","","","","","","","","","NaN",""
"","S1","","html-keyboard-response","422","509411","0.0-1.0-578.0","0","0","62135","","null","","","null","64","","","","","","","","","","","","","","","",""
"","ISI","","html-keyboard-response","423","511416","0.0-1.0-579.0","0","0","62135","","null","","","null","64","NaN","","","","","","","","","","","","","","",""
"","S2","","html-keyboard-response","424","511670","0.0-1.0-580.0","0","0","62135","","null","","","null","64","","NaN","","","","","","","","","","","","","",""
"","response","","html-keyboard-response","425","513002","0.0-1.0-581.0-0.0","0","0","62135","","1330","","","75","64","","","2","64","training","adjacent","EF","5","6","L.jpg","O.jpg","1","1","1","",""
"","feedback","","html-keyboard-response","426","514004","0.0-1.0-582.0-0.0","0","0","62135","","null","","","null","64","","","","","","","","","","","","","","","",""
"","ITI","","html-keyboard-response","427","515006","0.0-1.0-585.0","0","0","62135","","null","","","null","64","","","","","","","","","","","","","","","NaN",""
"","S1","","html-keyboard-response","428","515259","0.0-1.0-587.0","0","0","62135","","null","","","null","65","","","","","","","","","","","","","","","",""
"","ISI","","html-keyboard-response","429","517263","0.0-1.0-588.0","0","0","62135","","null","","","null","65","NaN","","","","","","","","","","","","","","",""
"","S2","","html-keyboard-response","430","517518","0.0-1.0-589.0","0","0","62135","","null","","","null","65","","NaN","","","","","","","","","","","","","",""
"","response","","html-keyboard-response","431","518400","0.0-1.0-590.0-0.0","0","0","62135","","879","","","68","65","","","2","65","training","adjacent","DC","4","3","R.jpg","N.jpg","0","0","1","",""
"","feedback","","html-keyboard-response","432","519405","0.0-1.0-591.0-0.0","0","0","62135","","null","","","null","65","","","","","","","","","","","","","","","",""
"","ITI","","html-keyboard-response","433","520407","0.0-1.0-594.0","0","0","62135","","null","","","null","65","","","","","","","","","","","","","","","NaN",""
"","S1","","html-keyboard-response","434","520661","0.0-1.0-596.0","0","0","62135","","null","","","null","66","","","","","","","","","","","","","","","",""
"","ISI","","html-keyboard-response","435","522664","0.0-1.0-597.0","0","0","62135","","null","","","null","66","NaN","","","","","","","","","","","","","","",""
"","S2","","html-keyboard-response","436","522917","0.0-1.0-598.0","0","0","62135","","null","","","null","66","","NaN","","","","","","","","","","","","","",""
"","response","","html-keyboard-response","437","523991","0.0-1.0-599.0-0.0","0","0","62135","","1073","","","68","66","","","2","66","training","adjacent","EF","5","6","L.jpg","O.jpg","0","1","0","",""
"","feedback","","html-keyboard-response","438","524995","0.0-1.0-600.0-0.0","0","0","62135","","null","","","null","66","","","","","","","","","","","","","","","",""
"","time_out","","html-keyboard-response","439","526998","0.0-1.0-602.0-0.0","0","0","62135","","null","","","null","66","","","","","","","","","","","","","","","",""
"","ITI","","html-keyboard-response","440","528000","0.0-1.0-603.0","0","0","62135","","null","","","null","66","","","","","","","","","","","","","","","NaN",""
"","S1","","html-keyboard-response","441","528252","0.0-1.0-605.0","0","0","62135","","null","","","null","67","","","","","","","","","","","","","","","",""
"","ISI","","html-keyboard-response","442","530254","0.0-1.0-606.0","0","0","62135","","null","","","null","67","NaN","","","","","","","","","","","","","","",""
"","S2","","html-keyboard-response","443","530507","0.0-1.0-607.0","0","0","62135","","null","","","null","67","","NaN","","","","","","","","","","","","","",""
"","response","","html-keyboard-response","444","531513","0.0-1.0-608.0-0.0","0","0","62135","","1004","","","68","67","","","2","67","training","adjacent","DE","4","5","R.jpg","L.jpg","0","1","0","",""
"","feedback","","html-keyboard-response","445","532517","0.0-1.0-609.0-0.0","0","0","62135","","null","","","null","67","","","","","","","","","","","","","","","",""
"","time_out","","html-keyboard-response","446","534521","0.0-1.0-611.0-0.0","0","0","62135","","null","","","null","67","","","","","","","","","","","","","","","",""
"","ITI","","html-keyboard-response","447","535525","0.0-1.0-612.0","0","0","62135","","null","","","null","67","","","","","","","","","","","","","","","NaN",""
"","S1","","html-keyboard-response","448","535780","0.0-1.0-614.0","0","0","62135","","null","","","null","68","","","","","","","","","","","","","","","",""
"","ISI","","html-keyboard-response","449","537784","0.0-1.0-615.0","0","0","62135","","null","","","null","68","NaN","","","","","","","","","","","","","","",""
"","S2","","html-keyboard-response","450","538037","0.0-1.0-616.0","0","0","62135","","null","","","null","68","","NaN","","","","","","","","","","","","","",""
"","response","","html-keyboard-response","451","539201","0.0-1.0-617.0-0.0","0","0","62135","","1162","","","75","68","","","2","68","training","adjacent","FG","6","7","O.jpg","Q.jpg","1","1","1","",""
"","feedback","","html-keyboard-response","452","540206","0.0-1.0-618.0-0.0","0","0","62135","","null","","","null","68","","","","","","","","","","","","","","","",""
"","ITI","","html-keyboard-response","453","541210","0.0-1.0-621.0","0","0","62135","","null","","","null","68","","","","","","","","","","","","","","","NaN",""
"","S1","","html-keyboard-response","454","541464","0.0-1.0-623.0","0","0","62135","","null","","","null","69","","","","","","","","","","","","","","","",""
"","ISI","","html-keyboard-response","455","543467","0.0-1.0-624.0","0","0","62135","","null","","","null","69","NaN","","","","","","","","","","","","","","",""
"","S2","","html-keyboard-response","456","543722","0.0-1.0-625.0","0","0","62135","","null","","","null","69","","NaN","","","","","","","","","","","","","",""
"","response","","html-keyboard-response","457","545004","0.0-1.0-626.0-0.0","0","0","62135","","1280","","","75","69","","","2","69","training","adjacent","EF","5","6","L.jpg","O.jpg","1","1","1","",""
"","feedback","","html-keyboard-response","458","546008","0.0-1.0-627.0-0.0","0","0","62135","","null","","","null","69","","","","","","","","","","","","","","","",""
"","ITI","","html-keyboard-response","459","547012","0.0-1.0-630.0","0","0","62135","","null","","","null","69","","","","","","","","","","","","","","","NaN",""
"","S1","","html-keyboard-response","460","547265","0.0-1.0-632.0","0","0","62135","","null","","","null","70","","","","","","","","","","","","","","","",""
"","ISI","","html-keyboard-response","461","549267","0.0-1.0-633.0","0","0","62135","","null","","","null","70","NaN","","","","","","","","","","","","","","",""
"","S2","","html-keyboard-response","462","549521","0.0-1.0-634.0","0","0","62135","","null","","","null","70","","NaN","","","","","","","","","","","","","",""
"","response","","html-keyboard-response","463","550749","0.0-1.0-635.0-0.0","0","0","62135","","1225","","","75","70","","","2","70","training","adjacent","FG","6","7","O.jpg","Q.jpg","1","1","1","",""
"","feedback","","html-keyboard-response","464","551754","0.0-1.0-636.0-0.0","0","0","62135","","null","","","null","70","","","","","","","","","","","","","","","",""
"","ITI","","html-keyboard-response","465","552757","0.0-1.0-639.0","0","0","62135","","null","","","null","70","","","","","","","","","","","","","","","NaN",""
"","S1","","html-keyboard-response","466","553011","0.0-1.0-641.0","0","0","62135","","null","","","null","71","","","","","","","","","","","","","","","",""
"","ISI","","html-keyboard-response","467","555014","0.0-1.0-642.0","0","0","62135","","null","","","null","71","NaN","","","","","","","","","","","","","","",""
"","S2","","html-keyboard-response","468","555269","0.0-1.0-643.0","0","0","62135","","null","","","null","71","","NaN","","","","","","","","","","","","","",""
"","response","","html-keyboard-response","469","555403","0.0-1.0-644.0-0.0","0","0","62135","","133","","","75","71","","","2","71","training","adjacent","GF","7","6","Q.jpg","O.jpg","1","0","0","",""
"","feedback","","html-keyboard-response","470","556406","0.0-1.0-645.0-0.0","0","0","62135","","null","","","null","71","","","","","","","","","","","","","","","",""
"","time_out","","html-keyboard-response","471","558409","0.0-1.0-647.0-0.0","0","0","62135","","null","","","null","71","","","","","","","","","","","","","","","",""
"","ITI","","html-keyboard-response","472","559412","0.0-1.0-648.0","0","0","62135","","null","","","null","71","","","","","","","","","","","","","","","NaN",""
"","S1","","html-keyboard-response","473","559665","0.0-1.0-650.0","0","0","62135","","null","","","null","72","","","","","","","","","","","","","","","",""
"","ISI","","html-keyboard-response","474","561667","0.0-1.0-651.0","0","0","62135","","null","","","null","72","NaN","","","","","","","","","","","","","","",""
"","S2","","html-keyboard-response","475","561923","0.0-1.0-652.0","0","0","62135","","null","","","null","72","","NaN","","","","","","","","","","","","","",""
"","response","","html-keyboard-response","476","562883","0.0-1.0-653.0-0.0","0","0","62135","","959","","","75","72","","","2","72","training","adjacent","DE","4","5","R.jpg","L.jpg","1","1","1","",""
"","feedback","","html-keyboard-response","477","563887","0.0-1.0-654.0-0.0","0","0","62135","","null","","","null","72","","","","","","","","","","","","","","","",""
"","ITI","","html-keyboard-response","478","564891","0.0-1.0-657.0","0","0","62135","","null","","","null","72","","","","","","","","","","","","","","","NaN",""
"","S1","","html-keyboard-response","479","565145","0.0-1.0-659.0","0","0","62135","","null","","","null","73","","","","","","","","","","","","","","","",""
"","ISI","","html-keyboard-response","480","567148","0.0-1.0-660.0","0","0","62135","","null","","","null","73","NaN","","","","","","","","","","","","","","",""
"","S2","","html-keyboard-response","481","567402","0.0-1.0-661.0","0","0","62135","","null","","","null","73","","NaN","","","","","","","","","","","","","",""
"","response","","html-keyboard-response","482","568212","0.0-1.0-662.0-0.0","0","0","62135","","807","","","75","73","","","2","73","training","adjacent","DE","4","5","R.jpg","L.jpg","1","1","1","",""
"","feedback","","html-keyboard-response","483","569215","0.0-1.0-663.0-0.0","0","0","62135","","null","","","null","73","","","","","","","","","","","","","","","",""
"","ITI","","html-keyboard-response","484","570220","0.0-1.0-666.0","0","0","62135","","null","","","null","73","","","","","","","","","","","","","","","NaN",""
"","S1","","html-keyboard-response","485","570477","0.0-1.0-668.0","0","0","62135","","null","","","null","74","","","","","","","","","","","","","","","",""
"","ISI","","html-keyboard-response","486","572480","0.0-1.0-669.0","0","0","62135","","null","","","null","74","NaN","","","","","","","","","","","","","","",""
"","S2","","html-keyboard-response","487","572733","0.0-1.0-670.0","0","0","62135","","null","","","null","74","","NaN","","","","","","","","","","","","","",""
"","response","","html-keyboard-response","488","573814","0.0-1.0-671.0-0.0","0","0","62135","","1079","","","75","74","","","2","74","training","adjacent","CD","3","4","N.jpg","R.jpg","1","1","1","",""
"","feedback","","html-keyboard-response","489","574817","0.0-1.0-672.0-0.0","0","0","62135","","null","","","null","74","","","","","","","","","","","","","","","",""
"","ITI","","html-keyboard-response","490","575819","0.0-1.0-675.0","0","0","62135","","null","","","null","74","","","","","","","","","","","","","","","NaN",""
"","S1","","html-keyboard-response","491","576073","0.0-1.0-677.0","0","0","62135","","null","","","null","75","","","","","","","","","","","","","","","",""
"","ISI","","html-keyboard-response","492","578075","0.0-1.0-678.0","0","0","62135","","null","","","null","75","NaN","","","","","","","","","","","","","","",""
"","S2","","html-keyboard-response","493","578327","0.0-1.0-679.0","0","0","62135","","null","","","null","75","","NaN","","","","","","","","","","","","","",""
"","response","","html-keyboard-response","494","579564","0.0-1.0-680.0-0.0","0","0","62135","","1235","","","68","75","","","2","75","training","adjacent","CB","3","2","N.jpg","M.jpg","0","0","1","",""
"","feedback","","html-keyboard-response","495","580568","0.0-1.0-681.0-0.0","0","0","62135","","null","","","null","75","","","","","","","","","","","","","","","",""
"","ITI","","html-keyboard-response","496","581573","0.0-1.0-684.0","0","0","62135","","null","","","null","75","","","","","","","","","","","","","","","NaN",""
"","S1","","html-keyboard-response","497","581827","0.0-1.0-686.0","0","0","62135","","null","","","null","76","","","","","","","","","","","","","","","",""
"","ISI","","html-keyboard-response","498","583831","0.0-1.0-687.0","0","0","62135","","null","","","null","76","NaN","","","","","","","","","","","","","","",""
"","S2","","html-keyboard-response","499","584085","0.0-1.0-688.0","0","0","62135","","null","","","null","76","","NaN","","","","","","","","","","","","","",""
"","response","","html-keyboard-response","500","585436","0.0-1.0-689.0-0.0","0","0","62135","","1349","","","68","76","","","2","76","training","adjacent","BA","2","1","M.jpg","P.jpg","0","0","1","",""
"","feedback","","html-keyboard-response","501","586440","0.0-1.0-690.0-0.0","0","0","62135","","null","","","null","76","","","","","","","","","","","","","","","",""
"","ITI","","html-keyboard-response","502","587444","0.0-1.0-693.0","0","0","62135","","null","","","null","76","","","","","","","","","","","","","","","NaN",""
"","S1","","html-keyboard-response","503","587698","0.0-1.0-695.0","0","0","62135","","null","","","null","77","","","","","","","","","","","","","","","",""
"","ISI","","html-keyboard-response","504","589701","0.0-1.0-696.0","0","0","62135","","null","","","null","77","NaN","","","","","","","","","","","","","","",""
"","S2","","html-keyboard-response","505","589955","0.0-1.0-697.0","0","0","62135","","null","","","null","77","","NaN","","","","","","","","","","","","","",""
"","response","","html-keyboard-response","506","590588","0.0-1.0-698.0-0.0","0","0","62135","","629","","","75","77","","","2","77","training","adjacent","AB","1","2","P.jpg","M.jpg","1","1","1","",""
"","feedback","","html-keyboard-response","507","591593","0.0-1.0-699.0-0.0","0","0","62135","","null","","","null","77","","","","","","","","","","","","","","","",""
"","ITI","","html-keyboard-response","508","592596","0.0-1.0-702.0","0","0","62135","","null","","","null","77","","","","","","","","","","","","","","","NaN",""
"","S1","","html-keyboard-response","509","592849","0.0-1.0-704.0","0","0","62135","","null","","","null","78","","","","","","","","","","","","","","","",""
"","ISI","","html-keyboard-response","510","594851","0.0-1.0-705.0","0","0","62135","","null","","","null","78","NaN","","","","","","","","","","","","","","",""
"","S2","","html-keyboard-response","511","595111","0.0-1.0-706.0","0","0","62135","","null","","","null","78","","NaN","","","","","","","","","","","","","",""
"","response","","html-keyboard-response","512","596125","0.0-1.0-707.0-0.0","0","0","62135","","1011","","","75","78","","","2","78","training","adjacent","FG","6","7","O.jpg","Q.jpg","1","1","1","",""
"","feedback","","html-keyboard-response","513","597127","0.0-1.0-708.0-0.0","0","0","62135","","null","","","null","78","","","","","","","","","","","","","","","",""
"","ITI","","html-keyboard-response","514","598131","0.0-1.0-711.0","0","0","62135","","null","","","null","78","","","","","","","","","","","","","","","NaN",""
"","S1","","html-keyboard-response","515","598385","0.0-1.0-713.0","0","0","62135","","null","","","null","79","","","","","","","","","","","","","","","",""
"","ISI","","html-keyboard-response","516","600389","0.0-1.0-714.0","0","0","62135","","null","","","null","79","NaN","","","","","","","","","","","","","","",""
"","S2","","html-keyboard-response","517","600643","0.0-1.0-715.0","0","0","62135","","null","","","null","79","","NaN","","","","","","","","","","","","","",""
"","response","","html-keyboard-response","518","601560","0.0-1.0-716.0-0.0","0","0","62135","","915","","","68","79","","","2","79","training","adjacent","BC","2","3","M.jpg","N.jpg","0","1","0","",""
"","feedback","","html-keyboard-response","519","602565","0.0-1.0-717.0-0.0","0","0","62135","","null","","","null","79","","","","","","","","","","","","","","","",""
"","time_out","","html-keyboard-response","520","604568","0.0-1.0-719.0-0.0","0","0","62135","","null","","","null","79","","","","","","","","","","","","","","","",""
"","ITI","","html-keyboard-response","521","605570","0.0-1.0-720.0","0","0","62135","","null","","","null","79","","","","","","","","","","","","","","","NaN",""
"","S1","","html-keyboard-response","522","605823","0.0-1.0-722.0","0","0","62135","","null","","","null","80","","","","","","","","","","","","","","","",""
"","ISI","","html-keyboard-response","523","607826","0.0-1.0-723.0","0","0","62135","","null","","","null","80","NaN","","","","","","","","","","","","","","",""
"","S2","","html-keyboard-response","524","608080","0.0-1.0-724.0","0","0","62135","","null","","","null","80","","NaN","","","","","","","","","","","","","",""
"","response","","html-keyboard-response","525","608928","0.0-1.0-725.0-0.0","0","0","62135","","846","","","75","80","","","2","80","training","adjacent","EF","5","6","L.jpg","O.jpg","1","1","1","",""
"","feedback","","html-keyboard-response","526","609932","0.0-1.0-726.0-0.0","0","0","62135","","null","","","null","80","","","","","","","","","","","","","","","",""
"","ITI","","html-keyboard-response","527","610942","0.0-1.0-729.0","0","0","62135","","null","","","null","80","","","","","","","","","","","","","","","NaN",""
"","S1","","html-keyboard-response","528","611195","0.0-1.0-731.0","0","0","62135","","null","","","null","81","","","","","","","","","","","","","","","",""
"","ISI","","html-keyboard-response","529","613199","0.0-1.0-732.0","0","0","62135","","null","","","null","81","NaN","","","","","","","","","","","","","","",""
"","S2","","html-keyboard-response","530","613453","0.0-1.0-733.0","0","0","62135","","null","","","null","81","","NaN","","","","","","","","","","","","","",""
"","response","","html-keyboard-response","531","614408","0.0-1.0-734.0-0.0","0","0","62135","","953","","","75","81","","","2","81","training","adjacent","FG","6","7","O.jpg","Q.jpg","1","1","1","",""
"","feedback","","html-keyboard-response","532","615412","0.0-1.0-735.0-0.0","0","0","62135","","null","","","null","81","","","","","","","","","","","","","","","",""
"","ITI","","html-keyboard-response","533","616416","0.0-1.0-738.0","0","0","62135","","null","","","null","81","","","","","","","","","","","","","","","NaN",""
"","S1","","html-keyboard-response","534","616671","0.0-1.0-740.0","0","0","62135","","null","","","null","82","","","","","","","","","","","","","","","",""
"","ISI","","html-keyboard-response","535","618675","0.0-1.0-741.0","0","0","62135","","null","","","null","82","NaN","","","","","","","","","","","","","","",""
"","S2","","html-keyboard-response","536","618930","0.0-1.0-742.0","0","0","62135","","null","","","null","82","","NaN","","","","","","","","","","","","","",""
"","response","","html-keyboard-response","537","619697","0.0-1.0-743.0-0.0","0","0","62135","","764","","","75","82","","","2","82","training","adjacent","FE","6","5","O.jpg","L.jpg","1","0","0","",""
"","feedback","","html-keyboard-response","538","620701","0.0-1.0-744.0-0.0","0","0","62135","","null","","","null","82","","","","","","","","","","","","","","","",""
"","time_out","","html-keyboard-response","539","622705","0.0-1.0-746.0-0.0","0","0","62135","","null","","","null","82","","","","","","","","","","","","","","","",""
"","ITI","","html-keyboard-response","540","623709","0.0-1.0-747.0","0","0","62135","","null","","","null","82","","","","","","","","","","","","","","","NaN",""
"","S1","","html-keyboard-response","541","623963","0.0-1.0-749.0","0","0","62135","","null","","","null","83","","","","","","","","","","","","","","","",""
"","ISI","","html-keyboard-response","542","625966","0.0-1.0-750.0","0","0","62135","","null","","","null","83","NaN","","","","","","","","","","","","","","",""
"","S2","","html-keyboard-response","543","626221","0.0-1.0-751.0","0","0","62135","","null","","","null","83","","NaN","","","","","","","","","","","","","",""
"","response","","html-keyboard-response","544","626996","0.0-1.0-752.0-0.0","0","0","62135","","772","","","68","83","","","2","83","training","adjacent","DC","4","3","R.jpg","N.jpg","0","0","1","",""
"","feedback","","html-keyboard-response","545","627999","0.0-1.0-753.0-0.0","0","0","62135","","null","","","null","83","","","","","","","","","","","","","","","",""
"","ITI","","html-keyboard-response","546","629004","0.0-1.0-756.0","0","0","62135","","null","","","null","83","","","","","","","","","","","","","","","NaN",""
"","S1","","html-keyboard-response","547","629259","0.0-1.0-758.0","0","0","62135","","null","","","null","84","","","","","","","","","","","","","","","",""
"","ISI","","html-keyboard-response","548","631262","0.0-1.0-759.0","0","0","62135","","null","","","null","84","NaN","","","","","","","","","","","","","","",""
"","S2","","html-keyboard-response","549","631515","0.0-1.0-760.0","0","0","62135","","null","","","null","84","","NaN","","","","","","","","","","","","","",""
"","response","","html-keyboard-response","550","632109","0.0-1.0-761.0-0.0","0","0","62135","","592","","","75","84","","","2","84","training","adjacent","AB","1","2","P.jpg","M.jpg","1","1","1","",""
"","feedback","","html-keyboard-response","551","633114","0.0-1.0-762.0-0.0","0","0","62135","","null","","","null","84","","","","","","","","","","","","","","","",""
"","ITI","","html-keyboard-response","552","634119","0.0-1.0-765.0","0","0","62135","","null","","","null","84","","","","","","","","","","","","","","","NaN",""
"","S1","","html-keyboard-response","553","634371","0.0-1.0-767.0","0","0","62135","","null","","","null","85","","","","","","","","","","","","","","","",""
"","ISI","","html-keyboard-response","554","636373","0.0-1.0-768.0","0","0","62135","","null","","","null","85","NaN","","","","","","","","","","","","","","",""
"","S2","","html-keyboard-response","555","636625","0.0-1.0-769.0","0","0","62135","","null","","","null","85","","NaN","","","","","","","","","","","","","",""
"","response","","html-keyboard-response","556","637451","0.0-1.0-770.0-0.0","0","0","62135","","824","","","68","85","","","2","85","training","adjacent","CB","3","2","N.jpg","M.jpg","0","0","1","",""
"","feedback","","html-keyboard-response","557","638454","0.0-1.0-771.0-0.0","0","0","62135","","null","","","null","85","","","","","","","","","","","","","","","",""
"","ITI","","html-keyboard-response","558","639457","0.0-1.0-774.0","0","0","62135","","null","","","null","85","","","","","","","","","","","","","","","NaN",""
"","S1","","html-keyboard-response","559","639709","0.0-1.0-776.0","0","0","62135","","null","","","null","86","","","","","","","","","","","","","","","",""
"","ISI","","html-keyboard-response","560","641711","0.0-1.0-777.0","0","0","62135","","null","","","null","86","NaN","","","","","","","","","","","","","","",""
"","S2","","html-keyboard-response","561","641965","0.0-1.0-778.0","0","0","62135","","null","","","null","86","","NaN","","","","","","","","","","","","","",""
"","response","","html-keyboard-response","562","642777","0.0-1.0-779.0-0.0","0","0","62135","","808","","","68","86","","","2","86","training","adjacent","DC","4","3","R.jpg","N.jpg","0","0","1","",""
"","feedback","","html-keyboard-response","563","643781","0.0-1.0-780.0-0.0","0","0","62135","","null","","","null","86","","","","","","","","","","","","","","","",""
"","ITI","","html-keyboard-response","564","644785","0.0-1.0-783.0","0","0","62135","","null","","","null","86","","","","","","","","","","","","","","","NaN",""
"","S1","","html-keyboard-response","565","645039","0.0-1.0-785.0","0","0","62135","","null","","","null","87","","","","","","","","","","","","","","","",""
"","ISI","","html-keyboard-response","566","647042","0.0-1.0-786.0","0","0","62135","","null","","","null","87","NaN","","","","","","","","","","","","","","",""
"","S2","","html-keyboard-response","567","647295","0.0-1.0-787.0","0","0","62135","","null","","","null","87","","NaN","","","","","","","","","","","","","",""
"","response","","html-keyboard-response","568","647935","0.0-1.0-788.0-0.0","0","0","62135","","638","","","75","87","","","2","87","training","adjacent","BC","2","3","M.jpg","N.jpg","1","1","1","",""
"","feedback","","html-keyboard-response","569","648939","0.0-1.0-789.0-0.0","0","0","62135","","null","","","null","87","","","","","","","","","","","","","","","",""
"","ITI","","html-keyboard-response","570","649943","0.0-1.0-792.0","0","0","62135","","null","","","null","87","","","","","","","","","","","","","","","NaN",""
"","S1","","html-keyboard-response","571","650198","0.0-1.0-794.0","0","0","62135","","null","","","null","88","","","","","","","","","","","","","","","",""
"","ISI","","html-keyboard-response","572","652202","0.0-1.0-795.0","0","0","62135","","null","","","null","88","NaN","","","","","","","","","","","","","","",""
"","S2","","html-keyboard-response","573","652456","0.0-1.0-796.0","0","0","62135","","null","","","null","88","","NaN","","","","","","","","","","","","","",""
"","response","","html-keyboard-response","574","653743","0.0-1.0-797.0-0.0","0","0","62135","","1284","","","75","88","","","2","88","training","adjacent","DE","4","5","R.jpg","L.jpg","1","1","1","",""
"","feedback","","html-keyboard-response","575","654745","0.0-1.0-798.0-0.0","0","0","62135","","null","","","null","88","","","","","","","","","","","","","","","",""
"","ITI","","html-keyboard-response","576","655747","0.0-1.0-801.0","0","0","62135","","null","","","null","88","","","","","","","","","","","","","","","NaN",""
"","S1","","html-keyboard-response","577","656001","0.0-1.0-803.0","0","0","62135","","null","","","null","89","","","","","","","","","","","","","","","",""
"","ISI","","html-keyboard-response","578","658004","0.0-1.0-804.0","0","0","62135","","null","","","null","89","NaN","","","","","","","","","","","","","","",""
"","S2","","html-keyboard-response","579","658256","0.0-1.0-805.0","0","0","62135","","null","","","null","89","","NaN","","","","","","","","","","","","","",""
"","response","","html-keyboard-response","580","659417","0.0-1.0-806.0-0.0","0","0","62135","","1159","","","75","89","","","2","89","training","adjacent","FE","6","5","O.jpg","L.jpg","1","0","0","",""
