"success","ttype","start_time","trial_type","trial_index","time_elapsed","internal_node_id","warning","missed_checkup","PID","view_history","rt","responses","repeat_instructions","key_press","index","keypress_isi","keypress_S2","block","trial_num","phase","group_type","pair_type","S1_stim","S2_stim","S1_img","S2_img","S1_chosen","S1_higher","accuracy","keypress_iti","total_bonus_tally"
"true","full_screen","d04062023hr1947","fullscreen","0","12222","0.0-0.0","0","0","72421","","","","","","","","","","","","","","","","","","","","","",""
"","instructions","","instructions","1","56239","0.0-1.0-0.0-0.0","0","0","72421","[{""page_index"":0,""viewing_time"":6183},{""page_index"":1,""viewing_time"":23721},{""page_index"":2,""viewing_time"":11704},{""page_index"":3,""viewing_time"":2407}]","44015","","","","","","","","","","","","","","","","","","","",""
"","comprehension_check","","survey-multi-choice","2","78154","0.0-1.0-0.0-1.0","0","0","72421","","21910","{""Q0"":""True"",""Q1"":""D"",""Q2"":""Once the second image appears and while the screen 'MAKE A CHOICE' is shown"",""Q3"":""Green mark"",""Q4"":""either D or K""}","1","","","","","","","","","","","","","","","","","",""
"","missed_instruction_checkup","","html-keyboard-response","3","80369","0.0-1.0-0.0-2.0-0.0","0","1","72421","","2212","","","32","","","","","","","","","","","","","","","","",""
"","instructions","","instructions","4","106690","0.0-1.0-0.1-0.1","0","0","72421","[{""page_index"":0,""viewing_time"":5205},{""page_index"":1,""viewing_time"":18295},{""page_index"":2,""viewing_time"":1858},{""page_index"":3,""viewing_time"":959}]","26318","","","","","","","","","","","","","","","","","","","",""
"","comprehension_check","","survey-multi-choice","5","115529","0.0-1.0-0.1-1.1","0","0","72421","","8835","{""Q0"":""True"",""Q1"":""K"",""Q2"":""Once the second image appears and while the screen 'MAKE A CHOICE' is shown"",""Q3"":""Green mark"",""Q4"":""either D or K""}","0","","","","","","","","","","","","","","","","","",""
"","start_exp","","html-keyboard-response","6","118113","0.0-1.0-1.0","0","0","72421","","2582","","","32","","","","","","","","","","","","","","","","",""
"","S1","","html-keyboard-response","7","118276","0.0-1.0-2.0","0","0","72421","","null","","","null","0","","","","","","","","","","","","","","","",""
"","ISI","","html-keyboard-response","8","120303","0.0-1.0-3.0","0","0","72421","","null","","","null","0","NaN","","","","","","","","","","","","","","",""
"","S2","","html-keyboard-response","9","120476","0.0-1.0-4.0","0","0","72421","","null","","","null","0","","NaN","","","","","","","","","","","","","",""
"","response","","html-keyboard-response","10","121788","0.0-1.0-5.0-0.0","0","0","72421","","1311","","","75","0","","","1","0","training","adjacent","CB","3","2","L.jpg","Q.jpg","1","0","0","",""
"","feedback","","html-keyboard-response","11","122804","0.0-1.0-6.0-0.0","0","0","72421","","null","","","null","0","","","","","","","","","","","","","","","",""
"","time_out","","html-keyboard-response","12","124817","0.0-1.0-8.0-0.0","0","0","72421","","null","","","null","0","","","","","","","","","","","","","","","",""
"","ITI","","html-keyboard-response","13","125823","0.0-1.0-9.0","0","0","72421","","null","","","null","0","","","","","","","","","","","","","","","NaN",""
"","S1","","html-keyboard-response","14","125981","0.0-1.0-11.0","0","0","72421","","null","","","null","1","","","","","","","","","","","","","","","",""
"","ISI","","html-keyboard-response","15","128011","0.0-1.0-12.0","0","0","72421","","null","","","null","1","NaN","","","","","","","","","","","","","","",""
"","S2","","html-keyboard-response","16","128199","0.0-1.0-13.0","0","0","72421","","null","","","null","1","","NaN","","","","","","","","","","","","","",""
"","response","","html-keyboard-response","17","128435","0.0-1.0-14.0-0.0","0","0","72421","","235","","","68","1","","","1","1","training","adjacent","FG","6","7","O.jpg","M.jpg","0","1","0","",""
"","feedback","","html-keyboard-response","18","129444","0.0-1.0-15.0-0.0","0","0","72421","","null","","","null","1","","","","","","","","","","","","","","","",""
"","time_out","","html-keyboard-response","19","131462","0.0-1.0-17.0-0.0","0","0","72421","","null","","","null","1","","","","","","","","","","","","","","","",""
"","ITI","","html-keyboard-response","20","132470","0.0-1.0-18.0","0","0","72421","","null","","","null","1","","","","","","","","","","","","","","","NaN",""
"","S1","","html-keyboard-response","21","132628","0.0-1.0-20.0","0","0","72421","","null","","","null","2","","","","","","","","","","","","","","","",""
"","ISI","","html-keyboard-response","22","134644","0.0-1.0-21.0","0","0","72421","","null","","","null","2","NaN","","","","","","","","","","","","","","",""
"","S2","","html-keyboard-response","23","134817","0.0-1.0-22.0","0","0","72421","","null","","","null","2","","NaN","","","","","","","","","","","","","",""
"","response","","html-keyboard-response","24","135272","0.0-1.0-23.0-0.0","0","0","72421","","453","","","75","2","","","1","2","training","adjacent","CB","3","2","L.jpg","Q.jpg","1","0","0","",""
"","feedback","","html-keyboard-response","25","136280","0.0-1.0-24.0-0.0","0","0","72421","","null","","","null","2","","","","","","","","","","","","","","","",""
"","time_out","","html-keyboard-response","26","138294","0.0-1.0-26.0-0.0","0","0","72421","","null","","","null","2","","","","","","","","","","","","","","","",""
"","ITI","","html-keyboard-response","27","139301","0.0-1.0-27.0","0","0","72421","","null","","","null","2","","","","","","","","","","","","","","","NaN",""
"","S1","","html-keyboard-response","28","139457","0.0-1.0-29.0","0","0","72421","","null","","","null","3","","","","","","","","","","","","","","","",""
"","ISI","","html-keyboard-response","29","141488","0.0-1.0-30.0","0","0","72421","","null","","","null","3","NaN","","","","","","","","","","","","","","",""
"","S2","","html-keyboard-response","30","141660","0.0-1.0-31.0","0","0","72421","","null","","","null","3","","NaN","","","","","","","","","","","","","",""
"","response","","html-keyboard-response","31","142406","0.0-1.0-32.0-0.0","0","0","72421","","745","","","68","3","","","1","3","training","adjacent","BC","2","3","Q.jpg","L.jpg","0","1","0","",""
"","feedback","","html-keyboard-response","32","143423","0.0-1.0-33.0-0.0","0","0","72421","","null","","","null","3","","","","","","","","","","","","","","","",""
"","time_out","","html-keyboard-response","33","145440","0.0-1.0-35.0-0.0","0","0","72421","","null","","","null","3","","","","","","","","","","","","","","","",""
"","ITI","","html-keyboard-response","34","146447","0.0-1.0-36.0","0","0","72421","","null","","","null","3","","","","","","","","","","","","","","","NaN",""
"","S1","","html-keyboard-response","35","146606","0.0-1.0-38.0","0","0","72421","","null","","","null","4","","","","","","","","","","","","","","","",""
"","ISI","","html-keyboard-response","36","148618","0.0-1.0-39.0","0","0","72421","","null","","","null","4","NaN","","","","","","","","","","","","","","",""
"","S2","","html-keyboard-response","37","148807","0.0-1.0-40.0","0","0","72421","","null","","","null","4","","NaN","","","","","","","","","","","","","",""
"","response","","html-keyboard-response","38","149288","0.0-1.0-41.0-0.0","0","0","72421","","479","","","75","4","","","1","4","training","adjacent","EF","5","6","R.jpg","O.jpg","1","1","1","",""
"","feedback","","html-keyboard-response","39","150300","0.0-1.0-42.0-0.0","0","0","72421","","null","","","null","4","","","","","","","","","","","","","","","",""
"","ITI","","html-keyboard-response","40","151305","0.0-1.0-45.0","0","0","72421","","null","","","null","4","","","","","","","","","","","","","","","NaN",""
"","S1","","html-keyboard-response","41","151462","0.0-1.0-47.0","0","0","72421","","null","","","null","5","","","","","","","","","","","","","","","",""
"","ISI","","html-keyboard-response","42","153475","0.0-1.0-48.0","0","0","72421","","null","","","null","5","NaN","","","","","","","","","","","","","","",""
"","S2","","html-keyboard-response","43","153633","0.0-1.0-49.0","0","0","72421","","null","","","null","5","","NaN","","","","","","","","","","","","","",""
"","response","","html-keyboard-response","44","154039","0.0-1.0-50.0-0.0","0","0","72421","","405","","","75","5","","","1","5","training","adjacent","FE","6","5","O.jpg","R.jpg","1","0","0","",""
"","feedback","","html-keyboard-response","45","155079","0.0-1.0-51.0-0.0","0","0","72421","","null","","","null","5","","","","","","","","","","","","","","","",""
"","time_out","","html-keyboard-response","46","157122","0.0-1.0-53.0-0.0","0","0","72421","","null","","","null","5","","","","","","","","","","","","","","","",""
"","ITI","","html-keyboard-response","47","158128","0.0-1.0-54.0","0","0","72421","","null","","","null","5","","","","","","","","","","","","","","","NaN",""
"","S1","","html-keyboard-response","48","158315","0.0-1.0-56.0","0","0","72421","","null","","","null","6","","","","","","","","","","","","","","","",""
"","ISI","","html-keyboard-response","49","160356","0.0-1.0-57.0","0","0","72421","","null","","","null","6","NaN","","","","","","","","","","","","","","",""
"","S2","","html-keyboard-response","50","160529","0.0-1.0-58.0","0","0","72421","","null","","","null","6","","NaN","","","","","","","","","","","","","",""
"","response","","html-keyboard-response","51","160970","0.0-1.0-59.0-0.0","0","0","72421","","439","","","68","6","","","1","6","training","adjacent","CD","3","4","L.jpg","N.jpg","0","1","0","",""
"","feedback","","html-keyboard-response","52","161975","0.0-1.0-60.0-0.0","0","0","72421","","null","","","null","6","","","","","","","","","","","","","","","",""
"","time_out","","html-keyboard-response","53","163979","0.0-1.0-62.0-0.0","0","0","72421","","null","","","null","6","","","","","","","","","","","","","","","",""
"","ITI","","html-keyboard-response","54","164988","0.0-1.0-63.0","0","0","72421","","null","","","null","6","","","","","","","","","","","","","","","NaN",""
"","S1","","html-keyboard-response","55","165143","0.0-1.0-65.0","0","0","72421","","null","","","null","7","","","","","","","","","","","","","","","",""
"","ISI","","html-keyboard-response","56","167158","0.0-1.0-66.0","0","0","72421","","null","","","null","7","NaN","","","","","","","","","","","","","","",""
"","S2","","html-keyboard-response","57","167346","0.0-1.0-67.0","0","0","72421","","null","","","null","7","","NaN","","","","","","","","","","","","","",""
"","response","","html-keyboard-response","58","167788","0.0-1.0-68.0-0.0","0","0","72421","","441","","","68","7","","","1","7","training","adjacent","CB","3","2","L.jpg","Q.jpg","0","0","1","",""
"","feedback","","html-keyboard-response","59","168794","0.0-1.0-69.0-0.0","0","0","72421","","null","","","null","7","","","","","","","","","","","","","","","",""
"","ITI","","html-keyboard-response","60","169801","0.0-1.0-72.0","0","0","72421","","null","","","null","7","","","","","","","","","","","","","","","NaN",""
"","S1","","html-keyboard-response","61","169957","0.0-1.0-74.0","0","0","72421","","null","","","null","8","","","","","","","","","","","","","","","",""
"","ISI","","html-keyboard-response","62","171973","0.0-1.0-75.0","0","0","72421","","null","","","null","8","NaN","","","","","","","","","","","","","","",""
"","S2","","html-keyboard-response","63","172129","0.0-1.0-76.0","0","0","72421","","null","","","null","8","","NaN","","","","","","","","","","","","","",""
"","response","","html-keyboard-response","64","172610","0.0-1.0-77.0-0.0","0","0","72421","","479","","","68","8","","","1","8","training","adjacent","AB","1","2","P.jpg","Q.jpg","0","1","0","",""
"","feedback","","html-keyboard-response","65","173641","0.0-1.0-78.0-0.0","0","0","72421","","null","","","null","8","","","","","","","","","","","","","","","",""
"","time_out","","html-keyboard-response","66","175656","0.0-1.0-80.0-0.0","0","0","72421","","null","","","null","8","","","","","","","","","","","","","","","",""
"","ITI","","html-keyboard-response","67","176679","0.0-1.0-81.0","0","0","72421","","null","","","null","8","","","","","","","","","","","","","","","NaN",""
"","S1","","html-keyboard-response","68","176852","0.0-1.0-83.0","0","0","72421","","null","","","null","9","","","","","","","","","","","","","","","",""
"","ISI","","html-keyboard-response","69","178865","0.0-1.0-84.0","0","0","72421","","null","","","null","9","NaN","","","","","","","","","","","","","","",""
"","S2","","html-keyboard-response","70","179038","0.0-1.0-85.0","0","0","72421","","null","","","null","9","","NaN","","","","","","","","","","","","","",""
"","response","","html-keyboard-response","71","179560","0.0-1.0-86.0-0.0","0","0","72421","","519","","","68","9","","","1","9","training","adjacent","CB","3","2","L.jpg","Q.jpg","0","0","1","",""
"","feedback","","html-keyboard-response","72","180566","0.0-1.0-87.0-0.0","0","0","72421","","null","","","null","9","","","","","","","","","","","","","","","",""
"","ITI","","html-keyboard-response","73","181576","0.0-1.0-90.0","0","0","72421","","null","","","null","9","","","","","","","","","","","","","","","NaN",""
"","S1","","html-keyboard-response","74","181732","0.0-1.0-92.0","0","0","72421","","null","","","null","10","","","","","","","","","","","","","","","",""
"","ISI","","html-keyboard-response","75","183746","0.0-1.0-93.0","0","0","72421","","null","","","null","10","NaN","","","","","","","","","","","","","","",""
"","S2","","html-keyboard-response","76","183904","0.0-1.0-94.0","0","0","72421","","null","","","null","10","","NaN","","","","","","","","","","","","","",""
"","response","","html-keyboard-response","77","184216","0.0-1.0-95.0-0.0","0","0","72421","","310","","","75","10","","","1","10","training","adjacent","BC","2","3","Q.jpg","L.jpg","1","1","1","",""
"","feedback","","html-keyboard-response","78","185256","0.0-1.0-96.0-0.0","0","0","72421","","null","","","null","10","","","","","","","","","","","","","","","",""
"","ITI","","html-keyboard-response","79","186279","0.0-1.0-99.0","0","0","72421","","null","","","null","10","","","","","","","","","","","","","","","NaN",""
"","S1","","html-keyboard-response","80","186451","0.0-1.0-101.0","0","0","72421","","null","","","null","11","","","","","","","","","","","","","","","",""
"","ISI","","html-keyboard-response","81","188469","0.0-1.0-102.0","0","0","72421","","null","","","null","11","NaN","","","","","","","","","","","","","","",""
"","S2","","html-keyboard-response","82","188642","0.0-1.0-103.0","0","0","72421","","null","","","null","11","","NaN","","","","","","","","","","","","","",""
"","response","","html-keyboard-response","83","188957","0.0-1.0-104.0-0.0","0","0","72421","","313","","","75","11","","","1","11","training","adjacent","DE","4","5","N.jpg","R.jpg","1","1","1","",""
"","feedback","","html-keyboard-response","84","189964","0.0-1.0-105.0-0.0","0","0","72421","","null","","","null","11","","","","","","","","","","","","","","","",""
"","ITI","","html-keyboard-response","85","190971","0.0-1.0-108.0","0","0","72421","","null","","","null","11","","","","","","","","","","","","","","","NaN",""
"","S1","","html-keyboard-response","86","191129","0.0-1.0-110.0","0","0","72421","","null","","","null","12","","","","","","","","","","","","","","","",""
"","ISI","","html-keyboard-response","87","193142","0.0-1.0-111.0","0","0","72421","","null","","","null","12","NaN","","","","","","","","","","","","","","",""
"","S2","","html-keyboard-response","88","193299","0.0-1.0-112.0","0","0","72421","","null","","","null","12","","NaN","","","","","","","","","","","","","",""
"","response","","html-keyboard-response","89","193522","0.0-1.0-113.0-0.0","0","0","72421","","221","","","68","12","","","1","12","training","adjacent","CD","3","4","L.jpg","N.jpg","0","1","0","",""
"","feedback","","html-keyboard-response","90","194558","0.0-1.0-114.0-0.0","0","0","72421","","null","","","null","12","","","","","","","","","","","","","","","",""
"","time_out","","html-keyboard-response","91","196602","0.0-1.0-116.0-0.0","0","0","72421","","null","","","null","12","","","","","","","","","","","","","","","",""
"","ITI","","html-keyboard-response","92","197611","0.0-1.0-117.0","0","0","72421","","null","","","null","12","","","","","","","","","","","","","","","NaN",""
"","S1","","html-keyboard-response","93","197799","0.0-1.0-119.0","0","0","72421","","null","","","null","13","","","","","","","","","","","","","","","",""
"","ISI","","html-keyboard-response","94","199831","0.0-1.0-120.0","0","0","72421","","null","","","null","13","NaN","","","","","","","","","","","","","","",""
"","S2","","html-keyboard-response","95","200019","0.0-1.0-121.0","0","0","72421","","null","","","null","13","","NaN","","","","","","","","","","","","","",""
"","response","","html-keyboard-response","96","200427","0.0-1.0-122.0-0.0","0","0","72421","","406","","","75","13","","","1","13","training","adjacent","FE","6","5","O.jpg","R.jpg","1","0","0","",""
"","feedback","","html-keyboard-response","97","201439","0.0-1.0-123.0-0.0","0","0","72421","","null","","","null","13","","","","","","","","","","","","","","","",""
"","time_out","","html-keyboard-response","98","203456","0.0-1.0-125.0-0.0","0","0","72421","","null","","","null","13","","","","","","","","","","","","","","","",""
"","ITI","","html-keyboard-response","99","204463","0.0-1.0-126.0","0","0","72421","","null","","","null","13","","","","","","","","","","","","","","","NaN",""
"","S1","","html-keyboard-response","100","204620","0.0-1.0-128.0","0","0","72421","","null","","","null","14","","","","","","","","","","","","","","","",""
"","ISI","","html-keyboard-response","101","206648","0.0-1.0-129.0","0","0","72421","","null","","","null","14","NaN","","","","","","","","","","","","","","",""
"","S2","","html-keyboard-response","102","206822","0.0-1.0-130.0","0","0","72421","","null","","","null","14","","NaN","","","","","","","","","","","","","",""
"","response","","html-keyboard-response","103","207049","0.0-1.0-131.0-0.0","0","0","72421","","225","","","68","14","","","1","14","training","adjacent","DE","4","5","N.jpg","R.jpg","0","1","0","",""
"","feedback","","html-keyboard-response","104","208064","0.0-1.0-132.0-0.0","0","0","72421","","null","","","null","14","","","","","","","","","","","","","","","",""
"","time_out","","html-keyboard-response","105","210077","0.0-1.0-134.0-0.0","0","0","72421","","null","","","null","14","","","","","","","","","","","","","","","",""
"","ITI","","html-keyboard-response","106","211085","0.0-1.0-135.0","0","0","72421","","null","","","null","14","","","","","","","","","","","","","","","NaN",""
"","S1","","html-keyboard-response","107","211241","0.0-1.0-137.0","0","0","72421","","null","","","null","15","","","","","","","","","","","","","","","",""
"","ISI","","html-keyboard-response","108","213270","0.0-1.0-138.0","0","0","72421","","null","","","null","15","NaN","","","","","","","","","","","","","","",""
"","S2","","html-keyboard-response","109","213427","0.0-1.0-139.0","0","0","72421","","null","","","null","15","","NaN","","","","","","","","","","","","","",""
"","response","","html-keyboard-response","110","213914","0.0-1.0-140.0-0.0","0","0","72421","","485","","","75","15","","","1","15","training","adjacent","DC","4","3","N.jpg","L.jpg","1","0","0","",""
"","feedback","","html-keyboard-response","111","214922","0.0-1.0-141.0-0.0","0","0","72421","","null","","","null","15","","","","","","","","","","","","","","","",""
"","time_out","","html-keyboard-response","112","216935","0.0-1.0-143.0-0.0","0","0","72421","","null","","","null","15","","","","","","","","","","","","","","","",""
"","ITI","","html-keyboard-response","113","217943","0.0-1.0-144.0","0","0","72421","","null","","","null","15","","","","","","","","","","","","","","","NaN",""
"","S1","","html-keyboard-response","114","218100","0.0-1.0-146.0","0","0","72421","","null","","","null","16","","","","","","","","","","","","","","","",""
"","ISI","","html-keyboard-response","115","220114","0.0-1.0-147.0","0","0","72421","","null","","","null","16","NaN","","","","","","","","","","","","","","",""
"","S2","","html-keyboard-response","116","220301","0.0-1.0-148.0","0","0","72421","","null","","","null","16","","NaN","","","","","","","","","","","","","",""
"","response","","html-keyboard-response","117","220694","0.0-1.0-149.0-0.0","0","0","72421","","391","","","75","16","","","1","16","training","adjacent","EF","5","6","R.jpg","O.jpg","1","1","1","",""
"","feedback","","html-keyboard-response","118","221702","0.0-1.0-150.0-0.0","0","0","72421","","null","","","null","16","","","","","","","","","","","","","","","",""
"","ITI","","html-keyboard-response","119","222710","0.0-1.0-153.0","0","0","72421","","null","","","null","16","","","","","","","","","","","","","","","NaN",""
"","S1","","html-keyboard-response","120","222867","0.0-1.0-155.0","0","0","72421","","null","","","null","17","","","","","","","","","","","","","","","",""
"","ISI","","html-keyboard-response","121","224875","0.0-1.0-156.0","0","0","72421","","null","","","null","17","NaN","","","","","","","","","","","","","","",""
"","S2","","html-keyboard-response","122","225031","0.0-1.0-157.0","0","0","72421","","null","","","null","17","","NaN","","","","","","","","","","","","","",""
"","response","","html-keyboard-response","123","225365","0.0-1.0-158.0-0.0","0","0","72421","","331","","","68","17","","","1","17","training","adjacent","ED","5","4","R.jpg","N.jpg","0","0","1","",""
"","feedback","","html-keyboard-response","124","226384","0.0-1.0-159.0-0.0","0","0","72421","","null","","","null","17","","","","","","","","","","","","","","","",""
"","ITI","","html-keyboard-response","125","227406","0.0-1.0-162.0","0","0","72421","","null","","","null","17","","","","","","","","","","","","","","","NaN",""
"","S1","","html-keyboard-response","126","227580","0.0-1.0-164.0","0","0","72421","","null","","","null","18","","","","","","","","","","","","","","","",""
"","ISI","","html-keyboard-response","127","229597","0.0-1.0-165.0","0","0","72421","","null","","","null","18","NaN","","","","","","","","","","","","","","",""
"","S2","","html-keyboard-response","128","229769","0.0-1.0-166.0","0","0","72421","","null","","","null","18","","NaN","","","","","","","","","","","","","",""
"","response","","html-keyboard-response","129","230128","0.0-1.0-167.0-0.0","0","0","72421","","358","","","75","18","","","1","18","training","adjacent","FG","6","7","O.jpg","M.jpg","1","1","1","",""
"","feedback","","html-keyboard-response","130","231139","0.0-1.0-168.0-0.0","0","0","72421","","null","","","null","18","","","","","","","","","","","","","","","",""
"","ITI","","html-keyboard-response","131","232148","0.0-1.0-171.0","0","0","72421","","null","","","null","18","","","","","","","","","","","","","","","NaN",""
"","S1","","html-keyboard-response","132","232305","0.0-1.0-173.0","0","0","72421","","null","","","null","19","","","","","","","","","","","","","","","",""
"","ISI","","html-keyboard-response","133","234320","0.0-1.0-174.0","0","0","72421","","null","","","null","19","NaN","","","","","","","","","","","","","","",""
"","S2","","html-keyboard-response","134","234478","0.0-1.0-175.0","0","0","72421","","null","","","null","19","","NaN","","","","","","","","","","","","","",""
"","response","","html-keyboard-response","135","234794","0.0-1.0-176.0-0.0","0","0","72421","","315","","","68","19","","","1","19","training","adjacent","FE","6","5","O.jpg","R.jpg","0","0","1","",""
"","feedback","","html-keyboard-response","136","235832","0.0-1.0-177.0-0.0","0","0","72421","","null","","","null","19","","","","","","","","","","","","","","","",""
"","ITI","","html-keyboard-response","137","236854","0.0-1.0-180.0","0","0","72421","","null","","","null","19","","","","","","","","","","","","","","","NaN",""
"","S1","","html-keyboard-response","138","237028","0.0-1.0-182.0","0","0","72421","","null","","","null","20","","","","","","","","","","","","","","","",""
"","ISI","","html-keyboard-response","139","239051","0.0-1.0-183.0","0","0","72421","","null","","","null","20","NaN","","","","","","","","","","","","","","",""
"","S2","","html-keyboard-response","140","239224","0.0-1.0-184.0","0","0","72421","","null","","","null","20","","NaN","","","","","","","","","","","","","",""
"","response","","html-keyboard-response","141","239611","0.0-1.0-185.0-0.0","0","0","72421","","385","","","75","20","","","1","20","training","adjacent","FG","6","7","O.jpg","M.jpg","1","1","1","",""
"","feedback","","html-keyboard-response","142","240623","0.0-1.0-186.0-0.0","0","0","72421","","null","","","null","20","","","","","","","","","","","","","","","",""
"","ITI","","html-keyboard-response","143","241632","0.0-1.0-189.0","0","0","72421","","null","","","null","20","","","","","","","","","","","","","","","NaN",""
"","S1","","html-keyboard-response","144","241788","0.0-1.0-191.0","0","0","72421","","null","","","null","21","","","","","","","","","","","","","","","",""
"","ISI","","html-keyboard-response","145","243805","0.0-1.0-192.0","0","0","72421","","null","","","null","21","NaN","","","","","","","","","","","","","","",""
"","S2","","html-keyboard-response","146","243962","0.0-1.0-193.0","0","0","72421","","null","","","null","21","","NaN","","","","","","","","","","","","","",""
"","response","","html-keyboard-response","147","244135","0.0-1.0-194.0-0.0","0","0","72421","","172","","","75","21","","","1","21","training","adjacent","GF","7","6","M.jpg","O.jpg","1","0","0","",""
"","feedback","","html-keyboard-response","148","245159","0.0-1.0-195.0-0.0","0","0","72421","","null","","","null","21","","","","","","","","","","","","","","","",""
"","time_out","","html-keyboard-response","149","247178","0.0-1.0-197.0-0.0","0","0","72421","","null","","","null","21","","","","","","","","","","","","","","","",""
"","ITI","","html-keyboard-response","150","248188","0.0-1.0-198.0","0","0","72421","","null","","","null","21","","","","","","","","","","","","","","","NaN",""
"","S1","","html-keyboard-response","151","248378","0.0-1.0-200.0","0","0","72421","","null","","","null","22","","","","","","","","","","","","","","","",""
"","ISI","","html-keyboard-response","152","250411","0.0-1.0-201.0","0","0","72421","","null","","","null","22","NaN","","","","","","","","","","","","","","",""
"","S2","","html-keyboard-response","153","250601","0.0-1.0-202.0","0","0","72421","","null","","","null","22","","NaN","","","","","","","","","","","","","",""
"","response","","html-keyboard-response","154","250758","0.0-1.0-203.0-0.0","0","0","72421","","156","","","68","22","","","1","22","training","adjacent","BC","2","3","Q.jpg","L.jpg","0","1","0","",""
"","feedback","","html-keyboard-response","155","251767","0.0-1.0-204.0-0.0","0","0","72421","","null","","","null","22","","","","","","","","","","","","","","","",""
"","time_out","","html-keyboard-response","156","253785","0.0-1.0-206.0-0.0","0","0","72421","","null","","","null","22","","","","","","","","","","","","","","","",""
"","ITI","","html-keyboard-response","157","254791","0.0-1.0-207.0","0","0","72421","","null","","","null","22","","","","","","","","","","","","","","","NaN",""
"","S1","","html-keyboard-response","158","254948","0.0-1.0-209.0","0","0","72421","","null","","","null","23","","","","","","","","","","","","","","","",""
"","ISI","","html-keyboard-response","159","256982","0.0-1.0-210.0","0","0","72421","","null","","","null","23","NaN","","","","","","","","","","","","","","",""
"","S2","","html-keyboard-response","160","257170","0.0-1.0-211.0","0","0","72421","","null","","","null","23","","NaN","","","","","","","","","","","","","",""
"","response","","html-keyboard-response","161","257468","0.0-1.0-212.0-0.0","0","0","72421","","297","","","75","23","","","1","23","training","adjacent","GF","7","6","M.jpg","O.jpg","1","0","0","",""
"","feedback","","html-keyboard-response","162","258476","0.0-1.0-213.0-0.0","0","0","72421","","null","","","null","23","","","","","","","","","","","","","","","",""
"","time_out","","html-keyboard-response","163","260489","0.0-1.0-215.0-0.0","0","0","72421","","null","","","null","23","","","","","","","","","","","","","","","",""
"","ITI","","html-keyboard-response","164","261497","0.0-1.0-216.0","0","0","72421","","null","","","null","23","","","","","","","","","","","","","","","NaN",""
"","S1","","html-keyboard-response","165","261654","0.0-1.0-218.0","0","0","72421","","null","","","null","24","","","","","","","","","","","","","","","",""
"","ISI","","html-keyboard-response","166","263670","0.0-1.0-219.0","0","0","72421","","null","","","null","24","NaN","","","","","","","","","","","","","","",""
"","S2","","html-keyboard-response","167","263858","0.0-1.0-220.0","0","0","72421","","null","","","null","24","","NaN","","","","","","","","","","","","","",""
"","response","","html-keyboard-response","168","264013","0.0-1.0-221.0-0.0","0","0","72421","","154","","","68","24","","","1","24","training","adjacent","DE","4","5","N.jpg","R.jpg","0","1","0","",""
"","feedback","","html-keyboard-response","169","265022","0.0-1.0-222.0-0.0","0","0","72421","","null","","","null","24","","","","","","","","","","","","","","","",""
"","time_out","","html-keyboard-response","170","267040","0.0-1.0-224.0-0.0","0","0","72421","","null","","","null","24","","","","","","","","","","","","","","","",""
"","ITI","","html-keyboard-response","171","268047","0.0-1.0-225.0","0","0","72421","","null","","","null","24","","","","","","","","","","","","","","","NaN",""
"","S1","","html-keyboard-response","172","268204","0.0-1.0-227.0","0","0","72421","","null","","","null","25","","","","","","","","","","","","","","","",""
"","ISI","","html-keyboard-response","173","270218","0.0-1.0-228.0","0","0","72421","","null","","","null","25","NaN","","","","","","","","","","","","","","",""
"","S2","","html-keyboard-response","174","270391","0.0-1.0-229.0","0","0","72421","","null","","","null","25","","NaN","","","","","","","","","","","","","",""
"","response","","html-keyboard-response","175","270733","0.0-1.0-230.0-0.0","0","0","72421","","341","","","75","25","","","1","25","training","adjacent","DC","4","3","N.jpg","L.jpg","1","0","0","",""
"","feedback","","html-keyboard-response","176","271743","0.0-1.0-231.0-0.0","0","0","72421","","null","","","null","25","","","","","","","","","","","","","","","",""
"","time_out","","html-keyboard-response","177","273756","0.0-1.0-233.0-0.0","0","0","72421","","null","","","null","25","","","","","","","","","","","","","","","",""
"","ITI","","html-keyboard-response","178","274761","0.0-1.0-234.0","0","0","72421","","null","","","null","25","","","","","","","","","","","","","","","NaN",""
"","S1","","html-keyboard-response","179","274918","0.0-1.0-236.0","0","0","72421","","null","","","null","26","","","","","","","","","","","","","","","",""
"","ISI","","html-keyboard-response","180","276931","0.0-1.0-237.0","0","0","72421","","null","","","null","26","NaN","","","","","","","","","","","","","","",""
"","S2","","html-keyboard-response","181","277120","0.0-1.0-238.0","0","0","72421","","null","","","null","26","","NaN","","","","","","","","","","","","","",""
"","response","","html-keyboard-response","182","277498","0.0-1.0-239.0-0.0","0","0","72421","","376","","","75","26","","","1","26","training","adjacent","DC","4","3","N.jpg","L.jpg","1","0","0","",""
"","feedback","","html-keyboard-response","183","278505","0.0-1.0-240.0-0.0","0","0","72421","","null","","","null","26","","","","","","","","","","","","","","","",""
"","time_out","","html-keyboard-response","184","280518","0.0-1.0-242.0-0.0","0","0","72421","","null","","","null","26","","","","","","","","","","","","","","","",""
"","ITI","","html-keyboard-response","185","281524","0.0-1.0-243.0","0","0","72421","","null","","","null","26","","","","","","","","","","","","","","","NaN",""
"","S1","","html-keyboard-response","186","281683","0.0-1.0-245.0","0","0","72421","","null","","","null","27","","","","","","","","","","","","","","","",""
"","ISI","","html-keyboard-response","187","283713","0.0-1.0-246.0","0","0","72421","","null","","","null","27","NaN","","","","","","","","","","","","","","",""
"","S2","","html-keyboard-response","188","283901","0.0-1.0-247.0","0","0","72421","","null","","","null","27","","NaN","","","","","","","","","","","","","",""
"","response","","html-keyboard-response","189","284313","0.0-1.0-248.0-0.0","0","0","72421","","410","","","68","27","","","1","27","training","adjacent","ED","5","4","R.jpg","N.jpg","0","0","1","",""
"","feedback","","html-keyboard-response","190","285331","0.0-1.0-249.0-0.0","0","0","72421","","null","","","null","27","","","","","","","","","","","","","","","",""
"","ITI","","html-keyboard-response","191","286337","0.0-1.0-252.0","0","0","72421","","null","","","null","27","","","","","","","","","","","","","","","NaN",""
"","S1","","html-keyboard-response","192","286495","0.0-1.0-254.0","0","0","72421","","null","","","null","28","","","","","","","","","","","","","","","",""
"","ISI","","html-keyboard-response","193","288510","0.0-1.0-255.0","0","0","72421","","null","","","null","28","NaN","","","","","","","","","","","","","","",""
"","S2","","html-keyboard-response","194","288667","0.0-1.0-256.0","0","0","72421","","null","","","null","28","","NaN","","","","","","","","","","","","","",""
"","response","","html-keyboard-response","195","288879","0.0-1.0-257.0-0.0","0","0","72421","","210","","","68","28","","","1","28","training","adjacent","AB","1","2","P.jpg","Q.jpg","0","1","0","",""
"","feedback","","html-keyboard-response","196","289892","0.0-1.0-258.0-0.0","0","0","72421","","null","","","null","28","","","","","","","","","","","","","","","",""
"","time_out","","html-keyboard-response","197","291905","0.0-1.0-260.0-0.0","0","0","72421","","null","","","null","28","","","","","","","","","","","","","","","",""
"","ITI","","html-keyboard-response","198","292927","0.0-1.0-261.0","0","0","72421","","null","","","null","28","","","","","","","","","","","","","","","NaN",""
"","S1","","html-keyboard-response","199","293099","0.0-1.0-263.0","0","0","72421","","null","","","null","29","","","","","","","","","","","","","","","",""
"","ISI","","html-keyboard-response","200","295120","0.0-1.0-264.0","0","0","72421","","null","","","null","29","NaN","","","","","","","","","","","","","","",""
"","S2","","html-keyboard-response","201","295294","0.0-1.0-265.0","0","0","72421","","null","","","null","29","","NaN","","","","","","","","","","","","","",""
"","response","","html-keyboard-response","202","295711","0.0-1.0-266.0-0.0","0","0","72421","","415","","","75","29","","","1","29","training","adjacent","FG","6","7","O.jpg","M.jpg","1","1","1","",""
"","feedback","","html-keyboard-response","203","296727","0.0-1.0-267.0-0.0","0","0","72421","","null","","","null","29","","","","","","","","","","","","","","","",""
"","ITI","","html-keyboard-response","204","297731","0.0-1.0-270.0","0","0","72421","","null","","","null","29","","","","","","","","","","","","","","","NaN",""
"","S1","","html-keyboard-response","205","297888","0.0-1.0-272.0","0","0","72421","","null","","","null","30","","","","","","","","","","","","","","","",""
"","ISI","","html-keyboard-response","206","299906","0.0-1.0-273.0","0","0","72421","","null","","","null","30","NaN","","","","","","","","","","","","","","",""
"","S2","","html-keyboard-response","207","300063","0.0-1.0-274.0","0","0","72421","","null","","","null","30","","NaN","","","","","","","","","","","","","",""
"","response","","html-keyboard-response","208","300257","0.0-1.0-275.0-0.0","0","0","72421","","192","","","75","30","","","1","30","training","adjacent","EF","5","6","R.jpg","O.jpg","1","1","1","",""
"","feedback","","html-keyboard-response","209","301292","0.0-1.0-276.0-0.0","0","0","72421","","null","","","null","30","","","","","","","","","","","","","","","",""
"","ITI","","html-keyboard-response","210","302313","0.0-1.0-279.0","0","0","72421","","null","","","null","30","","","","","","","","","","","","","","","NaN",""
"","S1","","html-keyboard-response","211","302501","0.0-1.0-281.0","0","0","72421","","null","","","null","31","","","","","","","","","","","","","","","",""
"","ISI","","html-keyboard-response","212","304532","0.0-1.0-282.0","0","0","72421","","null","","","null","31","NaN","","","","","","","","","","","","","","",""
"","S2","","html-keyboard-response","213","304722","0.0-1.0-283.0","0","0","72421","","null","","","null","31","","NaN","","","","","","","","","","","","","",""
"","response","","html-keyboard-response","214","305803","0.0-1.0-284.0-0.0","0","0","72421","","1079","","","68","31","","","1","31","training","adjacent","BA","2","1","Q.jpg","P.jpg","0","0","1","",""
"","feedback","","html-keyboard-response","215","306816","0.0-1.0-285.0-0.0","0","0","72421","","null","","","null","31","","","","","","","","","","","","","","","",""
"","ITI","","html-keyboard-response","216","307823","0.0-1.0-288.0","0","0","72421","","null","","","null","31","","","","","","","","","","","","","","","NaN",""
"","S1","","html-keyboard-response","217","307980","0.0-1.0-290.0","0","0","72421","","null","","","null","32","","","","","","","","","","","","","","","",""
"","ISI","","html-keyboard-response","218","309993","0.0-1.0-291.0","0","0","72421","","null","","","null","32","NaN","","","","","","","","","","","","","","",""
"","S2","","html-keyboard-response","219","310150","0.0-1.0-292.0","0","0","72421","","null","","","null","32","","NaN","","","","","","","","","","","","","",""
"","response","","html-keyboard-response","220","310448","0.0-1.0-293.0-0.0","0","0","72421","","295","","","75","32","","","1","32","training","adjacent","DE","4","5","N.jpg","R.jpg","1","1","1","",""
"","feedback","","html-keyboard-response","221","311458","0.0-1.0-294.0-0.0","0","0","72421","","null","","","null","32","","","","","","","","","","","","","","","",""
"","ITI","","html-keyboard-response","222","312483","0.0-1.0-297.0","0","0","72421","","null","","","null","32","","","","","","","","","","","","","","","NaN",""
"","S1","","html-keyboard-response","223","312672","0.0-1.0-299.0","0","0","72421","","null","","","null","33","","","","","","","","","","","","","","","",""
"","ISI","","html-keyboard-response","224","314702","0.0-1.0-300.0","0","0","72421","","null","","","null","33","NaN","","","","","","","","","","","","","","",""
"","S2","","html-keyboard-response","225","314891","0.0-1.0-301.0","0","0","72421","","null","","","null","33","","NaN","","","","","","","","","","","","","",""
"","response","","html-keyboard-response","226","315076","0.0-1.0-302.0-0.0","0","0","72421","","183","","","75","33","","","1","33","training","adjacent","ED","5","4","R.jpg","N.jpg","1","0","0","",""
"","feedback","","html-keyboard-response","227","316084","0.0-1.0-303.0-0.0","0","0","72421","","null","","","null","33","","","","","","","","","","","","","","","",""
"","time_out","","html-keyboard-response","228","318100","0.0-1.0-305.0-0.0","0","0","72421","","null","","","null","33","","","","","","","","","","","","","","","",""
"","ITI","","html-keyboard-response","229","319105","0.0-1.0-306.0","0","0","72421","","null","","","null","33","","","","","","","","","","","","","","","NaN",""
"","S1","","html-keyboard-response","230","319263","0.0-1.0-308.0","0","0","72421","","null","","","null","34","","","","","","","","","","","","","","","",""
"","ISI","","html-keyboard-response","231","321277","0.0-1.0-309.0","0","0","72421","","null","","","null","34","NaN","","","","","","","","","","","","","","",""
"","S2","","html-keyboard-response","232","321450","0.0-1.0-310.0","0","0","72421","","null","","","null","34","","NaN","","","","","","","","","","","","","",""
"","response","","html-keyboard-response","233","321807","0.0-1.0-311.0-0.0","0","0","72421","","355","","","75","34","","","1","34","training","adjacent","EF","5","6","R.jpg","O.jpg","1","1","1","",""
"","feedback","","html-keyboard-response","234","322820","0.0-1.0-312.0-0.0","0","0","72421","","null","","","null","34","","","","","","","","","","","","","","","",""
"","ITI","","html-keyboard-response","235","323827","0.0-1.0-315.0","0","0","72421","","null","","","null","34","","","","","","","","","","","","","","","NaN",""
"","S1","","html-keyboard-response","236","323986","0.0-1.0-317.0","0","0","72421","","null","","","null","35","","","","","","","","","","","","","","","",""
"","ISI","","html-keyboard-response","237","326002","0.0-1.0-318.0","0","0","72421","","null","","","null","35","NaN","","","","","","","","","","","","","","",""
"","S2","","html-keyboard-response","238","326159","0.0-1.0-319.0","0","0","72421","","null","","","null","35","","NaN","","","","","","","","","","","","","",""
"","response","","html-keyboard-response","239","326381","0.0-1.0-320.0-0.0","0","0","72421","","219","","","75","35","","","1","35","training","adjacent","CD","3","4","L.jpg","N.jpg","1","1","1","",""
"","feedback","","html-keyboard-response","240","327403","0.0-1.0-321.0-0.0","0","0","72421","","null","","","null","35","","","","","","","","","","","","","","","",""
"","ITI","","html-keyboard-response","241","328410","0.0-1.0-324.0","0","0","72421","","null","","","null","35","","","","","","","","","","","","","","","NaN",""
"","S1","","html-keyboard-response","242","328597","0.0-1.0-326.0","0","0","72421","","null","","","null","36","","","","","","","","","","","","","","","",""
"","ISI","","html-keyboard-response","243","330641","0.0-1.0-327.0","0","0","72421","","null","","","null","36","NaN","","","","","","","","","","","","","","",""
"","S2","","html-keyboard-response","244","330814","0.0-1.0-328.0","0","0","72421","","null","","","null","36","","NaN","","","","","","","","","","","","","",""
"","response","","html-keyboard-response","245","330988","0.0-1.0-329.0-0.0","0","0","72421","","173","","","68","36","","","1","36","training","adjacent","CD","3","4","L.jpg","N.jpg","0","1","0","",""
"","feedback","","html-keyboard-response","246","332007","0.0-1.0-330.0-0.0","0","0","72421","","null","","","null","36","","","","","","","","","","","","","","","",""
"","time_out","","html-keyboard-response","247","334022","0.0-1.0-332.0-0.0","0","0","72421","","null","","","null","36","","","","","","","","","","","","","","","",""
"","ITI","","html-keyboard-response","248","335030","0.0-1.0-333.0","0","0","72421","","null","","","null","36","","","","","","","","","","","","","","","NaN",""
"","S1","","html-keyboard-response","249","335188","0.0-1.0-335.0","0","0","72421","","null","","","null","37","","","","","","","","","","","","","","","",""
"","ISI","","html-keyboard-response","250","337202","0.0-1.0-336.0","0","0","72421","","null","","","null","37","NaN","","","","","","","","","","","","","","",""
"","S2","","html-keyboard-response","251","337390","0.0-1.0-337.0","0","0","72421","","null","","","null","37","","NaN","","","","","","","","","","","","","",""
"","response","","html-keyboard-response","252","337453","0.0-1.0-338.0-0.0","0","0","72421","","61","","","75","37","","","1","37","training","adjacent","ED","5","4","R.jpg","N.jpg","1","0","0","",""
"","feedback","","html-keyboard-response","253","338460","0.0-1.0-339.0-0.0","0","0","72421","","null","","","null","37","","","","","","","","","","","","","","","",""
"","time_out","","html-keyboard-response","254","340474","0.0-1.0-341.0-0.0","0","0","72421","","null","","","null","37","","","","","","","","","","","","","","","",""
"","ITI","","html-keyboard-response","255","341479","0.0-1.0-342.0","0","0","72421","","null","","","null","37","","","","","","","","","","","","","","","NaN",""
"","S1","","html-keyboard-response","256","341637","0.0-1.0-344.0","0","0","72421","","null","","","null","38","","","","","","","","","","","","","","","",""
"","ISI","","html-keyboard-response","257","343652","0.0-1.0-345.0","0","0","72421","","null","","","null","38","NaN","","","","","","","","","","","","","","",""
"","S2","","html-keyboard-response","258","343841","0.0-1.0-346.0","0","0","72421","","null","","","null","38","","NaN","","","","","","","","","","","","","",""
"","response","","html-keyboard-response","259","344171","0.0-1.0-347.0-0.0","0","0","72421","","329","","","75","38","","","1","38","training","adjacent","GF","7","6","M.jpg","O.jpg","1","0","0","",""
"","feedback","","html-keyboard-response","260","345179","0.0-1.0-348.0-0.0","0","0","72421","","null","","","null","38","","","","","","","","","","","","","","","",""
"","time_out","","html-keyboard-response","261","347184","0.0-1.0-350.0-0.0","0","0","72421","","null","","","null","38","","","","","","","","","","","","","","","",""
"","ITI","","html-keyboard-response","262","348188","0.0-1.0-351.0","0","0","72421","","null","","","null","38","","","","","","","","","","","","","","","NaN",""
"","S1","","html-keyboard-response","263","348347","0.0-1.0-353.0","0","0","72421","","null","","","null","39","","","","","","","","","","","","","","","",""
"","ISI","","html-keyboard-response","264","350367","0.0-1.0-354.0","0","0","72421","","null","","","null","39","NaN","","","","","","","","","","","","","","",""
"","S2","","html-keyboard-response","265","350556","0.0-1.0-355.0","0","0","72421","","null","","","null","39","","NaN","","","","","","","","","","","","","",""
"","response","","html-keyboard-response","266","350697","0.0-1.0-356.0-0.0","0","0","72421","","140","","","68","39","","","1","39","training","adjacent","DC","4","3","N.jpg","L.jpg","0","0","1","",""
"","feedback","","html-keyboard-response","267","351705","0.0-1.0-357.0-0.0","0","0","72421","","null","","","null","39","","","","","","","","","","","","","","","",""
"","ITI","","html-keyboard-response","268","352712","0.0-1.0-360.0","0","0","72421","","null","","","null","39","","","","","","","","","","","","","","","NaN",""
"","S1","","html-keyboard-response","269","352869","0.0-1.0-362.0","0","0","72421","","null","","","null","40","","","","","","","","","","","","","","","",""
"","ISI","","html-keyboard-response","270","354880","0.0-1.0-363.0","0","0","72421","","null","","","null","40","NaN","","","","","","","","","","","","","","",""
"","S2","","html-keyboard-response","271","355037","0.0-1.0-364.0","0","0","72421","","null","","","null","40","","NaN","","","","","","","","","","","","","",""
"","response","","html-keyboard-response","272","355274","0.0-1.0-365.0-0.0","0","0","72421","","236","","","75","40","","","1","40","training","adjacent","BA","2","1","Q.jpg","P.jpg","1","0","0","",""
"","feedback","","html-keyboard-response","273","356313","0.0-1.0-366.0-0.0","0","0","72421","","null","","","null","40","","","","","","","","","","","","","","","",""
"","time_out","","html-keyboard-response","274","358329","0.0-1.0-368.0-0.0","0","0","72421","","null","","","null","40","","","","","","","","","","","","","","","",""
"","ITI","","html-keyboard-response","275","359348","0.0-1.0-369.0","0","0","72421","","null","","","null","40","","","","","","","","","","","","","","","NaN",""
"","S1","","html-keyboard-response","276","359522","0.0-1.0-371.0","0","0","72421","","null","","","null","41","","","","","","","","","","","","","","","",""
"","ISI","","html-keyboard-response","277","361538","0.0-1.0-372.0","0","0","72421","","null","","","null","41","NaN","","","","","","","","","","","","","","",""
"","S2","","html-keyboard-response","278","361711","0.0-1.0-373.0","0","0","72421","","null","","","null","41","","NaN","","","","","","","","","","","","","",""
"","response","","html-keyboard-response","279","361915","0.0-1.0-374.0-0.0","0","0","72421","","203","","","68","41","","","1","41","training","adjacent","BA","2","1","Q.jpg","P.jpg","0","0","1","",""
"","feedback","","html-keyboard-response","280","362923","0.0-1.0-375.0-0.0","0","0","72421","","null","","","null","41","","","","","","","","","","","","","","","",""
"","ITI","","html-keyboard-response","281","363929","0.0-1.0-378.0","0","0","72421","","null","","","null","41","","","","","","","","","","","","","","","NaN",""
"","S1","","html-keyboard-response","282","364086","0.0-1.0-380.0","0","0","72421","","null","","","null","42","","","","","","","","","","","","","","","",""
"","ISI","","html-keyboard-response","283","366100","0.0-1.0-381.0","0","0","72421","","null","","","null","42","NaN","","","","","","","","","","","","","","",""
"","S2","","html-keyboard-response","284","366257","0.0-1.0-382.0","0","0","72421","","null","","","null","42","","NaN","","","","","","","","","","","","","",""
"","response","","html-keyboard-response","285","366693","0.0-1.0-383.0-0.0","0","0","72421","","433","","","68","42","","","1","42","training","adjacent","BA","2","1","Q.jpg","P.jpg","0","0","1","",""
"","feedback","","html-keyboard-response","286","367717","0.0-1.0-384.0-0.0","0","0","72421","","null","","","null","42","","","","","","","","","","","","","","","",""
"","ITI","","html-keyboard-response","287","368740","0.0-1.0-387.0","0","0","72421","","null","","","null","42","","","","","","","","","","","","","","","NaN",""
"","S1","","html-keyboard-response","288","368912","0.0-1.0-389.0","0","0","72421","","null","","","null","43","","","","","","","","","","","","","","","",""
"","ISI","","html-keyboard-response","289","370925","0.0-1.0-390.0","0","0","72421","","null","","","null","43","NaN","","","","","","","","","","","","","","",""
"","S2","","html-keyboard-response","290","371098","0.0-1.0-391.0","0","0","72421","","null","","","null","43","","NaN","","","","","","","","","","","","","",""
"","response","","html-keyboard-response","291","371456","0.0-1.0-392.0-0.0","0","0","72421","","357","","","75","43","","","1","43","training","adjacent","FE","6","5","O.jpg","R.jpg","1","0","0","",""
"","feedback","","html-keyboard-response","292","372470","0.0-1.0-393.0-0.0","0","0","72421","","null","","","null","43","","","","","","","","","","","","","","","",""
"","time_out","","html-keyboard-response","293","374484","0.0-1.0-395.0-0.0","0","0","72421","","null","","","null","43","","","","","","","","","","","","","","","",""
"","ITI","","html-keyboard-response","294","375492","0.0-1.0-396.0","0","0","72421","","null","","","null","43","","","","","","","","","","","","","","","NaN",""
"","S1","","html-keyboard-response","295","375649","0.0-1.0-398.0","0","0","72421","","null","","","null","44","","","","","","","","","","","","","","","",""
"","ISI","","html-keyboard-response","296","377679","0.0-1.0-399.0","0","0","72421","","null","","","null","44","NaN","","","","","","","","","","","","","","",""
"","S2","","html-keyboard-response","297","377852","0.0-1.0-400.0","0","0","72421","","null","","","null","44","","NaN","","","","","","","","","","","","","",""
"","response","","html-keyboard-response","298","377931","0.0-1.0-401.0-0.0","0","0","72421","","77","","","68","44","","","1","44","training","adjacent","AB","1","2","P.jpg","Q.jpg","0","1","0","",""
"","feedback","","html-keyboard-response","299","378939","0.0-1.0-402.0-0.0","0","0","72421","","null","","","null","44","","","","","","","","","","","","","","","",""
"","time_out","","html-keyboard-response","300","380957","0.0-1.0-404.0-0.0","0","0","72421","","null","","","null","44","","","","","","","","","","","","","","","",""
"","ITI","","html-keyboard-response","301","381965","0.0-1.0-405.0","0","0","72421","","null","","","null","44","","","","","","","","","","","","","","","NaN",""
"","S1","","html-keyboard-response","302","382123","0.0-1.0-407.0","0","0","72421","","null","","","null","45","","","","","","","","","","","","","","","",""
"","ISI","","html-keyboard-response","303","384161","0.0-1.0-408.0","0","0","72421","","null","","","null","45","NaN","","","","","","","","","","","","","","",""
"","S2","","html-keyboard-response","304","384334","0.0-1.0-409.0","0","0","72421","","null","","","null","45","","NaN","","","","","","","","","","","","","",""
"","response","","html-keyboard-response","305","384494","0.0-1.0-410.0-0.0","0","0","72421","","159","","","75","45","","","1","45","training","adjacent","GF","7","6","M.jpg","O.jpg","1","0","0","",""
"","feedback","","html-keyboard-response","306","385513","0.0-1.0-411.0-0.0","0","0","72421","","null","","","null","45","","","","","","","","","","","","","","","",""
"","time_out","","html-keyboard-response","307","387527","0.0-1.0-413.0-0.0","0","0","72421","","null","","","null","45","","","","","","","","","","","","","","","",""
"","ITI","","html-keyboard-response","308","388535","0.0-1.0-414.0","0","0","72421","","null","","","null","45","","","","","","","","","","","","","","","NaN",""
"","S1","","html-keyboard-response","309","388693","0.0-1.0-416.0","0","0","72421","","null","","","null","46","","","","","","","","","","","","","","","",""
"","ISI","","html-keyboard-response","310","390722","0.0-1.0-417.0","0","0","72421","","null","","","null","46","NaN","","","","","","","","","","","","","","",""
"","S2","","html-keyboard-response","311","390912","0.0-1.0-418.0","0","0","72421","","null","","","null","46","","NaN","","","","","","","","","","","","","",""
"","response","","html-keyboard-response","312","391120","0.0-1.0-419.0-0.0","0","0","72421","","206","","","75","46","","","1","46","training","adjacent","AB","1","2","P.jpg","Q.jpg","1","1","1","",""
"","feedback","","html-keyboard-response","313","392125","0.0-1.0-420.0-0.0","0","0","72421","","null","","","null","46","","","","","","","","","","","","","","","",""
"","ITI","","html-keyboard-response","314","393131","0.0-1.0-423.0","0","0","72421","","null","","","null","46","","","","","","","","","","","","","","","NaN",""
"","S1","","html-keyboard-response","315","393287","0.0-1.0-425.0","0","0","72421","","null","","","null","47","","","","","","","","","","","","","","","",""
"","ISI","","html-keyboard-response","316","395304","0.0-1.0-426.0","0","0","72421","","null","","","null","47","NaN","","","","","","","","","","","","","","",""
"","S2","","html-keyboard-response","317","395460","0.0-1.0-427.0","0","0","72421","","null","","","null","47","","NaN","","","","","","","","","","","","","",""
"","response","","html-keyboard-response","318","395694","0.0-1.0-428.0-0.0","0","0","72421","","233","","","68","47","","","1","47","training","adjacent","BC","2","3","Q.jpg","L.jpg","0","1","0","",""
"","feedback","","html-keyboard-response","319","396716","0.0-1.0-429.0-0.0","0","0","72421","","null","","","null","47","","","","","","","","","","","","","","","",""
"","time_out","","html-keyboard-response","320","398730","0.0-1.0-431.0-0.0","0","0","72421","","null","","","null","47","","","","","","","","","","","","","","","",""
"","ITI","","html-keyboard-response","321","399750","0.0-1.0-432.0","0","0","72421","","null","","","null","47","","","","","","","","","","","","","","","NaN",""
"","block_over","","html-keyboard-response","322","407891","0.0-1.0-433.0-0.0","0","0","72421","","8139","","","32","47","","","","","","","","","","","","","","","",""
"","S1","","html-keyboard-response","323","408055","0.0-1.0-434.0","0","0","72421","","null","","","null","48","","","","","","","","","","","","","","","",""
"","ISI","","html-keyboard-response","324","410071","0.0-1.0-435.0","0","0","72421","","null","","","null","48","NaN","","","","","","","","","","","","","","",""
"","S2","","html-keyboard-response","325","410231","0.0-1.0-436.0","0","0","72421","","null","","","null","48","","NaN","","","","","","","","","","","","","",""
"","response","","html-keyboard-response","326","410630","0.0-1.0-437.0-0.0","0","0","72421","","397","","","75","48","","","2","48","training","adjacent","GF","7","6","M.jpg","O.jpg","1","0","0","",""
"","feedback","","html-keyboard-response","327","411645","0.0-1.0-438.0-0.0","0","0","72421","","null","","","null","48","","","","","","","","","","","","","","","",""
"","time_out","","html-keyboard-response","328","413672","0.0-1.0-440.0-0.0","0","0","72421","","null","","","null","48","","","","","","","","","","","","","","","",""
"","ITI","","html-keyboard-response","329","414694","0.0-1.0-441.0","0","0","72421","","null","","","null","48","","","","","","","","","","","","","","","NaN",""
"","S1","","html-keyboard-response","330","414867","0.0-1.0-443.0","0","0","72421","","null","","","null","49","","","","","","","","","","","","","","","",""
"","ISI","","html-keyboard-response","331","416887","0.0-1.0-444.0","0","0","72421","","null","","","null","49","NaN","","","","","","","","","","","","","","",""
"","S2","","html-keyboard-response","332","417059","0.0-1.0-445.0","0","0","72421","","null","","","null","49","","NaN","","","","","","","","","","","","","",""
"","response","","html-keyboard-response","333","417224","0.0-1.0-446.0-0.0","0","0","72421","","164","","","68","49","","","2","49","training","adjacent","EF","5","6","R.jpg","O.jpg","0","1","0","",""
"","feedback","","html-keyboard-response","334","418241","0.0-1.0-447.0-0.0","0","0","72421","","null","","","null","49","","","","","","","","","","","","","","","",""
"","time_out","","html-keyboard-response","335","420246","0.0-1.0-449.0-0.0","0","0","72421","","null","","","null","49","","","","","","","","","","","","","","","",""
"","ITI","","html-keyboard-response","336","421250","0.0-1.0-450.0","0","0","72421","","null","","","null","49","","","","","","","","","","","","","","","NaN",""
"","S1","","html-keyboard-response","337","421407","0.0-1.0-452.0","0","0","72421","","null","","","null","50","","","","","","","","","","","","","","","",""
"","ISI","","html-keyboard-response","338","423418","0.0-1.0-453.0","0","0","72421","","null","","","null","50","NaN","","","","","","","","","","","","","","",""
"","S2","","html-keyboard-response","339","423606","0.0-1.0-454.0","0","0","72421","","null","","","null","50","","NaN","","","","","","","","","","","","","",""
"","response","","html-keyboard-response","340","423738","0.0-1.0-455.0-0.0","0","0","72421","","130","","","68","50","","","2","50","training","adjacent","FG","6","7","O.jpg","M.jpg","0","1","0","",""
"","feedback","","html-keyboard-response","341","424755","0.0-1.0-456.0-0.0","0","0","72421","","null","","","null","50","","","","","","","","","","","","","","","",""
"","time_out","","html-keyboard-response","342","426768","0.0-1.0-458.0-0.0","0","0","72421","","null","","","null","50","","","","","","","","","","","","","","","",""
"","ITI","","html-keyboard-response","343","427772","0.0-1.0-459.0","0","0","72421","","null","","","null","50","","","","","","","","","","","","","","","NaN",""
"","S1","","html-keyboard-response","344","427930","0.0-1.0-461.0","0","0","72421","","null","","","null","51","","","","","","","","","","","","","","","",""
"","ISI","","html-keyboard-response","345","429964","0.0-1.0-462.0","0","0","72421","","256","","","75","51","k","","","","","","","","","","","","","","",""
"","S2","","html-keyboard-response","346","430137","0.0-1.0-463.0","0","0","72421","","null","","","null","51","","NaN","","","","","","","","","","","","","",""
"","response","","html-keyboard-response","347","430244","0.0-1.0-464.0-0.0","0","0","72421","","106","","","75","51","","","2","51","training","adjacent","AB","1","2","P.jpg","Q.jpg","1","1","1","",""
"","feedback","","html-keyboard-response","348","431251","0.0-1.0-465.0-0.0","0","0","72421","","null","","","null","51","","","","","","","","","","","","","","","",""
"","ITI","","html-keyboard-response","349","432259","0.0-1.0-468.0","0","0","72421","","null","","","null","51","","","","","","","","","","","","","","","NaN",""
"","S1","","html-keyboard-response","350","432417","0.0-1.0-470.0","0","0","72421","","null","","","null","52","","","","","","","","","","","","","","","",""
"","ISI","","html-keyboard-response","351","434433","0.0-1.0-471.0","0","0","72421","","null","","","null","52","NaN","","","","","","","","","","","","","","",""
"","S2","","html-keyboard-response","352","434591","0.0-1.0-472.0","0","0","72421","","null","","","null","52","","NaN","","","","","","","","","","","","","",""
"","response","","html-keyboard-response","353","435064","0.0-1.0-473.0-0.0","0","0","72421","","472","","","68","52","","","2","52","training","adjacent","DE","4","5","N.jpg","R.jpg","0","1","0","",""
"","feedback","","html-keyboard-response","354","436086","0.0-1.0-474.0-0.0","0","0","72421","","null","","","null","52","","","","","","","","","","","","","","","",""
"","time_out","","html-keyboard-response","355","438132","0.0-1.0-476.0-0.0","0","0","72421","","null","","","null","52","","","","","","","","","","","","","","","",""
"","ITI","","html-keyboard-response","356","439139","0.0-1.0-477.0","0","0","72421","","null","","","null","52","","","","","","","","","","","","","","","NaN",""
"","S1","","html-keyboard-response","357","439328","0.0-1.0-479.0","0","0","72421","","null","","","null","53","","","","","","","","","","","","","","","",""
"","ISI","","html-keyboard-response","358","441362","0.0-1.0-480.0","0","0","72421","","null","","","null","53","NaN","","","","","","","","","","","","","","",""
"","S2","","html-keyboard-response","359","441551","0.0-1.0-481.0","0","0","72421","","null","","","null","53","","NaN","","","","","","","","","","","","","",""
"","response","","html-keyboard-response","360","441673","0.0-1.0-482.0-0.0","0","0","72421","","121","","","68","53","","","2","53","training","adjacent","AB","1","2","P.jpg","Q.jpg","0","1","0","",""
"","feedback","","html-keyboard-response","361","442685","0.0-1.0-483.0-0.0","0","0","72421","","null","","","null","53","","","","","","","","","","","","","","","",""
"","time_out","","html-keyboard-response","362","444700","0.0-1.0-485.0-0.0","0","0","72421","","null","","","null","53","","","","","","","","","","","","","","","",""
"","ITI","","html-keyboard-response","363","445708","0.0-1.0-486.0","0","0","72421","","null","","","null","53","","","","","","","","","","","","","","","NaN",""
"","S1","","html-keyboard-response","364","445864","0.0-1.0-488.0","0","0","72421","","null","","","null","54","","","","","","","","","","","","","","","",""
"","ISI","","html-keyboard-response","365","447911","0.0-1.0-489.0","0","0","72421","","null","","","null","54","NaN","","","","","","","","","","","","","","",""
"","S2","","html-keyboard-response","366","448083","0.0-1.0-490.0","0","0","72421","","null","","","null","54","","NaN","","","","","","","","","","","","","",""
"","response","","html-keyboard-response","367","448339","0.0-1.0-491.0-0.0","0","0","72421","","255","","","75","54","","","2","54","training","adjacent","CB","3","2","L.jpg","Q.jpg","1","0","0","",""
"","feedback","","html-keyboard-response","368","449343","0.0-1.0-492.0-0.0","0","0","72421","","null","","","null","54","","","","","","","","","","","","","","","",""
"","time_out","","html-keyboard-response","369","451356","0.0-1.0-494.0-0.0","0","0","72421","","null","","","null","54","","","","","","","","","","","","","","","",""
"","ITI","","html-keyboard-response","370","452363","0.0-1.0-495.0","0","0","72421","","null","","","null","54","","","","","","","","","","","","","","","NaN",""
"","S1","","html-keyboard-response","371","452521","0.0-1.0-497.0","0","0","72421","","null","","","null","55","","","","","","","","","","","","","","","",""
"","ISI","","html-keyboard-response","372","454537","0.0-1.0-498.0","0","0","72421","","null","","","null","55","NaN","","","","","","","","","","","","","","",""
"","S2","","html-keyboard-response","373","454708","0.0-1.0-499.0","0","0","72421","","null","","","null","55","","NaN","","","","","","","","","","","","","",""
"","response","","html-keyboard-response","374","454822","0.0-1.0-500.0-0.0","0","0","72421","","111","","","68","55","","","2","55","training","adjacent","BC","2","3","Q.jpg","L.jpg","0","1","0","",""
"","feedback","","html-keyboard-response","375","455828","0.0-1.0-501.0-0.0","0","0","72421","","null","","","null","55","","","","","","","","","","","","","","","",""
"","time_out","","html-keyboard-response","376","457840","0.0-1.0-503.0-0.0","0","0","72421","","null","","","null","55","","","","","","","","","","","","","","","",""
"","ITI","","html-keyboard-response","377","458843","0.0-1.0-504.0","0","0","72421","","null","","","null","55","","","","","","","","","","","","","","","NaN",""
"","S1","","html-keyboard-response","378","459001","0.0-1.0-506.0","0","0","72421","","null","","","null","56","","","","","","","","","","","","","","","",""
"","ISI","","html-keyboard-response","379","461020","0.0-1.0-507.0","0","0","72421","","null","","","null","56","NaN","","","","","","","","","","","","","","",""
"","S2","","html-keyboard-response","380","461193","0.0-1.0-508.0","0","0","72421","","null","","","null","56","","NaN","","","","","","","","","","","","","",""
"","response","","html-keyboard-response","381","461348","0.0-1.0-509.0-0.0","0","0","72421","","154","","","68","56","","","2","56","training","adjacent","DE","4","5","N.jpg","R.jpg","0","1","0","",""
"","feedback","","html-keyboard-response","382","462353","0.0-1.0-510.0-0.0","0","0","72421","","null","","","null","56","","","","","","","","","","","","","","","",""
"","time_out","","html-keyboard-response","383","464363","0.0-1.0-512.0-0.0","0","0","72421","","null","","","null","56","","","","","","","","","","","","","","","",""
"","ITI","","html-keyboard-response","384","465368","0.0-1.0-513.0","0","0","72421","","null","","","null","56","","","","","","","","","","","","","","","NaN",""
"","S1","","html-keyboard-response","385","465527","0.0-1.0-515.0","0","0","72421","","null","","","null","57","","","","","","","","","","","","","","","",""
"","ISI","","html-keyboard-response","386","467559","0.0-1.0-516.0","0","0","72421","","null","","","null","57","NaN","","","","","","","","","","","","","","",""
"","S2","","html-keyboard-response","387","467733","0.0-1.0-517.0","0","0","72421","","null","","","null","57","","NaN","","","","","","","","","","","","","",""
"","response","","html-keyboard-response","388","467954","0.0-1.0-518.0-0.0","0","0","72421","","220","","","75","57","","","2","57","training","adjacent","BC","2","3","Q.jpg","L.jpg","1","1","1","",""
"","feedback","","html-keyboard-response","389","468958","0.0-1.0-519.0-0.0","0","0","72421","","null","","","null","57","","","","","","","","","","","","","","","",""
"","ITI","","html-keyboard-response","390","469965","0.0-1.0-522.0","0","0","72421","","null","","","null","57","","","","","","","","","","","","","","","NaN",""
"","S1","","html-keyboard-response","391","470123","0.0-1.0-524.0","0","0","72421","","null","","","null","58","","","","","","","","","","","","","","","",""
"","ISI","","html-keyboard-response","392","472138","0.0-1.0-525.0","0","0","72421","","null","","","null","58","NaN","","","","","","","","","","","","","","",""
"","S2","","html-keyboard-response","393","472295","0.0-1.0-526.0","0","0","72421","","null","","","null","58","","NaN","","","","","","","","","","","","","",""
"","response","","html-keyboard-response","394","472634","0.0-1.0-527.0-0.0","0","0","72421","","337","","","75","58","","","2","58","training","adjacent","DE","4","5","N.jpg","R.jpg","1","1","1","",""
"","feedback","","html-keyboard-response","395","473679","0.0-1.0-528.0-0.0","0","0","72421","","null","","","null","58","","","","","","","","","","","","","","","",""
"","ITI","","html-keyboard-response","396","474687","0.0-1.0-531.0","0","0","72421","","null","","","null","58","","","","","","","","","","","","","","","NaN",""
"","S1","","html-keyboard-response","397","474875","0.0-1.0-533.0","0","0","72421","","null","","","null","59","","","","","","","","","","","","","","","",""
"","ISI","","html-keyboard-response","398","476918","0.0-1.0-534.0","0","0","72421","","null","","","null","59","NaN","","","","","","","","","","","","","","",""
"","S2","","html-keyboard-response","399","477090","0.0-1.0-535.0","0","0","72421","","null","","","null","59","","NaN","","","","","","","","","","","","","",""
"","response","","html-keyboard-response","400","477195","0.0-1.0-536.0-0.0","0","0","72421","","103","","","68","59","","","2","59","training","adjacent","DE","4","5","N.jpg","R.jpg","0","1","0","",""
"","feedback","","html-keyboard-response","401","478208","0.0-1.0-537.0-0.0","0","0","72421","","null","","","null","59","","","","","","","","","","","","","","","",""
"","time_out","","html-keyboard-response","402","480223","0.0-1.0-539.0-0.0","0","0","72421","","null","","","null","59","","","","","","","","","","","","","","","",""
"","ITI","","html-keyboard-response","403","481230","0.0-1.0-540.0","0","0","72421","","null","","","null","59","","","","","","","","","","","","","","","NaN",""
"","S1","","html-keyboard-response","404","481388","0.0-1.0-542.0","0","0","72421","","null","","","null","60","","","","","","","","","","","","","","","",""
"","ISI","","html-keyboard-response","405","483417","0.0-1.0-543.0","0","0","72421","","null","","","null","60","NaN","","","","","","","","","","","","","","",""
"","S2","","html-keyboard-response","406","483606","0.0-1.0-544.0","0","0","72421","","null","","","null","60","","NaN","","","","","","","","","","","","","",""
"","response","","html-keyboard-response","407","483697","0.0-1.0-545.0-0.0","0","0","72421","","90","","","68","60","","","2","60","training","adjacent","DC","4","3","N.jpg","L.jpg","0","0","1","",""
"","feedback","","html-keyboard-response","408","484709","0.0-1.0-546.0-0.0","0","0","72421","","null","","","null","60","","","","","","","","","","","","","","","",""
"","ITI","","html-keyboard-response","409","485718","0.0-1.0-549.0","0","0","72421","","null","","","null","60","","","","","","","","","","","","","","","NaN",""
"","S1","","html-keyboard-response","410","485875","0.0-1.0-551.0","0","0","72421","","null","","","null","61","","","","","","","","","","","","","","","",""
"","ISI","","html-keyboard-response","411","487884","0.0-1.0-552.0","0","0","72421","","null","","","null","61","NaN","","","","","","","","","","","","","","",""
"","S2","","html-keyboard-response","412","488041","0.0-1.0-553.0","0","0","72421","","null","","","null","61","","NaN","","","","","","","","","","","","","",""
"","response","","html-keyboard-response","413","488241","0.0-1.0-554.0-0.0","0","0","72421","","198","","","75","61","","","2","61","training","adjacent","CD","3","4","L.jpg","N.jpg","1","1","1","",""
"","feedback","","html-keyboard-response","414","489267","0.0-1.0-555.0-0.0","0","0","72421","","null","","","null","61","","","","","","","","","","","","","","","",""
"","ITI","","html-keyboard-response","415","490290","0.0-1.0-558.0","0","0","72421","","null","","","null","61","","","","","","","","","","","","","","","NaN",""
"","S1","","html-keyboard-response","416","490478","0.0-1.0-560.0","0","0","72421","","null","","","null","62","","","","","","","","","","","","","","","",""
"","ISI","","html-keyboard-response","417","492511","0.0-1.0-561.0","0","0","72421","","null","","","null","62","NaN","","","","","","","","","","","","","","",""
"","S2","","html-keyboard-response","418","492701","0.0-1.0-562.0","0","0","72421","","null","","","null","62","","NaN","","","","","","","","","","","","","",""
"","response","","html-keyboard-response","419","492985","0.0-1.0-563.0-0.0","0","0","72421","","283","","","75","62","","","2","62","training","adjacent","FG","6","7","O.jpg","M.jpg","1","1","1","",""
"","feedback","","html-keyboard-response","420","493991","0.0-1.0-564.0-0.0","0","0","72421","","null","","","null","62","","","","","","","","","","","","","","","",""
"","ITI","","html-keyboard-response","421","494999","0.0-1.0-567.0","0","0","72421","","null","","","null","62","","","","","","","","","","","","","","","NaN",""
"","S1","","html-keyboard-response","422","495154","0.0-1.0-569.0","0","0","72421","","null","","","null","63","","","","","","","","","","","","","","","",""
"","ISI","","html-keyboard-response","423","497170","0.0-1.0-570.0","0","0","72421","","null","","","null","63","NaN","","","","","","","","","","","","","","",""
"","S2","","html-keyboard-response","424","497327","0.0-1.0-571.0","0","0","72421","","null","","","null","63","","NaN","","","","","","","","","","","","","",""
"","response","","html-keyboard-response","425","497597","0.0-1.0-572.0-0.0","0","0","72421","","268","","","68","63","","","2","63","training","adjacent","FE","6","5","O.jpg","R.jpg","0","0","1","",""
"","feedback","","html-keyboard-response","426","498632","0.0-1.0-573.0-0.0","0","0","72421","","null","","","null","63","","","","","","","","","","","","","","","",""
"","ITI","","html-keyboard-response","427","499652","0.0-1.0-576.0","0","0","72421","","null","","","null","63","","","","","","","","","","","","","","","NaN",""
"","S1","","html-keyboard-response","428","499841","0.0-1.0-578.0","0","0","72421","","null","","","null","64","","","","","","","","","","","","","","","",""
"","ISI","","html-keyboard-response","429","501876","0.0-1.0-579.0","0","0","72421","","null","","","null","64","NaN","","","","","","","","","","","","","","",""
"","S2","","html-keyboard-response","430","502048","0.0-1.0-580.0","0","0","72421","","null","","","null","64","","NaN","","","","","","","","","","","","","",""
"","response","","html-keyboard-response","431","502271","0.0-1.0-581.0-0.0","0","0","72421","","221","","","75","64","","","2","64","training","adjacent","GF","7","6","M.jpg","O.jpg","1","0","0","",""
"","feedback","","html-keyboard-response","432","503276","0.0-1.0-582.0-0.0","0","0","72421","","null","","","null","64","","","","","","","","","","","","","","","",""
"","time_out","","html-keyboard-response","433","505287","0.0-1.0-584.0-0.0","0","0","72421","","null","","","null","64","","","","","","","","","","","","","","","",""
"","ITI","","html-keyboard-response","434","506296","0.0-1.0-585.0","0","0","72421","","850","","","75","64","","","","","","","","","","","","","","","k",""
"","S1","","html-keyboard-response","435","506453","0.0-1.0-587.0","0","0","72421","","null","","","null","65","","","","","","","","","","","","","","","",""
"","ISI","","html-keyboard-response","436","508470","0.0-1.0-588.0","0","0","72421","","null","","","null","65","NaN","","","","","","","","","","","","","","",""
"","S2","","html-keyboard-response","437","508653","0.0-1.0-589.0","0","0","72421","","null","","","null","65","","NaN","","","","","","","","","","","","","",""
"","response","","html-keyboard-response","438","508670","0.0-1.0-590.0-0.0","0","0","72421","","15","","","75","65","","","2","65","training","adjacent","BC","2","3","Q.jpg","L.jpg","1","1","1","",""
"","feedback","","html-keyboard-response","439","509676","0.0-1.0-591.0-0.0","0","0","72421","","null","","","null","65","","","","","","","","","","","","","","","",""
"","ITI","","html-keyboard-response","440","510682","0.0-1.0-594.0","0","0","72421","","null","","","null","65","","","","","","","","","","","","","","","NaN",""
"","S1","","html-keyboard-response","441","510840","0.0-1.0-596.0","0","0","72421","","null","","","null","66","","","","","","","","","","","","","","","",""
"","ISI","","html-keyboard-response","442","512854","0.0-1.0-597.0","0","0","72421","","null","","","null","66","NaN","","","","","","","","","","","","","","",""
"","S2","","html-keyboard-response","443","513010","0.0-1.0-598.0","0","0","72421","","null","","","null","66","","NaN","","","","","","","","","","","","","",""
"","response","","html-keyboard-response","444","513240","0.0-1.0-599.0-0.0","0","0","72421","","227","","","68","66","","","2","66","training","adjacent","CD","3","4","L.jpg","N.jpg","0","1","0","",""
"","feedback","","html-keyboard-response","445","514270","0.0-1.0-600.0-0.0","0","0","72421","","null","","","null","66","","","","","","","","","","","","","","","",""
"","time_out","","html-keyboard-response","446","516282","0.0-1.0-602.0-0.0","0","0","72421","","null","","","null","66","","","","","","","","","","","","","","","",""
"","ITI","","html-keyboard-response","447","517286","0.0-1.0-603.0","0","0","72421","","null","","","null","66","","","","","","","","","","","","","","","NaN",""
"","S1","","html-keyboard-response","448","517443","0.0-1.0-605.0","0","0","72421","","null","","","null","67","","","","","","","","","","","","","","","",""
"","ISI","","html-keyboard-response","449","519449","0.0-1.0-606.0","0","0","72421","","null","","","null","67","NaN","","","","","","","","","","","","","","",""
"","S2","","html-keyboard-response","450","519606","0.0-1.0-607.0","0","0","72421","","null","","","null","67","","NaN","","","","","","","","","","","","","",""
"","response","","html-keyboard-response","451","519813","0.0-1.0-608.0-0.0","0","0","72421","","206","","","75","67","","","2","67","training","adjacent","BC","2","3","Q.jpg","L.jpg","1","1","1","",""
"","feedback","","html-keyboard-response","452","520832","0.0-1.0-609.0-0.0","0","0","72421","","null","","","null","67","","","","","","","","","","","","","","","",""
"","ITI","","html-keyboard-response","453","521854","0.0-1.0-612.0","0","0","72421","","null","","","null","67","","","","","","","","","","","","","","","NaN",""
"","S1","","html-keyboard-response","454","522027","0.0-1.0-614.0","0","0","72421","","null","","","null","68","","","","","","","","","","","","","","","",""
"","ISI","","html-keyboard-response","455","524043","0.0-1.0-615.0","0","0","72421","","null","","","null","68","NaN","","","","","","","","","","","","","","",""
"","S2","","html-keyboard-response","456","524217","0.0-1.0-616.0","0","0","72421","","null","","","null","68","","NaN","","","","","","","","","","","","","",""
"","response","","html-keyboard-response","457","524404","0.0-1.0-617.0-0.0","0","0","72421","","186","","","68","68","","","2","68","training","adjacent","CB","3","2","L.jpg","Q.jpg","0","0","1","",""
"","feedback","","html-keyboard-response","458","525413","0.0-1.0-618.0-0.0","0","0","72421","","null","","","null","68","","","","","","","","","","","","","","","",""
"","ITI","","html-keyboard-response","459","526425","0.0-1.0-621.0","0","0","72421","","null","","","null","68","","","","","","","","","","","","","","","NaN",""
"","S1","","html-keyboard-response","460","526582","0.0-1.0-623.0","0","0","72421","","null","","","null","69","","","","","","","","","","","","","","","",""
"","ISI","","html-keyboard-response","461","528596","0.0-1.0-624.0","0","0","72421","","null","","","null","69","NaN","","","","","","","","","","","","","","",""
"","S2","","html-keyboard-response","462","528758","0.0-1.0-625.0","0","0","72421","","null","","","null","69","","NaN","","","","","","","","","","","","","",""
"","response","","html-keyboard-response","463","529010","0.0-1.0-626.0-0.0","0","0","72421","","249","","","75","69","","","2","69","training","adjacent","ED","5","4","R.jpg","N.jpg","1","0","0","",""
"","feedback","","html-keyboard-response","464","530048","0.0-1.0-627.0-0.0","0","0","72421","","null","","","null","69","","","","","","","","","","","","","","","",""
"","time_out","","html-keyboard-response","465","532079","0.0-1.0-629.0-0.0","0","0","72421","","null","","","null","69","","","","","","","","","","","","","","","",""
"","ITI","","html-keyboard-response","466","533101","0.0-1.0-630.0","0","0","72421","","null","","","null","69","","","","","","","","","","","","","","","NaN",""
"","S1","","html-keyboard-response","467","533290","0.0-1.0-632.0","0","0","72421","","null","","","null","70","","","","","","","","","","","","","","","",""
"","ISI","","html-keyboard-response","468","535321","0.0-1.0-633.0","0","0","72421","","null","","","null","70","NaN","","","","","","","","","","","","","","",""
"","S2","","html-keyboard-response","469","535510","0.0-1.0-634.0","0","0","72421","","null","","","null","70","","NaN","","","","","","","","","","","","","",""
"","response","","html-keyboard-response","470","535679","0.0-1.0-635.0-0.0","0","0","72421","","167","","","75","70","","","2","70","training","adjacent","EF","5","6","R.jpg","O.jpg","1","1","1","",""
"","feedback","","html-keyboard-response","471","536687","0.0-1.0-636.0-0.0","0","0","72421","","null","","","null","70","","","","","","","","","","","","","","","",""
"","ITI","","html-keyboard-response","472","537694","0.0-1.0-639.0","0","0","72421","","null","","","null","70","","","","","","","","","","","","","","","NaN",""
"","S1","","html-keyboard-response","473","537851","0.0-1.0-641.0","0","0","72421","","null","","","null","71","","","","","","","","","","","","","","","",""
"","ISI","","html-keyboard-response","474","539864","0.0-1.0-642.0","0","0","72421","","null","","","null","71","NaN","","","","","","","","","","","","","","",""
"","S2","","html-keyboard-response","475","540021","0.0-1.0-643.0","0","0","72421","","null","","","null","71","","NaN","","","","","","","","","","","","","",""
"","response","","html-keyboard-response","476","540277","0.0-1.0-644.0-0.0","0","0","72421","","255","","","68","71","","","2","71","training","adjacent","AB","1","2","P.jpg","Q.jpg","0","1","0","",""
"","feedback","","html-keyboard-response","477","541296","0.0-1.0-645.0-0.0","0","0","72421","","null","","","null","71","","","","","","","","","","","","","","","",""
"","time_out","","html-keyboard-response","478","543327","0.0-1.0-647.0-0.0","0","0","72421","","null","","","null","71","","","","","","","","","","","","","","","",""
"","ITI","","html-keyboard-response","479","544349","0.0-1.0-648.0","0","0","72421","","null","","","null","71","","","","","","","","","","","","","","","NaN",""
"","S1","","html-keyboard-response","480","544537","0.0-1.0-650.0","0","0","72421","","null","","","null","72","","","","","","","","","","","","","","","",""
"","ISI","","html-keyboard-response","481","546567","0.0-1.0-651.0","0","0","72421","","null","","","null","72","NaN","","","","","","","","","","","","","","",""
"","S2","","html-keyboard-response","482","546755","0.0-1.0-652.0","0","0","72421","","null","","","null","72","","NaN","","","","","","","","","","","","","",""
"","response","","html-keyboard-response","483","547087","0.0-1.0-653.0-0.0","0","0","72421","","331","","","75","72","","","2","72","training","adjacent","ED","5","4","R.jpg","N.jpg","1","0","0","",""
"","feedback","","html-keyboard-response","484","548093","0.0-1.0-654.0-0.0","0","0","72421","","null","","","null","72","","","","","","","","","","","","","","","",""
"","time_out","","html-keyboard-response","485","550112","0.0-1.0-656.0-0.0","0","0","72421","","null","","","null","72","","","","","","","","","","","","","","","",""
"","ITI","","html-keyboard-response","486","551117","0.0-1.0-657.0","0","0","72421","","null","","","null","72","","","","","","","","","","","","","","","NaN",""
"","S1","","html-keyboard-response","487","551274","0.0-1.0-659.0","0","0","72421","","null","","","null","73","","","","","","","","","","","","","","","",""
"","ISI","","html-keyboard-response","488","553299","0.0-1.0-660.0","0","0","72421","","null","","","null","73","NaN","","","","","","","","","","","","","","",""
"","S2","","html-keyboard-response","489","553474","0.0-1.0-661.0","0","0","72421","","null","","","null","73","","NaN","","","","","","","","","","","","","",""
"","response","","html-keyboard-response","490","553700","0.0-1.0-662.0-0.0","0","0","72421","","225","","","68","73","","","2","73","training","adjacent","CB","3","2","L.jpg","Q.jpg","0","0","1","",""
"","feedback","","html-keyboard-response","491","554712","0.0-1.0-663.0-0.0","0","0","72421","","null","","","null","73","","","","","","","","","","","","","","","",""
"","ITI","","html-keyboard-response","492","555721","0.0-1.0-666.0","0","0","72421","","null","","","null","73","","","","","","","","","","","","","","","NaN",""
"","S1","","html-keyboard-response","493","555877","0.0-1.0-668.0","0","0","72421","","null","","","null","74","","","","","","","","","","","","","","","",""
"","ISI","","html-keyboard-response","494","557890","0.0-1.0-669.0","0","0","72421","","989","","","75","74","k","","","","","","","","","","","","","","",""
"","S2","","html-keyboard-response","495","558047","0.0-1.0-670.0","0","0","72421","","null","","","null","74","","NaN","","","","","","","","","","","","","",""
"","response","","html-keyboard-response","496","558401","0.0-1.0-671.0-0.0","0","0","72421","","353","","","75","74","","","2","74","training","adjacent","DC","4","3","N.jpg","L.jpg","1","0","0","",""
"","feedback","","html-keyboard-response","497","559415","0.0-1.0-672.0-0.0","0","0","72421","","null","","","null","74","","","","","","","","","","","","","","","",""
"","time_out","","html-keyboard-response","498","561432","0.0-1.0-674.0-0.0","0","0","72421","","null","","","null","74","","","","","","","","","","","","","","","",""
"","ITI","","html-keyboard-response","499","562438","0.0-1.0-675.0","0","0","72421","","null","","","null","74","","","","","","","","","","","","","","","NaN",""
"","S1","","html-keyboard-response","500","562627","0.0-1.0-677.0","0","0","72421","","null","","","null","75","","","","","","","","","","","","","","","",""
"","ISI","","html-keyboard-response","501","564659","0.0-1.0-678.0","0","0","72421","","null","","","null","75","NaN","","","","","","","","","","","","","","",""
"","S2","","html-keyboard-response","502","564848","0.0-1.0-679.0","0","0","72421","","null","","","null","75","","NaN","","","","","","","","","","","","","",""
"","response","","html-keyboard-response","503","565005","0.0-1.0-680.0-0.0","0","0","72421","","154","","","68","75","","","2","75","training","adjacent","FE","6","5","O.jpg","R.jpg","0","0","1","",""
"","feedback","","html-keyboard-response","504","566012","0.0-1.0-681.0-0.0","0","0","72421","","null","","","null","75","","","","","","","","","","","","","","","",""
"","ITI","","html-keyboard-response","505","567017","0.0-1.0-684.0","0","0","72421","","null","","","null","75","","","","","","","","","","","","","","","NaN",""
"","S1","","html-keyboard-response","506","567174","0.0-1.0-686.0","0","0","72421","","null","","","null","76","","","","","","","","","","","","","","","",""
"","ISI","","html-keyboard-response","507","569191","0.0-1.0-687.0","0","0","72421","","null","","","null","76","NaN","","","","","","","","","","","","","","",""
"","S2","","html-keyboard-response","508","569348","0.0-1.0-688.0","0","0","72421","","null","","","null","76","","NaN","","","","","","","","","","","","","",""
"","response","","html-keyboard-response","509","570158","0.0-1.0-689.0-0.0","0","0","72421","","809","","","68","76","","","2","76","training","adjacent","GF","7","6","M.jpg","O.jpg","0","0","1","",""
"","feedback","","html-keyboard-response","510","571173","0.0-1.0-690.0-0.0","0","0","72421","","null","","","null","76","","","","","","","","","","","","","","","",""
"","ITI","","html-keyboard-response","511","572183","0.0-1.0-693.0","0","0","72421","","null","","","null","76","","","","","","","","","","","","","","","NaN",""
"","S1","","html-keyboard-response","512","572340","0.0-1.0-695.0","0","0","72421","","null","","","null","77","","","","","","","","","","","","","","","",""
"","ISI","","html-keyboard-response","513","574357","0.0-1.0-696.0","0","0","72421","","null","","","null","77","NaN","","","","","","","","","","","","","","",""
"","S2","","html-keyboard-response","514","574513","0.0-1.0-697.0","0","0","72421","","null","","","null","77","","NaN","","","","","","","","","","","","","",""
"","response","","html-keyboard-response","515","574656","0.0-1.0-698.0-0.0","0","0","72421","","142","","","68","77","","","2","77","training","adjacent","BA","2","1","Q.jpg","P.jpg","0","0","1","",""
"","feedback","","html-keyboard-response","516","575675","0.0-1.0-699.0-0.0","0","0","72421","","null","","","null","77","","","","","","","","","","","","","","","",""
"","ITI","","html-keyboard-response","517","576697","0.0-1.0-702.0","0","0","72421","","null","","","null","77","","","","","","","","","","","","","","","NaN",""
"","S1","","html-keyboard-response","518","576871","0.0-1.0-704.0","0","0","72421","","null","","","null","78","","","","","","","","","","","","","","","",""
"","ISI","","html-keyboard-response","519","578889","0.0-1.0-705.0","0","0","72421","","null","","","null","78","NaN","","","","","","","","","","","","","","",""
"","S2","","html-keyboard-response","520","579061","0.0-1.0-706.0","0","0","72421","","null","","","null","78","","NaN","","","","","","","","","","","","","",""
"","response","","html-keyboard-response","521","579155","0.0-1.0-707.0-0.0","0","0","72421","","92","","","75","78","","","2","78","training","adjacent","ED","5","4","R.jpg","N.jpg","1","0","0","",""
"","feedback","","html-keyboard-response","522","580162","0.0-1.0-708.0-0.0","0","0","72421","","null","","","null","78","","","","","","","","","","","","","","","",""
"","time_out","","html-keyboard-response","523","582177","0.0-1.0-710.0-0.0","0","0","72421","","null","","","null","78","","","","","","","","","","","","","","","",""
"","ITI","","html-keyboard-response","524","583183","0.0-1.0-711.0","0","0","72421","","null","","","null","78","","","","","","","","","","","","","","","NaN",""
"","S1","","html-keyboard-response","525","583340","0.0-1.0-713.0","0","0","72421","","null","","","null","79","","","","","","","","","","","","","","","",""
"","ISI","","html-keyboard-response","526","585370","0.0-1.0-714.0","0","0","72421","","null","","","null","79","NaN","","","","","","","","","","","","","","",""
"","S2","","html-keyboard-response","527","585543","0.0-1.0-715.0","0","0","72421","","null","","","null","79","","NaN","","","","","","","","","","","","","",""
"","response","","html-keyboard-response","528","585638","0.0-1.0-716.0-0.0","0","0","72421","","94","","","75","79","","","2","79","training","adjacent","CD","3","4","L.jpg","N.jpg","1","1","1","",""
"","feedback","","html-keyboard-response","529","586644","0.0-1.0-717.0-0.0","0","0","72421","","null","","","null","79","","","","","","","","","","","","","","","",""
"","ITI","","html-keyboard-response","530","587652","0.0-1.0-720.0","0","0","72421","","null","","","null","79","","","","","","","","","","","","","","","NaN",""
"","S1","","html-keyboard-response","531","587809","0.0-1.0-722.0","0","0","72421","","null","","","null","80","","","","","","","","","","","","","","","",""
"","ISI","","html-keyboard-response","532","589813","0.0-1.0-723.0","0","0","72421","","null","","","null","80","NaN","","","","","","","","","","","","","","",""
"","S2","","html-keyboard-response","533","589971","0.0-1.0-724.0","0","0","72421","","null","","","null","80","","NaN","","","","","","","","","","","","","",""
"","response","","html-keyboard-response","534","590171","0.0-1.0-725.0-0.0","0","0","72421","","199","","","75","80","","","2","80","training","adjacent","BA","2","1","Q.jpg","P.jpg","1","0","0","",""
"","feedback","","html-keyboard-response","535","591183","0.0-1.0-726.0-0.0","0","0","72421","","null","","","null","80","","","","","","","","","","","","","","","",""
"","time_out","","html-keyboard-response","536","593196","0.0-1.0-728.0-0.0","0","0","72421","","null","","","null","80","","","","","","","","","","","","","","","",""
"","ITI","","html-keyboard-response","537","594220","0.0-1.0-729.0","0","0","72421","","null","","","null","80","","","","","","","","","","","","","","","NaN",""
"","S1","","html-keyboard-response","538","594393","0.0-1.0-731.0","0","0","72421","","null","","","null","81","","","","","","","","","","","","","","","",""
"","ISI","","html-keyboard-response","539","596409","0.0-1.0-732.0","0","0","72421","","null","","","null","81","NaN","","","","","","","","","","","","","","",""
"","S2","","html-keyboard-response","540","596582","0.0-1.0-733.0","0","0","72421","","null","","","null","81","","NaN","","","","","","","","","","","","","",""
"","response","","html-keyboard-response","541","596880","0.0-1.0-734.0-0.0","0","0","72421","","297","","","68","81","","","2","81","training","adjacent","FE","6","5","O.jpg","R.jpg","0","0","1","",""
"","feedback","","html-keyboard-response","542","597888","0.0-1.0-735.0-0.0","0","0","72421","","null","","","null","81","","","","","","","","","","","","","","","",""
"","ITI","","html-keyboard-response","543","598895","0.0-1.0-738.0","0","0","72421","","null","","","null","81","","","","","","","","","","","","","","","NaN",""
"","S1","","html-keyboard-response","544","599051","0.0-1.0-740.0","0","0","72421","","null","","","null","82","","","","","","","","","","","","","","","",""
"","ISI","","html-keyboard-response","545","601066","0.0-1.0-741.0","0","0","72421","","null","","","null","82","NaN","","","","","","","","","","","","","","",""
"","S2","","html-keyboard-response","546","601223","0.0-1.0-742.0","0","0","72421","","null","","","null","82","","NaN","","","","","","","","","","","","","",""
"","response","","html-keyboard-response","547","601502","0.0-1.0-743.0-0.0","0","0","72421","","276","","","68","82","","","2","82","training","adjacent","AB","1","2","P.jpg","Q.jpg","0","1","0","",""
"","feedback","","html-keyboard-response","548","602526","0.0-1.0-744.0-0.0","0","0","72421","","null","","","null","82","","","","","","","","","","","","","","","",""
"","time_out","","html-keyboard-response","549","604560","0.0-1.0-746.0-0.0","0","0","72421","","null","","","null","82","","","","","","","","","","","","","","","",""
"","ITI","","html-keyboard-response","550","605583","0.0-1.0-747.0","0","0","72421","","null","","","null","82","","","","","","","","","","","","","","","NaN",""
"","S1","","html-keyboard-response","551","605770","0.0-1.0-749.0","0","0","72421","","null","","","null","83","","","","","","","","","","","","","","","",""
"","ISI","","html-keyboard-response","552","607802","0.0-1.0-750.0","0","0","72421","","null","","","null","83","NaN","","","","","","","","","","","","","","",""
"","S2","","html-keyboard-response","553","607990","0.0-1.0-751.0","0","0","72421","","null","","","null","83","","NaN","","","","","","","","","","","","","",""
"","response","","html-keyboard-response","554","608280","0.0-1.0-752.0-0.0","0","0","72421","","288","","","75","83","","","2","83","training","adjacent","FG","6","7","O.jpg","M.jpg","1","1","1","",""
"","feedback","","html-keyboard-response","555","609296","0.0-1.0-753.0-0.0","0","0","72421","","null","","","null","83","","","","","","","","","","","","","","","",""
"","ITI","","html-keyboard-response","556","610303","0.0-1.0-756.0","0","0","72421","","null","","","null","83","","","","","","","","","","","","","","","NaN",""
"","S1","","html-keyboard-response","557","610460","0.0-1.0-758.0","0","0","72421","","null","","","null","84","","","","","","","","","","","","","","","",""
"","ISI","","html-keyboard-response","558","612476","0.0-1.0-759.0","0","0","72421","","null","","","null","84","NaN","","","","","","","","","","","","","","",""
"","S2","","html-keyboard-response","559","612632","0.0-1.0-760.0","0","0","72421","","null","","","null","84","","NaN","","","","","","","","","","","","","",""
"","response","","html-keyboard-response","560","612930","0.0-1.0-761.0-0.0","0","0","72421","","296","","","68","84","","","2","84","training","adjacent","EF","5","6","R.jpg","O.jpg","0","1","0","",""
"","feedback","","html-keyboard-response","561","613955","0.0-1.0-762.0-0.0","0","0","72421","","null","","","null","84","","","","","","","","","","","","","","","",""
"","time_out","","html-keyboard-response","562","616002","0.0-1.0-764.0-0.0","0","0","72421","","null","","","null","84","","","","","","","","","","","","","","","",""
"","ITI","","html-keyboard-response","563","617011","0.0-1.0-765.0","0","0","72421","","null","","","null","84","","","","","","","","","","","","","","","NaN",""
"","S1","","html-keyboard-response","564","617200","0.0-1.0-767.0","0","0","72421","","null","","","null","85","","","","","","","","","","","","","","","",""
"","ISI","","html-keyboard-response","565","619211","0.0-1.0-768.0","0","0","72421","","361","","","68","85","d","","","","","","","","","","","","","","",""
"","S2","","html-keyboard-response","566","619367","0.0-1.0-769.0","0","0","72421","","null","","","null","85","","NaN","","","","","","","","","","","","","",""
"","response","","html-keyboard-response","567","619784","0.0-1.0-770.0-0.0","0","0","72421","","415","","","75","85","","","2","85","training","adjacent","DC","4","3","N.jpg","L.jpg","1","0","0","",""
"","feedback","","html-keyboard-response","568","620795","0.0-1.0-771.0-0.0","0","0","72421","","null","","","null","85","","","","","","","","","","","","","","","",""
"","time_out","","html-keyboard-response","569","622841","0.0-1.0-773.0-0.0","0","0","72421","","null","","","null","85","","","","","","","","","","","","","","","",""
"","ITI","","html-keyboard-response","570","623850","0.0-1.0-774.0","0","0","72421","","null","","","null","85","","","","","","","","","","","","","","","NaN",""
"","S1","","html-keyboard-response","571","624038","0.0-1.0-776.0","0","0","72421","","null","","","null","86","","","","","","","","","","","","","","","",""
"","ISI","","html-keyboard-response","572","626074","0.0-1.0-777.0","0","0","72421","","null","","","null","86","NaN","","","","","","","","","","","","","","",""
"","S2","","html-keyboard-response","573","626247","0.0-1.0-778.0","0","0","72421","","null","","","null","86","","NaN","","","","","","","","","","","","","",""
"","response","","html-keyboard-response","574","626386","0.0-1.0-779.0-0.0","0","0","72421","","137","","","68","86","","","2","86","training","adjacent","ED","5","4","R.jpg","N.jpg","0","0","1","",""
"","feedback","","html-keyboard-response","575","627396","0.0-1.0-780.0-0.0","0","0","72421","","null","","","null","86","","","","","","","","","","","","","","","",""
"","ITI","","html-keyboard-response","576","628401","0.0-1.0-783.0","0","0","72421","","null","","","null","86","","","","","","","","","","","","","","","NaN",""
"","S1","","html-keyboard-response","577","628560","0.0-1.0-785.0","0","0","72421","","null","","","null","87","","","","","","","","","","","","","","","",""
"","ISI","","html-keyboard-response","578","630576","0.0-1.0-786.0","0","0","72421","","null","","","null","87","NaN","","","","","","","","","","","","","","",""
"","S2","","html-keyboard-response","579","630733","0.0-1.0-787.0","0","0","72421","","null","","","null","87","","NaN","","","","","","","","","","","","","",""
"","response","","html-keyboard-response","580","630984","0.0-1.0-788.0-0.0","0","0","72421","","249","","","75","87","","","2","87","training","adjacent","BA","2","1","Q.jpg","P.jpg","1","0","0","",""
