"success","ttype","start_time","trial_type","trial_index","time_elapsed","internal_node_id","warning","missed_checkup","PID","view_history","rt","responses","repeat_instructions","key_press","index","keypress_isi","keypress_S2","block","trial_num","phase","group_type","pair_type","S1_stim","S2_stim","S1_img","S2_img","S1_chosen","S1_higher","accuracy","keypress_iti","total_bonus_tally"
"true","full_screen","d08012022hr2004","fullscreen","0","12028","0.0-0.0","0","0","75093","","","","","","","","","","","","","","","","","","","","","",""
"","instructions","","instructions","1","23062","0.0-1.0-0.0-0.0","0","0","75093","[{""page_index"":0,""viewing_time"":4489},{""page_index"":1,""viewing_time"":4382},{""page_index"":2,""viewing_time"":1595},{""page_index"":3,""viewing_time"":566}]","11032","","","","","","","","","","","","","","","","","","","",""
"","comprehension_check","","survey-multi-choice","2","35897","0.0-1.0-0.0-1.0","0","0","75093","","12832","{""Q0"":""True"",""Q1"":""D"",""Q2"":""When you see the prompt 'MAKE A CHOICE' after the second image was presented"",""Q3"":""Green mark"",""Q4"":""either D or K""}","1","","","","","","","","","","","","","","","","","",""
"","missed_instruction_checkup","","html-keyboard-response","3","37378","0.0-1.0-0.0-2.0-0.0","0","1","75093","","1477","","","32","","","","","","","","","","","","","","","","",""
"","instructions","","instructions","4","53380","0.0-1.0-0.1-0.1","0","0","75093","[{""page_index"":0,""viewing_time"":3208},{""page_index"":1,""viewing_time"":8022},{""page_index"":2,""viewing_time"":3995},{""page_index"":3,""viewing_time"":776}]","16001","","","","","","","","","","","","","","","","","","","",""
"","comprehension_check","","survey-multi-choice","5","65820","0.0-1.0-0.1-1.1","0","0","75093","","12437","{""Q0"":""True"",""Q1"":""K"",""Q2"":""When you see the prompt 'MAKE A CHOICE' after the second image was presented"",""Q3"":""Green mark"",""Q4"":""either D or K""}","0","","","","","","","","","","","","","","","","","",""
"","start_exp","","html-keyboard-response","6","67032","0.0-1.0-1.0","0","0","75093","","1209","","","32","","","","","","","","","","","","","","","","",""
"","S1","","html-keyboard-response","7","67285","0.0-1.0-2.0","0","0","75093","","null","","","null","0","","","","","","","","","","","","","","","",""
"","ISI","","html-keyboard-response","8","69287","0.0-1.0-3.0","0","0","75093","","null","","","null","0","NaN","","","","","","","","","","","","","","",""
"","S2","","html-keyboard-response","9","69539","0.0-1.0-4.0","0","0","75093","","null","","","null","0","","NaN","","","","","","","","","","","","","",""
"","response","","html-keyboard-response","10","71541","0.0-1.0-5.0","0","0","75093","","null","","","null","0","","","1","0","training","adjacent","AB","1","2","P.jpg","Q.jpg","NaN","1","0","",""
"","too_slow_prompt","","html-keyboard-response","11","72544","0.0-1.0-7.0-0.0","1","0","75093","","null","","","null","","","","","","","","","","","","","","","","",""
"","time_out","","html-keyboard-response","12","74547","0.0-1.0-8.0-0.0","0","0","75093","","null","","","null","0","","","","","","","","","","","","","","","",""
"","ITI","","html-keyboard-response","13","75549","0.0-1.0-9.0","0","0","75093","","null","","","null","0","","","","","","","","","","","","","","","NaN",""
"","S1","","html-keyboard-response","14","75802","0.0-1.0-11.0","0","0","75093","","null","","","null","1","","","","","","","","","","","","","","","",""
"","ISI","","html-keyboard-response","15","77804","0.0-1.0-12.0","0","0","75093","","null","","","null","1","NaN","","","","","","","","","","","","","","",""
"","S2","","html-keyboard-response","16","78056","0.0-1.0-13.0","0","0","75093","","107","","","75","1","","k","","","","","","","","","","","","","",""
"","response","","html-keyboard-response","17","78806","0.0-1.0-14.0","0","0","75093","","748","","","75","1","","","1","1","training","adjacent","CD","3","4","N.jpg","O.jpg","1","1","1","",""
"","feedback","","html-keyboard-response","18","79808","0.0-1.0-15.0-0.0","0","0","75093","","null","","","null","1","","","","","","","","","","","","","","","",""
"","ITI","","html-keyboard-response","19","80811","0.0-1.0-18.0","0","0","75093","","null","","","null","1","","","","","","","","","","","","","","","NaN",""
"","S1","","html-keyboard-response","20","81063","0.0-1.0-20.0","0","0","75093","","null","","","null","2","","","","","","","","","","","","","","","",""
"","ISI","","html-keyboard-response","21","83064","0.0-1.0-21.0","0","0","75093","","null","","","null","2","NaN","","","","","","","","","","","","","","",""
"","S2","","html-keyboard-response","22","83316","0.0-1.0-22.0","0","0","75093","","null","","","null","2","","NaN","","","","","","","","","","","","","",""
"","response","","html-keyboard-response","23","83495","0.0-1.0-23.0","0","0","75093","","178","","","68","2","","","1","2","training","adjacent","ED","5","4","M.jpg","O.jpg","0","0","1","",""
"","feedback","","html-keyboard-response","24","84497","0.0-1.0-24.0-0.0","0","0","75093","","null","","","null","2","","","","","","","","","","","","","","","",""
"","ITI","","html-keyboard-response","25","85499","0.0-1.0-27.0","0","0","75093","","280","","","75","2","","","","","","","","","","","","","","","k",""
"","S1","","html-keyboard-response","26","85751","0.0-1.0-29.0","0","0","75093","","null","","","null","3","","","","","","","","","","","","","","","",""
"","ISI","","html-keyboard-response","27","87753","0.0-1.0-30.0","0","0","75093","","382","","","68","3","d","","","","","","","","","","","","","","",""
"","S2","","html-keyboard-response","28","88005","0.0-1.0-31.0","0","0","75093","","54","","","68","3","","d","","","","","","","","","","","","","",""
"","response","","html-keyboard-response","29","88280","0.0-1.0-32.0","0","0","75093","","274","","","68","3","","","1","3","training","adjacent","DC","4","3","O.jpg","N.jpg","0","0","1","",""
"","feedback","","html-keyboard-response","30","89283","0.0-1.0-33.0-0.0","0","0","75093","","null","","","null","3","","","","","","","","","","","","","","","",""
"","ITI","","html-keyboard-response","31","90286","0.0-1.0-36.0","0","0","75093","","343","","","68","3","","","","","","","","","","","","","","","d",""
"","S1","","html-keyboard-response","32","90537","0.0-1.0-38.0","0","0","75093","","null","","","null","4","","","","","","","","","","","","","","","",""
"","ISI","","html-keyboard-response","33","92540","0.0-1.0-39.0","0","0","75093","","404","","","68","4","d","","","","","","","","","","","","","","",""
"","S2","","html-keyboard-response","34","92791","0.0-1.0-40.0","0","0","75093","","18","","","75","4","","k","","","","","","","","","","","","","",""
"","response","","html-keyboard-response","35","93057","0.0-1.0-41.0","0","0","75093","","264","","","75","4","","","1","4","training","adjacent","FG","6","7","L.jpg","R.jpg","1","1","1","",""
"","feedback","","html-keyboard-response","36","94059","0.0-1.0-42.0-0.0","0","0","75093","","null","","","null","4","","","","","","","","","","","","","","","",""
"","ITI","","html-keyboard-response","37","95062","0.0-1.0-45.0","0","0","75093","","751","","","75","4","","","","","","","","","","","","","","","k",""
"","S1","","html-keyboard-response","38","95315","0.0-1.0-47.0","0","0","75093","","null","","","null","5","","","","","","","","","","","","","","","",""
"","ISI","","html-keyboard-response","39","97320","0.0-1.0-48.0","0","0","75093","","447","","","75","5","k","","","","","","","","","","","","","","",""
"","S2","","html-keyboard-response","40","97573","0.0-1.0-49.0","0","0","75093","","null","","","null","5","","NaN","","","","","","","","","","","","","",""
"","response","","html-keyboard-response","41","97628","0.0-1.0-50.0","0","0","75093","","54","","","68","5","","","1","5","training","adjacent","AB","1","2","P.jpg","Q.jpg","0","1","0","",""
"","feedback","","html-keyboard-response","42","98630","0.0-1.0-51.0-0.0","0","0","75093","","null","","","null","5","","","","","","","","","","","","","","","",""
"","time_out","","html-keyboard-response","43","100633","0.0-1.0-53.0-0.0","0","0","75093","","null","","","null","5","","","","","","","","","","","","","","","",""
"","ITI","","html-keyboard-response","44","101635","0.0-1.0-54.0","0","0","75093","","null","","","null","5","","","","","","","","","","","","","","","NaN",""
"","S1","","html-keyboard-response","45","101888","0.0-1.0-56.0","0","0","75093","","null","","","null","6","","","","","","","","","","","","","","","",""
"","ISI","","html-keyboard-response","46","103890","0.0-1.0-57.0","0","0","75093","","32","","","68","6","d","","","","","","","","","","","","","","",""
"","S2","","html-keyboard-response","47","104142","0.0-1.0-58.0","0","0","75093","","null","","","null","6","","NaN","","","","","","","","","","","","","",""
"","response","","html-keyboard-response","48","104191","0.0-1.0-59.0","0","0","75093","","47","","","75","6","","","1","6","training","adjacent","BA","2","1","Q.jpg","P.jpg","1","0","0","",""
"","feedback","","html-keyboard-response","49","105207","0.0-1.0-60.0-0.0","0","0","75093","","null","","","null","6","","","","","","","","","","","","","","","",""
"","time_out","","html-keyboard-response","50","107209","0.0-1.0-62.0-0.0","0","0","75093","","null","","","null","6","","","","","","","","","","","","","","","",""
"","ITI","","html-keyboard-response","51","108211","0.0-1.0-63.0","0","0","75093","","null","","","null","6","","","","","","","","","","","","","","","NaN",""
"","S1","","html-keyboard-response","52","108463","0.0-1.0-65.0","0","0","75093","","null","","","null","7","","","","","","","","","","","","","","","",""
"","ISI","","html-keyboard-response","53","110465","0.0-1.0-66.0","0","0","75093","","null","","","null","7","NaN","","","","","","","","","","","","","","",""
"","S2","","html-keyboard-response","54","110718","0.0-1.0-67.0","0","0","75093","","199","","","68","7","","d","","","","","","","","","","","","","",""
"","response","","html-keyboard-response","55","111739","0.0-1.0-68.0","0","0","75093","","1019","","","68","7","","","1","7","training","adjacent","CB","3","2","N.jpg","Q.jpg","0","0","1","",""
"","feedback","","html-keyboard-response","56","112741","0.0-1.0-69.0-0.0","0","0","75093","","null","","","null","7","","","","","","","","","","","","","","","",""
"","ITI","","html-keyboard-response","57","113743","0.0-1.0-72.0","0","0","75093","","null","","","null","7","","","","","","","","","","","","","","","NaN",""
"","S1","","html-keyboard-response","58","113996","0.0-1.0-74.0","0","0","75093","","null","","","null","8","","","","","","","","","","","","","","","",""
"","ISI","","html-keyboard-response","59","115998","0.0-1.0-75.0","0","0","75093","","263","","","68","8","d","","","","","","","","","","","","","","",""
"","S2","","html-keyboard-response","60","116251","0.0-1.0-76.0","0","0","75093","","null","","","null","8","","NaN","","","","","","","","","","","","","",""
"","response","","html-keyboard-response","61","116495","0.0-1.0-77.0","0","0","75093","","243","","","68","8","","","1","8","training","adjacent","CD","3","4","N.jpg","O.jpg","0","1","0","",""
"","feedback","","html-keyboard-response","62","117498","0.0-1.0-78.0-0.0","0","0","75093","","null","","","null","8","","","","","","","","","","","","","","","",""
"","time_out","","html-keyboard-response","63","119501","0.0-1.0-80.0-0.0","0","0","75093","","null","","","null","8","","","","","","","","","","","","","","","",""
"","ITI","","html-keyboard-response","64","120504","0.0-1.0-81.0","0","0","75093","","null","","","null","8","","","","","","","","","","","","","","","NaN",""
"","S1","","html-keyboard-response","65","120756","0.0-1.0-83.0","0","0","75093","","null","","","null","9","","","","","","","","","","","","","","","",""
"","ISI","","html-keyboard-response","66","122758","0.0-1.0-84.0","0","0","75093","","206","","","75","9","k","","","","","","","","","","","","","","",""
"","S2","","html-keyboard-response","67","123010","0.0-1.0-85.0","0","0","75093","","null","","","null","9","","NaN","","","","","","","","","","","","","",""
"","response","","html-keyboard-response","68","123981","0.0-1.0-86.0","0","0","75093","","970","","","68","9","","","1","9","training","adjacent","EF","5","6","M.jpg","L.jpg","0","1","0","",""
"","feedback","","html-keyboard-response","69","124983","0.0-1.0-87.0-0.0","0","0","75093","","null","","","null","9","","","","","","","","","","","","","","","",""
"","time_out","","html-keyboard-response","70","126987","0.0-1.0-89.0-0.0","0","0","75093","","null","","","null","9","","","","","","","","","","","","","","","",""
"","ITI","","html-keyboard-response","71","127989","0.0-1.0-90.0","0","0","75093","","null","","","null","9","","","","","","","","","","","","","","","NaN",""
"","S1","","html-keyboard-response","72","128241","0.0-1.0-92.0","0","0","75093","","null","","","null","10","","","","","","","","","","","","","","","",""
"","ISI","","html-keyboard-response","73","130244","0.0-1.0-93.0","0","0","75093","","null","","","null","10","NaN","","","","","","","","","","","","","","",""
"","S2","","html-keyboard-response","74","130497","0.0-1.0-94.0","0","0","75093","","null","","","null","10","","NaN","","","","","","","","","","","","","",""
"","response","","html-keyboard-response","75","132499","0.0-1.0-95.0","0","0","75093","","null","","","null","10","","","1","10","training","adjacent","GF","7","6","R.jpg","L.jpg","NaN","0","0","",""
"","too_slow_prompt","","html-keyboard-response","76","133501","0.0-1.0-97.0-0.0","1","0","75093","","null","","","null","","","","","","","","","","","","","","","","",""
"","time_out","","html-keyboard-response","77","135503","0.0-1.0-98.0-0.0","0","0","75093","","null","","","null","10","","","","","","","","","","","","","","","",""
"","ITI","","html-keyboard-response","78","136505","0.0-1.0-99.0","0","0","75093","","null","","","null","10","","","","","","","","","","","","","","","NaN",""
"","S1","","html-keyboard-response","79","136757","0.0-1.0-101.0","0","0","75093","","null","","","null","11","","","","","","","","","","","","","","","",""
"","ISI","","html-keyboard-response","80","138760","0.0-1.0-102.0","0","0","75093","","117","","","74","11","j","","","","","","","","","","","","","","",""
"","S2","","html-keyboard-response","81","139012","0.0-1.0-103.0","0","0","75093","","null","","","null","11","","NaN","","","","","","","","","","","","","",""
"","response","","html-keyboard-response","82","141015","0.0-1.0-104.0","0","0","75093","","null","","","null","11","","","1","11","training","adjacent","DC","4","3","O.jpg","N.jpg","NaN","0","0","",""
"","too_slow_prompt","","html-keyboard-response","83","142017","0.0-1.0-106.0-0.0","1","0","75093","","null","","","null","","","","","","","","","","","","","","","","",""
"","time_out","","html-keyboard-response","84","144026","0.0-1.0-107.0-0.0","0","0","75093","","null","","","null","11","","","","","","","","","","","","","","","",""
"","ITI","","html-keyboard-response","85","145029","0.0-1.0-108.0","0","0","75093","","170","","","74","11","","","","","","","","","","","","","","","j",""
"","S1","","html-keyboard-response","86","145281","0.0-1.0-110.0","0","0","75093","","null","","","null","12","","","","","","","","","","","","","","","",""
"","ISI","","html-keyboard-response","87","147284","0.0-1.0-111.0","0","0","75093","","165","","","74","12","j","","","","","","","","","","","","","","",""
"","S2","","html-keyboard-response","88","147536","0.0-1.0-112.0","0","0","75093","","56","","","74","12","","j","","","","","","","","","","","","","",""
"","response","","html-keyboard-response","89","149538","0.0-1.0-113.0","0","0","75093","","null","","","null","12","","","1","12","training","adjacent","BA","2","1","Q.jpg","P.jpg","NaN","0","0","",""
"","too_slow_prompt","","html-keyboard-response","90","150540","0.0-1.0-115.0-0.0","1","0","75093","","null","","","null","","","","","","","","","","","","","","","","",""
"","time_out","","html-keyboard-response","91","152542","0.0-1.0-116.0-0.0","0","0","75093","","null","","","null","12","","","","","","","","","","","","","","","",""
"","ITI","","html-keyboard-response","92","153544","0.0-1.0-117.0","0","0","75093","","234","","","68","12","","","","","","","","","","","","","","","d",""
"","S1","","html-keyboard-response","93","153797","0.0-1.0-119.0","0","0","75093","","null","","","null","13","","","","","","","","","","","","","","","",""
"","ISI","","html-keyboard-response","94","155799","0.0-1.0-120.0","0","0","75093","","90","","","75","13","k","","","","","","","","","","","","","","",""
"","S2","","html-keyboard-response","95","156052","0.0-1.0-121.0","0","0","75093","","141","","","68","13","","d","","","","","","","","","","","","","",""
"","response","","html-keyboard-response","96","156378","0.0-1.0-122.0","0","0","75093","","325","","","68","13","","","1","13","training","adjacent","ED","5","4","M.jpg","O.jpg","0","0","1","",""
"","feedback","","html-keyboard-response","97","157380","0.0-1.0-123.0-0.0","0","0","75093","","null","","","null","13","","","","","","","","","","","","","","","",""
"","ITI","","html-keyboard-response","98","158383","0.0-1.0-126.0","0","0","75093","","30","","","75","13","","","","","","","","","","","","","","","k",""
"","S1","","html-keyboard-response","99","158636","0.0-1.0-128.0","0","0","75093","","null","","","null","14","","","","","","","","","","","","","","","",""
"","ISI","","html-keyboard-response","100","160637","0.0-1.0-129.0","0","0","75093","","205","","","68","14","d","","","","","","","","","","","","","","",""
"","S2","","html-keyboard-response","101","160889","0.0-1.0-130.0","0","0","75093","","0","","","68","14","","d","","","","","","","","","","","","","",""
"","response","","html-keyboard-response","102","160902","0.0-1.0-131.0","0","0","75093","","11","","","68","14","","","1","14","training","adjacent","BA","2","1","Q.jpg","P.jpg","0","0","1","",""
"","feedback","","html-keyboard-response","103","161904","0.0-1.0-132.0-0.0","0","0","75093","","null","","","null","14","","","","","","","","","","","","","","","",""
"","ITI","","html-keyboard-response","104","162906","0.0-1.0-135.0","0","0","75093","","43","","","68","14","","","","","","","","","","","","","","","d",""
"","S1","","html-keyboard-response","105","163158","0.0-1.0-137.0","0","0","75093","","null","","","null","15","","","","","","","","","","","","","","","",""
"","ISI","","html-keyboard-response","106","165161","0.0-1.0-138.0","0","0","75093","","309","","","75","15","k","","","","","","","","","","","","","","",""
"","S2","","html-keyboard-response","107","165413","0.0-1.0-139.0","0","0","75093","","null","","","null","15","","NaN","","","","","","","","","","","","","",""
"","response","","html-keyboard-response","108","165499","0.0-1.0-140.0","0","0","75093","","85","","","68","15","","","1","15","training","adjacent","DE","4","5","O.jpg","M.jpg","0","1","0","",""
"","feedback","","html-keyboard-response","109","166501","0.0-1.0-141.0-0.0","0","0","75093","","null","","","null","15","","","","","","","","","","","","","","","",""
"","time_out","","html-keyboard-response","110","168504","0.0-1.0-143.0-0.0","0","0","75093","","null","","","null","15","","","","","","","","","","","","","","","",""
"","ITI","","html-keyboard-response","111","169506","0.0-1.0-144.0","0","0","75093","","52","","","68","15","","","","","","","","","","","","","","","d",""
"","S1","","html-keyboard-response","112","169757","0.0-1.0-146.0","0","0","75093","","null","","","null","16","","","","","","","","","","","","","","","",""
"","ISI","","html-keyboard-response","113","171760","0.0-1.0-147.0","0","0","75093","","292","","","75","16","k","","","","","","","","","","","","","","",""
"","S2","","html-keyboard-response","114","172012","0.0-1.0-148.0","0","0","75093","","null","","","null","16","","NaN","","","","","","","","","","","","","",""
"","response","","html-keyboard-response","115","172177","0.0-1.0-149.0","0","0","75093","","164","","","68","16","","","1","16","training","adjacent","BA","2","1","Q.jpg","P.jpg","0","0","1","",""
"","feedback","","html-keyboard-response","116","173179","0.0-1.0-150.0-0.0","0","0","75093","","null","","","null","16","","","","","","","","","","","","","","","",""
"","ITI","","html-keyboard-response","117","174181","0.0-1.0-153.0","0","0","75093","","266","","","75","16","","","","","","","","","","","","","","","k",""
"","S1","","html-keyboard-response","118","174433","0.0-1.0-155.0","0","0","75093","","null","","","null","17","","","","","","","","","","","","","","","",""
"","ISI","","html-keyboard-response","119","176436","0.0-1.0-156.0","0","0","75093","","null","","","null","17","NaN","","","","","","","","","","","","","","",""
"","S2","","html-keyboard-response","120","176688","0.0-1.0-157.0","0","0","75093","","null","","","null","17","","NaN","","","","","","","","","","","","","",""
"","response","","html-keyboard-response","121","178624","0.0-1.0-158.0","0","0","75093","","1935","","","68","17","","","1","17","training","adjacent","EF","5","6","M.jpg","L.jpg","0","1","0","",""
"","feedback","","html-keyboard-response","122","179626","0.0-1.0-159.0-0.0","0","0","75093","","null","","","null","17","","","","","","","","","","","","","","","",""
"","time_out","","html-keyboard-response","123","181628","0.0-1.0-161.0-0.0","0","0","75093","","null","","","null","17","","","","","","","","","","","","","","","",""
"","ITI","","html-keyboard-response","124","182630","0.0-1.0-162.0","0","0","75093","","null","","","null","17","","","","","","","","","","","","","","","NaN",""
"","S1","","html-keyboard-response","125","182883","0.0-1.0-164.0","0","0","75093","","null","","","null","18","","","","","","","","","","","","","","","",""
"","ISI","","html-keyboard-response","126","184885","0.0-1.0-165.0","0","0","75093","","null","","","null","18","NaN","","","","","","","","","","","","","","",""
"","S2","","html-keyboard-response","127","185137","0.0-1.0-166.0","0","0","75093","","null","","","null","18","","NaN","","","","","","","","","","","","","",""
"","response","","html-keyboard-response","128","187140","0.0-1.0-167.0","0","0","75093","","null","","","null","18","","","1","18","training","adjacent","EF","5","6","M.jpg","L.jpg","NaN","1","0","",""
"","too_slow_prompt","","html-keyboard-response","129","188141","0.0-1.0-169.0-0.0","1","0","75093","","null","","","null","","","","","","","","","","","","","","","","",""
"","time_out","","html-keyboard-response","130","190143","0.0-1.0-170.0-0.0","0","0","75093","","null","","","null","18","","","","","","","","","","","","","","","",""
"","ITI","","html-keyboard-response","131","191146","0.0-1.0-171.0","0","0","75093","","null","","","null","18","","","","","","","","","","","","","","","NaN",""
"","S1","","html-keyboard-response","132","191399","0.0-1.0-173.0","0","0","75093","","null","","","null","19","","","","","","","","","","","","","","","",""
"","ISI","","html-keyboard-response","133","193401","0.0-1.0-174.0","0","0","75093","","1466","","","68","19","d","","","","","","","","","","","","","","",""
"","S2","","html-keyboard-response","134","193653","0.0-1.0-175.0","0","0","75093","","null","","","null","19","","NaN","","","","","","","","","","","","","",""
"","response","","html-keyboard-response","135","195655","0.0-1.0-176.0","0","0","75093","","null","","","null","19","","","1","19","training","adjacent","FG","6","7","L.jpg","R.jpg","NaN","1","0","",""
"","too_slow_prompt","","html-keyboard-response","136","196656","0.0-1.0-178.0-0.0","1","0","75093","","null","","","null","","","","","","","","","","","","","","","","",""
"","time_out","","html-keyboard-response","137","198658","0.0-1.0-179.0-0.0","0","0","75093","","null","","","null","19","","","","","","","","","","","","","","","",""
"","ITI","","html-keyboard-response","138","199661","0.0-1.0-180.0","0","0","75093","","null","","","null","19","","","","","","","","","","","","","","","NaN",""
"","S1","","html-keyboard-response","139","199913","0.0-1.0-182.0","0","0","75093","","null","","","null","20","","","","","","","","","","","","","","","",""
"","ISI","","html-keyboard-response","140","201927","0.0-1.0-183.0","0","0","75093","","null","","","null","20","NaN","","","","","","","","","","","","","","",""
"","S2","","html-keyboard-response","141","202180","0.0-1.0-184.0","0","0","75093","","null","","","null","20","","NaN","","","","","","","","","","","","","",""
"","response","","html-keyboard-response","142","203447","0.0-1.0-185.0","0","0","75093","","1266","","","68","20","","","1","20","training","adjacent","FE","6","5","L.jpg","M.jpg","0","0","1","",""
"","feedback","","html-keyboard-response","143","204450","0.0-1.0-186.0-0.0","0","0","75093","","null","","","null","20","","","","","","","","","","","","","","","",""
"","ITI","","html-keyboard-response","144","205451","0.0-1.0-189.0","0","0","75093","","null","","","null","20","","","","","","","","","","","","","","","NaN",""
"","S1","","html-keyboard-response","145","205704","0.0-1.0-191.0","0","0","75093","","null","","","null","21","","","","","","","","","","","","","","","",""
"","ISI","","html-keyboard-response","146","207706","0.0-1.0-192.0","0","0","75093","","627","","","68","21","d","","","","","","","","","","","","","","",""
"","S2","","html-keyboard-response","147","207958","0.0-1.0-193.0","0","0","75093","","8","","","75","21","","k","","","","","","","","","","","","","",""
"","response","","html-keyboard-response","148","208259","0.0-1.0-194.0","0","0","75093","","300","","","68","21","","","1","21","training","adjacent","FE","6","5","L.jpg","M.jpg","0","0","1","",""
"","feedback","","html-keyboard-response","149","209261","0.0-1.0-195.0-0.0","0","0","75093","","null","","","null","21","","","","","","","","","","","","","","","",""
"","ITI","","html-keyboard-response","150","210262","0.0-1.0-198.0","0","0","75093","","390","","","75","21","","","","","","","","","","","","","","","k",""
"","S1","","html-keyboard-response","151","210514","0.0-1.0-200.0","0","0","75093","","null","","","null","22","","","","","","","","","","","","","","","",""
"","ISI","","html-keyboard-response","152","212515","0.0-1.0-201.0","0","0","75093","","199","","","75","22","k","","","","","","","","","","","","","","",""
"","S2","","html-keyboard-response","153","212768","0.0-1.0-202.0","0","0","75093","","104","","","75","22","","k","","","","","","","","","","","","","",""
"","response","","html-keyboard-response","154","212884","0.0-1.0-203.0","0","0","75093","","115","","","75","22","","","1","22","training","adjacent","AB","1","2","P.jpg","Q.jpg","1","1","1","",""
"","feedback","","html-keyboard-response","155","213886","0.0-1.0-204.0-0.0","0","0","75093","","null","","","null","22","","","","","","","","","","","","","","","",""
"","ITI","","html-keyboard-response","156","214887","0.0-1.0-207.0","0","0","75093","","null","","","null","22","","","","","","","","","","","","","","","NaN",""
"","S1","","html-keyboard-response","157","215140","0.0-1.0-209.0","0","0","75093","","null","","","null","23","","","","","","","","","","","","","","","",""
"","ISI","","html-keyboard-response","158","217142","0.0-1.0-210.0","0","0","75093","","271","","","68","23","d","","","","","","","","","","","","","","",""
"","S2","","html-keyboard-response","159","217394","0.0-1.0-211.0","0","0","75093","","null","","","null","23","","NaN","","","","","","","","","","","","","",""
"","response","","html-keyboard-response","160","219395","0.0-1.0-212.0","0","0","75093","","null","","","null","23","","","1","23","training","adjacent","DE","4","5","O.jpg","M.jpg","NaN","1","0","",""
"","too_slow_prompt","","html-keyboard-response","161","220397","0.0-1.0-214.0-0.0","1","0","75093","","null","","","null","","","","","","","","","","","","","","","","",""
"","time_out","","html-keyboard-response","162","222399","0.0-1.0-215.0-0.0","0","0","75093","","null","","","null","23","","","","","","","","","","","","","","","",""
"","ITI","","html-keyboard-response","163","223400","0.0-1.0-216.0","0","0","75093","","null","","","null","23","","","","","","","","","","","","","","","NaN",""
"","S1","","html-keyboard-response","164","223655","0.0-1.0-218.0","0","0","75093","","null","","","null","24","","","","","","","","","","","","","","","",""
"","ISI","","html-keyboard-response","165","225659","0.0-1.0-219.0","0","0","75093","","null","","","null","24","NaN","","","","","","","","","","","","","","",""
"","S2","","html-keyboard-response","166","225912","0.0-1.0-220.0","0","0","75093","","null","","","null","24","","NaN","","","","","","","","","","","","","",""
"","response","","html-keyboard-response","167","227915","0.0-1.0-221.0","0","0","75093","","null","","","null","24","","","1","24","training","adjacent","FG","6","7","L.jpg","R.jpg","NaN","1","0","",""
"","too_slow_prompt","","html-keyboard-response","168","228918","0.0-1.0-223.0-0.0","1","0","75093","","null","","","null","","","","","","","","","","","","","","","","",""
"","time_out","","html-keyboard-response","169","230919","0.0-1.0-224.0-0.0","0","0","75093","","null","","","null","24","","","","","","","","","","","","","","","",""
"","ITI","","html-keyboard-response","170","231922","0.0-1.0-225.0","0","0","75093","","287","","","174","24","","","","","","","","","","","","","","","",""
"","S1","","html-keyboard-response","171","232174","0.0-1.0-227.0","0","0","75093","","null","","","null","25","","","","","","","","","","","","","","","",""
"","ISI","","html-keyboard-response","172","234177","0.0-1.0-228.0","0","0","75093","","1272","","","68","25","d","","","","","","","","","","","","","","",""
"","S2","","html-keyboard-response","173","234428","0.0-1.0-229.0","0","0","75093","","36","","","68","25","","d","","","","","","","","","","","","","",""
"","response","","html-keyboard-response","174","234563","0.0-1.0-230.0","0","0","75093","","133","","","75","25","","","1","25","training","adjacent","FE","6","5","L.jpg","M.jpg","1","0","0","",""
"","feedback","","html-keyboard-response","175","235565","0.0-1.0-231.0-0.0","0","0","75093","","null","","","null","25","","","","","","","","","","","","","","","",""
"","time_out","","html-keyboard-response","176","237567","0.0-1.0-233.0-0.0","0","0","75093","","null","","","null","25","","","","","","","","","","","","","","","",""
"","ITI","","html-keyboard-response","177","238583","0.0-1.0-234.0","0","0","75093","","null","","","null","25","","","","","","","","","","","","","","","NaN",""
"","S1","","html-keyboard-response","178","238836","0.0-1.0-236.0","0","0","75093","","null","","","null","26","","","","","","","","","","","","","","","",""
"","ISI","","html-keyboard-response","179","240837","0.0-1.0-237.0","0","0","75093","","252","","","75","26","k","","","","","","","","","","","","","","",""
"","S2","","html-keyboard-response","180","241090","0.0-1.0-238.0","0","0","75093","","6","","","68","26","","d","","","","","","","","","","","","","",""
"","response","","html-keyboard-response","181","241156","0.0-1.0-239.0","0","0","75093","","65","","","75","26","","","1","26","training","adjacent","DC","4","3","O.jpg","N.jpg","1","0","0","",""
"","feedback","","html-keyboard-response","182","242172","0.0-1.0-240.0-0.0","0","0","75093","","null","","","null","26","","","","","","","","","","","","","","","",""
"","time_out","","html-keyboard-response","183","244174","0.0-1.0-242.0-0.0","0","0","75093","","null","","","null","26","","","","","","","","","","","","","","","",""
"","ITI","","html-keyboard-response","184","245177","0.0-1.0-243.0","0","0","75093","","13","","","75","26","","","","","","","","","","","","","","","k",""
"","S1","","html-keyboard-response","185","245429","0.0-1.0-245.0","0","0","75093","","null","","","null","27","","","","","","","","","","","","","","","",""
"","ISI","","html-keyboard-response","186","247430","0.0-1.0-246.0","0","0","75093","","205","","","75","27","k","","","","","","","","","","","","","","",""
"","S2","","html-keyboard-response","187","247684","0.0-1.0-247.0","0","0","75093","","null","","","null","27","","NaN","","","","","","","","","","","","","",""
"","response","","html-keyboard-response","188","247704","0.0-1.0-248.0","0","0","75093","","20","","","75","27","","","1","27","training","adjacent","FE","6","5","L.jpg","M.jpg","1","0","0","",""
"","feedback","","html-keyboard-response","189","248706","0.0-1.0-249.0-0.0","0","0","75093","","null","","","null","27","","","","","","","","","","","","","","","",""
"","time_out","","html-keyboard-response","190","250708","0.0-1.0-251.0-0.0","0","0","75093","","null","","","null","27","","","","","","","","","","","","","","","",""
"","ITI","","html-keyboard-response","191","251710","0.0-1.0-252.0","0","0","75093","","49","","","75","27","","","","","","","","","","","","","","","k",""
"","S1","","html-keyboard-response","192","251963","0.0-1.0-254.0","0","0","75093","","null","","","null","28","","","","","","","","","","","","","","","",""
"","ISI","","html-keyboard-response","193","253965","0.0-1.0-255.0","0","0","75093","","25","","","68","28","d","","","","","","","","","","","","","","",""
"","S2","","html-keyboard-response","194","254218","0.0-1.0-256.0","0","0","75093","","null","","","null","28","","NaN","","","","","","","","","","","","","",""
"","response","","html-keyboard-response","195","254815","0.0-1.0-257.0","0","0","75093","","597","","","75","28","","","1","28","training","adjacent","BC","2","3","Q.jpg","N.jpg","1","1","1","",""
"","feedback","","html-keyboard-response","196","255818","0.0-1.0-258.0-0.0","0","0","75093","","null","","","null","28","","","","","","","","","","","","","","","",""
"","ITI","","html-keyboard-response","197","256820","0.0-1.0-261.0","0","0","75093","","218","","","75","28","","","","","","","","","","","","","","","k",""
"","S1","","html-keyboard-response","198","257072","0.0-1.0-263.0","0","0","75093","","null","","","null","29","","","","","","","","","","","","","","","",""
"","ISI","","html-keyboard-response","199","259074","0.0-1.0-264.0","0","0","75093","","151","","","75","29","k","","","","","","","","","","","","","","",""
"","S2","","html-keyboard-response","200","259326","0.0-1.0-265.0","0","0","75093","","249","","","75","29","","k","","","","","","","","","","","","","",""
"","response","","html-keyboard-response","201","259335","0.0-1.0-266.0","0","0","75093","","7","","","68","29","","","1","29","training","adjacent","EF","5","6","M.jpg","L.jpg","0","1","0","",""
"","feedback","","html-keyboard-response","202","260338","0.0-1.0-267.0-0.0","0","0","75093","","null","","","null","29","","","","","","","","","","","","","","","",""
"","time_out","","html-keyboard-response","203","262340","0.0-1.0-269.0-0.0","0","0","75093","","null","","","null","29","","","","","","","","","","","","","","","",""
"","ITI","","html-keyboard-response","204","263344","0.0-1.0-270.0","0","0","75093","","226","","","75","29","","","","","","","","","","","","","","","k",""
"","S1","","html-keyboard-response","205","263596","0.0-1.0-272.0","0","0","75093","","null","","","null","30","","","","","","","","","","","","","","","",""
"","ISI","","html-keyboard-response","206","265598","0.0-1.0-273.0","0","0","75093","","136","","","68","30","d","","","","","","","","","","","","","","",""
"","S2","","html-keyboard-response","207","265850","0.0-1.0-274.0","0","0","75093","","53","","","75","30","","k","","","","","","","","","","","","","",""
"","response","","html-keyboard-response","208","266552","0.0-1.0-275.0","0","0","75093","","701","","","75","30","","","1","30","training","adjacent","FG","6","7","L.jpg","R.jpg","1","1","1","",""
"","feedback","","html-keyboard-response","209","267554","0.0-1.0-276.0-0.0","0","0","75093","","null","","","null","30","","","","","","","","","","","","","","","",""
"","ITI","","html-keyboard-response","210","268556","0.0-1.0-279.0","0","0","75093","","null","","","null","30","","","","","","","","","","","","","","","NaN",""
"","S1","","html-keyboard-response","211","268809","0.0-1.0-281.0","0","0","75093","","null","","","null","31","","","","","","","","","","","","","","","",""
"","ISI","","html-keyboard-response","212","270820","0.0-1.0-282.0","0","0","75093","","167","","","68","31","d","","","","","","","","","","","","","","",""
"","S2","","html-keyboard-response","213","271072","0.0-1.0-283.0","0","0","75093","","null","","","null","31","","NaN","","","","","","","","","","","","","",""
"","response","","html-keyboard-response","214","271083","0.0-1.0-284.0","0","0","75093","","9","","","68","31","","","1","31","training","adjacent","BC","2","3","Q.jpg","N.jpg","0","1","0","",""
"","feedback","","html-keyboard-response","215","272088","0.0-1.0-285.0-0.0","0","0","75093","","null","","","null","31","","","","","","","","","","","","","","","",""
"","time_out","","html-keyboard-response","216","274089","0.0-1.0-287.0-0.0","0","0","75093","","null","","","null","31","","","","","","","","","","","","","","","",""
"","ITI","","html-keyboard-response","217","275092","0.0-1.0-288.0","0","0","75093","","880","","","75","31","","","","","","","","","","","","","","","k",""
"","S1","","html-keyboard-response","218","275344","0.0-1.0-290.0","0","0","75093","","null","","","null","32","","","","","","","","","","","","","","","",""
"","ISI","","html-keyboard-response","219","277346","0.0-1.0-291.0","0","0","75093","","134","","","75","32","k","","","","","","","","","","","","","","",""
"","S2","","html-keyboard-response","220","277598","0.0-1.0-292.0","0","0","75093","","null","","","null","32","","NaN","","","","","","","","","","","","","",""
"","response","","html-keyboard-response","221","277691","0.0-1.0-293.0","0","0","75093","","92","","","75","32","","","1","32","training","adjacent","DC","4","3","O.jpg","N.jpg","1","0","0","",""
"","feedback","","html-keyboard-response","222","278694","0.0-1.0-294.0-0.0","0","0","75093","","null","","","null","32","","","","","","","","","","","","","","","",""
"","time_out","","html-keyboard-response","223","280696","0.0-1.0-296.0-0.0","0","0","75093","","null","","","null","32","","","","","","","","","","","","","","","",""
"","ITI","","html-keyboard-response","224","281699","0.0-1.0-297.0","0","0","75093","","355","","","75","32","","","","","","","","","","","","","","","k",""
"","S1","","html-keyboard-response","225","281951","0.0-1.0-299.0","0","0","75093","","null","","","null","33","","","","","","","","","","","","","","","",""
"","ISI","","html-keyboard-response","226","283954","0.0-1.0-300.0","0","0","75093","","36","","","68","33","d","","","","","","","","","","","","","","",""
"","S2","","html-keyboard-response","227","284206","0.0-1.0-301.0","0","0","75093","","null","","","null","33","","NaN","","","","","","","","","","","","","",""
"","response","","html-keyboard-response","228","284237","0.0-1.0-302.0","0","0","75093","","31","","","75","33","","","1","33","training","adjacent","CB","3","2","N.jpg","Q.jpg","1","0","0","",""
"","feedback","","html-keyboard-response","229","285240","0.0-1.0-303.0-0.0","0","0","75093","","null","","","null","33","","","","","","","","","","","","","","","",""
"","time_out","","html-keyboard-response","230","287242","0.0-1.0-305.0-0.0","0","0","75093","","null","","","null","33","","","","","","","","","","","","","","","",""
"","ITI","","html-keyboard-response","231","288244","0.0-1.0-306.0","0","0","75093","","328","","","75","33","","","","","","","","","","","","","","","k",""
"","S1","","html-keyboard-response","232","288496","0.0-1.0-308.0","0","0","75093","","null","","","null","34","","","","","","","","","","","","","","","",""
"","ISI","","html-keyboard-response","233","290499","0.0-1.0-309.0","0","0","75093","","250","","","68","34","d","","","","","","","","","","","","","","",""
"","S2","","html-keyboard-response","234","290751","0.0-1.0-310.0","0","0","75093","","null","","","null","34","","NaN","","","","","","","","","","","","","",""
"","response","","html-keyboard-response","235","290994","0.0-1.0-311.0","0","0","75093","","241","","","68","34","","","1","34","training","adjacent","CD","3","4","N.jpg","O.jpg","0","1","0","",""
"","feedback","","html-keyboard-response","236","291995","0.0-1.0-312.0-0.0","0","0","75093","","null","","","null","34","","","","","","","","","","","","","","","",""
"","time_out","","html-keyboard-response","237","293997","0.0-1.0-314.0-0.0","0","0","75093","","null","","","null","34","","","","","","","","","","","","","","","",""
"","ITI","","html-keyboard-response","238","294999","0.0-1.0-315.0","0","0","75093","","65","","","75","34","","","","","","","","","","","","","","","k",""
"","S1","","html-keyboard-response","239","295251","0.0-1.0-317.0","0","0","75093","","null","","","null","35","","","","","","","","","","","","","","","",""
"","ISI","","html-keyboard-response","240","297253","0.0-1.0-318.0","0","0","75093","","10","","","68","35","d","","","","","","","","","","","","","","",""
"","S2","","html-keyboard-response","241","297506","0.0-1.0-319.0","0","0","75093","","25","","","75","35","","k","","","","","","","","","","","","","",""
"","response","","html-keyboard-response","242","297619","0.0-1.0-320.0","0","0","75093","","113","","","68","35","","","1","35","training","adjacent","BC","2","3","Q.jpg","N.jpg","0","1","0","",""
"","feedback","","html-keyboard-response","243","298622","0.0-1.0-321.0-0.0","0","0","75093","","null","","","null","35","","","","","","","","","","","","","","","",""
"","time_out","","html-keyboard-response","244","300623","0.0-1.0-323.0-0.0","0","0","75093","","null","","","null","35","","","","","","","","","","","","","","","",""
"","ITI","","html-keyboard-response","245","301634","0.0-1.0-324.0","0","0","75093","","93","","","68","35","","","","","","","","","","","","","","","d",""
"","S1","","html-keyboard-response","246","301886","0.0-1.0-326.0","0","0","75093","","null","","","null","36","","","","","","","","","","","","","","","",""
"","ISI","","html-keyboard-response","247","303888","0.0-1.0-327.0","0","0","75093","","131","","","75","36","k","","","","","","","","","","","","","","",""
"","S2","","html-keyboard-response","248","304140","0.0-1.0-328.0","0","0","75093","","null","","","null","36","","NaN","","","","","","","","","","","","","",""
"","response","","html-keyboard-response","249","304173","0.0-1.0-329.0","0","0","75093","","31","","","68","36","","","1","36","training","adjacent","ED","5","4","M.jpg","O.jpg","0","0","1","",""
"","feedback","","html-keyboard-response","250","305175","0.0-1.0-330.0-0.0","0","0","75093","","null","","","null","36","","","","","","","","","","","","","","","",""
"","ITI","","html-keyboard-response","251","306177","0.0-1.0-333.0","0","0","75093","","250","","","75","36","","","","","","","","","","","","","","","k",""
"","S1","","html-keyboard-response","252","306429","0.0-1.0-335.0","0","0","75093","","null","","","null","37","","","","","","","","","","","","","","","",""
"","ISI","","html-keyboard-response","253","308431","0.0-1.0-336.0","0","0","75093","","17","","","68","37","d","","","","","","","","","","","","","","",""
"","S2","","html-keyboard-response","254","308695","0.0-1.0-337.0","0","0","75093","","null","","","null","37","","NaN","","","","","","","","","","","","","",""
"","response","","html-keyboard-response","255","308934","0.0-1.0-338.0","0","0","75093","","238","","","68","37","","","1","37","training","adjacent","CB","3","2","N.jpg","Q.jpg","0","0","1","",""
"","feedback","","html-keyboard-response","256","309936","0.0-1.0-339.0-0.0","0","0","75093","","null","","","null","37","","","","","","","","","","","","","","","",""
"","ITI","","html-keyboard-response","257","310938","0.0-1.0-342.0","0","0","75093","","477","","","68","37","","","","","","","","","","","","","","","d",""
"","S1","","html-keyboard-response","258","311191","0.0-1.0-344.0","0","0","75093","","null","","","null","38","","","","","","","","","","","","","","","",""
"","ISI","","html-keyboard-response","259","313194","0.0-1.0-345.0","0","0","75093","","348","","","75","38","k","","","","","","","","","","","","","","",""
"","S2","","html-keyboard-response","260","313445","0.0-1.0-346.0","0","0","75093","","null","","","null","38","","NaN","","","","","","","","","","","","","",""
"","response","","html-keyboard-response","261","313534","0.0-1.0-347.0","0","0","75093","","87","","","68","38","","","1","38","training","adjacent","DE","4","5","O.jpg","M.jpg","0","1","0","",""
"","feedback","","html-keyboard-response","262","314536","0.0-1.0-348.0-0.0","0","0","75093","","null","","","null","38","","","","","","","","","","","","","","","",""
"","time_out","","html-keyboard-response","263","316539","0.0-1.0-350.0-0.0","0","0","75093","","null","","","null","38","","","","","","","","","","","","","","","",""
"","ITI","","html-keyboard-response","264","317540","0.0-1.0-351.0","0","0","75093","","169","","","68","38","","","","","","","","","","","","","","","d",""
"","S1","","html-keyboard-response","265","317793","0.0-1.0-353.0","0","0","75093","","null","","","null","39","","","","","","","","","","","","","","","",""
"","ISI","","html-keyboard-response","266","319796","0.0-1.0-354.0","0","0","75093","","53","","","75","39","k","","","","","","","","","","","","","","",""
"","S2","","html-keyboard-response","267","320047","0.0-1.0-355.0","0","0","75093","","null","","","null","39","","NaN","","","","","","","","","","","","","",""
"","response","","html-keyboard-response","268","320214","0.0-1.0-356.0","0","0","75093","","166","","","68","39","","","1","39","training","adjacent","CB","3","2","N.jpg","Q.jpg","0","0","1","",""
"","feedback","","html-keyboard-response","269","321218","0.0-1.0-357.0-0.0","0","0","75093","","null","","","null","39","","","","","","","","","","","","","","","",""
"","ITI","","html-keyboard-response","270","322220","0.0-1.0-360.0","0","0","75093","","27","","","68","39","","","","","","","","","","","","","","","d",""
"","S1","","html-keyboard-response","271","322472","0.0-1.0-362.0","0","0","75093","","null","","","null","40","","","","","","","","","","","","","","","",""
"","ISI","","html-keyboard-response","272","324474","0.0-1.0-363.0","0","0","75093","","393","","","68","40","d","","","","","","","","","","","","","","",""
"","S2","","html-keyboard-response","273","324726","0.0-1.0-364.0","0","0","75093","","null","","","null","40","","NaN","","","","","","","","","","","","","",""
"","response","","html-keyboard-response","274","326728","0.0-1.0-365.0","0","0","75093","","null","","","null","40","","","1","40","training","adjacent","ED","5","4","M.jpg","O.jpg","NaN","0","0","",""
"","too_slow_prompt","","html-keyboard-response","275","327731","0.0-1.0-367.0-0.0","1","0","75093","","null","","","null","","","","","","","","","","","","","","","","",""
"","time_out","","html-keyboard-response","276","329733","0.0-1.0-368.0-0.0","0","0","75093","","null","","","null","40","","","","","","","","","","","","","","","",""
"","ITI","","html-keyboard-response","277","330736","0.0-1.0-369.0","0","0","75093","","null","","","null","40","","","","","","","","","","","","","","","NaN",""
"","S1","","html-keyboard-response","278","330988","0.0-1.0-371.0","0","0","75093","","null","","","null","41","","","","","","","","","","","","","","","",""
"","ISI","","html-keyboard-response","279","332990","0.0-1.0-372.0","0","0","75093","","null","","","null","41","NaN","","","","","","","","","","","","","","",""
"","S2","","html-keyboard-response","280","333253","0.0-1.0-373.0","0","0","75093","","null","","","null","41","","NaN","","","","","","","","","","","","","",""
"","response","","html-keyboard-response","281","335255","0.0-1.0-374.0","0","0","75093","","null","","","null","41","","","1","41","training","adjacent","GF","7","6","R.jpg","L.jpg","NaN","0","0","",""
"","too_slow_prompt","","html-keyboard-response","282","336257","0.0-1.0-376.0-0.0","1","0","75093","","null","","","null","","","","","","","","","","","","","","","","",""
"","time_out","","html-keyboard-response","283","338259","0.0-1.0-377.0-0.0","0","0","75093","","null","","","null","41","","","","","","","","","","","","","","","",""
"","ITI","","html-keyboard-response","284","339262","0.0-1.0-378.0","0","0","75093","","933","","","68","41","","","","","","","","","","","","","","","d",""
"","S1","","html-keyboard-response","285","339515","0.0-1.0-380.0","0","0","75093","","null","","","null","42","","","","","","","","","","","","","","","",""
"","ISI","","html-keyboard-response","286","341517","0.0-1.0-381.0","0","0","75093","","217","","","75","42","k","","","","","","","","","","","","","","",""
"","S2","","html-keyboard-response","287","341769","0.0-1.0-382.0","0","0","75093","","232","","","68","42","","d","","","","","","","","","","","","","",""
"","response","","html-keyboard-response","288","342101","0.0-1.0-383.0","0","0","75093","","330","","","75","42","","","1","42","training","adjacent","AB","1","2","P.jpg","Q.jpg","1","1","1","",""
"","feedback","","html-keyboard-response","289","343116","0.0-1.0-384.0-0.0","0","0","75093","","null","","","null","42","","","","","","","","","","","","","","","",""
"","ITI","","html-keyboard-response","290","344118","0.0-1.0-387.0","0","0","75093","","283","","","68","42","","","","","","","","","","","","","","","d",""
"","S1","","html-keyboard-response","291","344371","0.0-1.0-389.0","0","0","75093","","null","","","null","43","","","","","","","","","","","","","","","",""
"","ISI","","html-keyboard-response","292","346373","0.0-1.0-390.0","0","0","75093","","191","","","75","43","k","","","","","","","","","","","","","","",""
"","S2","","html-keyboard-response","293","346625","0.0-1.0-391.0","0","0","75093","","null","","","null","43","","NaN","","","","","","","","","","","","","",""
"","response","","html-keyboard-response","294","346670","0.0-1.0-392.0","0","0","75093","","43","","","68","43","","","1","43","training","adjacent","BC","2","3","Q.jpg","N.jpg","0","1","0","",""
"","feedback","","html-keyboard-response","295","347673","0.0-1.0-393.0-0.0","0","0","75093","","null","","","null","43","","","","","","","","","","","","","","","",""
"","time_out","","html-keyboard-response","296","349675","0.0-1.0-395.0-0.0","0","0","75093","","null","","","null","43","","","","","","","","","","","","","","","",""
"","ITI","","html-keyboard-response","297","350677","0.0-1.0-396.0","0","0","75093","","16","","","75","43","","","","","","","","","","","","","","","k",""
"","S1","","html-keyboard-response","298","350929","0.0-1.0-398.0","0","0","75093","","null","","","null","44","","","","","","","","","","","","","","","",""
"","ISI","","html-keyboard-response","299","352933","0.0-1.0-399.0","0","0","75093","","195","","","68","44","d","","","","","","","","","","","","","","",""
"","S2","","html-keyboard-response","300","353185","0.0-1.0-400.0","0","0","75093","","null","","","null","44","","NaN","","","","","","","","","","","","","",""
"","response","","html-keyboard-response","301","353324","0.0-1.0-401.0","0","0","75093","","138","","","68","44","","","1","44","training","adjacent","GF","7","6","R.jpg","L.jpg","0","0","1","",""
"","feedback","","html-keyboard-response","302","354326","0.0-1.0-402.0-0.0","0","0","75093","","null","","","null","44","","","","","","","","","","","","","","","",""
"","ITI","","html-keyboard-response","303","355329","0.0-1.0-405.0","0","0","75093","","234","","","68","44","","","","","","","","","","","","","","","d",""
"","S1","","html-keyboard-response","304","355581","0.0-1.0-407.0","0","0","75093","","null","","","null","45","","","","","","","","","","","","","","","",""
"","ISI","","html-keyboard-response","305","357585","0.0-1.0-408.0","0","0","75093","","190","","","68","45","d","","","","","","","","","","","","","","",""
"","S2","","html-keyboard-response","306","357837","0.0-1.0-409.0","0","0","75093","","1","","","68","45","","d","","","","","","","","","","","","","",""
"","response","","html-keyboard-response","307","357838","0.0-1.0-410.0","0","0","75093","","0","","","75","45","","","1","45","training","adjacent","GF","7","6","R.jpg","L.jpg","1","0","0","",""
"","feedback","","html-keyboard-response","308","358840","0.0-1.0-411.0-0.0","0","0","75093","","null","","","null","45","","","","","","","","","","","","","","","",""
"","time_out","","html-keyboard-response","309","360842","0.0-1.0-413.0-0.0","0","0","75093","","null","","","null","45","","","","","","","","","","","","","","","",""
"","ITI","","html-keyboard-response","310","361845","0.0-1.0-414.0","0","0","75093","","133","","","68","45","","","","","","","","","","","","","","","d",""
"","S1","","html-keyboard-response","311","362096","0.0-1.0-416.0","0","0","75093","","null","","","null","46","","","","","","","","","","","","","","","",""
"","ISI","","html-keyboard-response","312","364099","0.0-1.0-417.0","0","0","75093","","73","","","68","46","d","","","","","","","","","","","","","","",""
"","S2","","html-keyboard-response","313","364352","0.0-1.0-418.0","0","0","75093","","143","","","68","46","","d","","","","","","","","","","","","","",""
"","response","","html-keyboard-response","314","364414","0.0-1.0-419.0","0","0","75093","","61","","","68","46","","","1","46","training","adjacent","DE","4","5","O.jpg","M.jpg","0","1","0","",""
"","feedback","","html-keyboard-response","315","365417","0.0-1.0-420.0-0.0","0","0","75093","","null","","","null","46","","","","","","","","","","","","","","","",""
"","time_out","","html-keyboard-response","316","367419","0.0-1.0-422.0-0.0","0","0","75093","","null","","","null","46","","","","","","","","","","","","","","","",""
"","ITI","","html-keyboard-response","317","368421","0.0-1.0-423.0","0","0","75093","","605","","","68","46","","","","","","","","","","","","","","","d",""
"","S1","","html-keyboard-response","318","368673","0.0-1.0-425.0","0","0","75093","","null","","","null","47","","","","","","","","","","","","","","","",""
"","ISI","","html-keyboard-response","319","370675","0.0-1.0-426.0","0","0","75093","","175","","","75","47","k","","","","","","","","","","","","","","",""
"","S2","","html-keyboard-response","320","370927","0.0-1.0-427.0","0","0","75093","","190","","","75","47","","k","","","","","","","","","","","","","",""
"","response","","html-keyboard-response","321","371133","0.0-1.0-428.0","0","0","75093","","204","","","68","47","","","1","47","training","adjacent","CD","3","4","N.jpg","O.jpg","0","1","0","",""
"","feedback","","html-keyboard-response","322","372135","0.0-1.0-429.0-0.0","0","0","75093","","null","","","null","47","","","","","","","","","","","","","","","",""
"","time_out","","html-keyboard-response","323","374137","0.0-1.0-431.0-0.0","0","0","75093","","null","","","null","47","","","","","","","","","","","","","","","",""
"","ITI","","html-keyboard-response","324","375139","0.0-1.0-432.0","0","0","75093","","14","","","75","47","","","","","","","","","","","","","","","k",""
"","block_over","","html-keyboard-response","325","389648","0.0-1.0-433.0-0.0","0","0","75093","","14507","","","32","47","","","","","","","","","","","","","","","",""
"","S1","","html-keyboard-response","326","389901","0.0-1.0-434.0","0","0","75093","","null","","","null","48","","","","","","","","","","","","","","","",""
"","ISI","","html-keyboard-response","327","391902","0.0-1.0-435.0","0","0","75093","","8","","","32","48","space","","","","","","","","","","","","","","",""
"","S2","","html-keyboard-response","328","392155","0.0-1.0-436.0","0","0","75093","","188","","","75","48","","k","","","","","","","","","","","","","",""
"","response","","html-keyboard-response","329","392312","0.0-1.0-437.0","0","0","75093","","155","","","75","48","","","2","48","training","adjacent","EF","5","6","M.jpg","L.jpg","1","1","1","",""
"","feedback","","html-keyboard-response","330","393314","0.0-1.0-438.0-0.0","0","0","75093","","null","","","null","48","","","","","","","","","","","","","","","",""
"","ITI","","html-keyboard-response","331","394318","0.0-1.0-441.0","0","0","75093","","72","","","75","48","","","","","","","","","","","","","","","k",""
"","S1","","html-keyboard-response","332","394570","0.0-1.0-443.0","0","0","75093","","null","","","null","49","","","","","","","","","","","","","","","",""
"","ISI","","html-keyboard-response","333","396573","0.0-1.0-444.0","0","0","75093","","83","","","75","49","k","","","","","","","","","","","","","","",""
"","S2","","html-keyboard-response","334","396825","0.0-1.0-445.0","0","0","75093","","1","","","75","49","","k","","","","","","","","","","","","","",""
"","response","","html-keyboard-response","335","396986","0.0-1.0-446.0","0","0","75093","","159","","","68","49","","","2","49","training","adjacent","EF","5","6","M.jpg","L.jpg","0","1","0","",""
"","feedback","","html-keyboard-response","336","397991","0.0-1.0-447.0-0.0","0","0","75093","","null","","","null","49","","","","","","","","","","","","","","","",""
"","time_out","","html-keyboard-response","337","399993","0.0-1.0-449.0-0.0","0","0","75093","","null","","","null","49","","","","","","","","","","","","","","","",""
"","ITI","","html-keyboard-response","338","400995","0.0-1.0-450.0","0","0","75093","","80","","","75","49","","","","","","","","","","","","","","","k",""
"","S1","","html-keyboard-response","339","401246","0.0-1.0-452.0","0","0","75093","","null","","","null","50","","","","","","","","","","","","","","","",""
"","ISI","","html-keyboard-response","340","403248","0.0-1.0-453.0","0","0","75093","","123","","","75","50","k","","","","","","","","","","","","","","",""
"","S2","","html-keyboard-response","341","403501","0.0-1.0-454.0","0","0","75093","","73","","","75","50","","k","","","","","","","","","","","","","",""
"","response","","html-keyboard-response","342","403525","0.0-1.0-455.0","0","0","75093","","23","","","75","50","","","2","50","training","adjacent","CD","3","4","N.jpg","O.jpg","1","1","1","",""
"","feedback","","html-keyboard-response","343","404527","0.0-1.0-456.0-0.0","0","0","75093","","null","","","null","50","","","","","","","","","","","","","","","",""
"","ITI","","html-keyboard-response","344","405528","0.0-1.0-459.0","0","0","75093","","125","","","75","50","","","","","","","","","","","","","","","k",""
"","S1","","html-keyboard-response","345","405781","0.0-1.0-461.0","0","0","75093","","null","","","null","51","","","","","","","","","","","","","","","",""
"","ISI","","html-keyboard-response","346","407784","0.0-1.0-462.0","0","0","75093","","193","","","75","51","k","","","","","","","","","","","","","","",""
"","S2","","html-keyboard-response","347","408036","0.0-1.0-463.0","0","0","75093","","22","","","75","51","","k","","","","","","","","","","","","","",""
"","response","","html-keyboard-response","348","408251","0.0-1.0-464.0","0","0","75093","","214","","","75","51","","","2","51","training","adjacent","FE","6","5","L.jpg","M.jpg","1","0","0","",""
"","feedback","","html-keyboard-response","349","409254","0.0-1.0-465.0-0.0","0","0","75093","","null","","","null","51","","","","","","","","","","","","","","","",""
"","time_out","","html-keyboard-response","350","411256","0.0-1.0-467.0-0.0","0","0","75093","","null","","","null","51","","","","","","","","","","","","","","","",""
"","ITI","","html-keyboard-response","351","412258","0.0-1.0-468.0","0","0","75093","","72","","","75","51","","","","","","","","","","","","","","","k",""
"","S1","","html-keyboard-response","352","412510","0.0-1.0-470.0","0","0","75093","","null","","","null","52","","","","","","","","","","","","","","","",""
"","ISI","","html-keyboard-response","353","414513","0.0-1.0-471.0","0","0","75093","","209","","","75","52","k","","","","","","","","","","","","","","",""
"","S2","","html-keyboard-response","354","414765","0.0-1.0-472.0","0","0","75093","","75","","","75","52","","k","","","","","","","","","","","","","",""
"","response","","html-keyboard-response","355","414826","0.0-1.0-473.0","0","0","75093","","59","","","75","52","","","2","52","training","adjacent","BA","2","1","Q.jpg","P.jpg","1","0","0","",""
"","feedback","","html-keyboard-response","356","415828","0.0-1.0-474.0-0.0","0","0","75093","","null","","","null","52","","","","","","","","","","","","","","","",""
"","time_out","","html-keyboard-response","357","417830","0.0-1.0-476.0-0.0","0","0","75093","","null","","","null","52","","","","","","","","","","","","","","","",""
"","ITI","","html-keyboard-response","358","418833","0.0-1.0-477.0","0","0","75093","","49","","","75","52","","","","","","","","","","","","","","","k",""
"","S1","","html-keyboard-response","359","419086","0.0-1.0-479.0","0","0","75093","","null","","","null","53","","","","","","","","","","","","","","","",""
"","ISI","","html-keyboard-response","360","421089","0.0-1.0-480.0","0","0","75093","","1337","","","68","53","d","","","","","","","","","","","","","","",""
"","S2","","html-keyboard-response","361","421342","0.0-1.0-481.0","0","0","75093","","135","","","75","53","","k","","","","","","","","","","","","","",""
"","response","","html-keyboard-response","362","421435","0.0-1.0-482.0","0","0","75093","","92","","","75","53","","","2","53","training","adjacent","FG","6","7","L.jpg","R.jpg","1","1","1","",""
"","feedback","","html-keyboard-response","363","422437","0.0-1.0-483.0-0.0","0","0","75093","","null","","","null","53","","","","","","","","","","","","","","","",""
"","ITI","","html-keyboard-response","364","423439","0.0-1.0-486.0","0","0","75093","","66","","","75","53","","","","","","","","","","","","","","","k",""
"","S1","","html-keyboard-response","365","423691","0.0-1.0-488.0","0","0","75093","","null","","","null","54","","","","","","","","","","","","","","","",""
"","ISI","","html-keyboard-response","366","425694","0.0-1.0-489.0","0","0","75093","","1208","","","68","54","d","","","","","","","","","","","","","","",""
"","S2","","html-keyboard-response","367","425946","0.0-1.0-490.0","0","0","75093","","63","","","75","54","","k","","","","","","","","","","","","","",""
"","response","","html-keyboard-response","368","425976","0.0-1.0-491.0","0","0","75093","","29","","","75","54","","","2","54","training","adjacent","AB","1","2","P.jpg","Q.jpg","1","1","1","",""
"","feedback","","html-keyboard-response","369","426978","0.0-1.0-492.0-0.0","0","0","75093","","null","","","null","54","","","","","","","","","","","","","","","",""
"","ITI","","html-keyboard-response","370","427994","0.0-1.0-495.0","0","0","75093","","94","","","75","54","","","","","","","","","","","","","","","k",""
"","S1","","html-keyboard-response","371","428246","0.0-1.0-497.0","0","0","75093","","null","","","null","55","","","","","","","","","","","","","","","",""
"","ISI","","html-keyboard-response","372","430248","0.0-1.0-498.0","0","0","75093","","50","","","75","55","k","","","","","","","","","","","","","","",""
"","S2","","html-keyboard-response","373","430502","0.0-1.0-499.0","0","0","75093","","133","","","75","55","","k","","","","","","","","","","","","","",""
"","response","","html-keyboard-response","374","430590","0.0-1.0-500.0","0","0","75093","","87","","","75","55","","","2","55","training","adjacent","GF","7","6","R.jpg","L.jpg","1","0","0","",""
"","feedback","","html-keyboard-response","375","431593","0.0-1.0-501.0-0.0","0","0","75093","","null","","","null","55","","","","","","","","","","","","","","","",""
"","time_out","","html-keyboard-response","376","433595","0.0-1.0-503.0-0.0","0","0","75093","","null","","","null","55","","","","","","","","","","","","","","","",""
"","ITI","","html-keyboard-response","377","434597","0.0-1.0-504.0","0","0","75093","","11","","","75","55","","","","","","","","","","","","","","","k",""
"","S1","","html-keyboard-response","378","434850","0.0-1.0-506.0","0","0","75093","","null","","","null","56","","","","","","","","","","","","","","","",""
"","ISI","","html-keyboard-response","379","436852","0.0-1.0-507.0","0","0","75093","","19","","","68","56","d","","","","","","","","","","","","","","",""
"","S2","","html-keyboard-response","380","437103","0.0-1.0-508.0","0","0","75093","","105","","","75","56","","k","","","","","","","","","","","","","",""
"","response","","html-keyboard-response","381","437177","0.0-1.0-509.0","0","0","75093","","72","","","75","56","","","2","56","training","adjacent","CB","3","2","N.jpg","Q.jpg","1","0","0","",""
"","feedback","","html-keyboard-response","382","438179","0.0-1.0-510.0-0.0","0","0","75093","","null","","","null","56","","","","","","","","","","","","","","","",""
"","time_out","","html-keyboard-response","383","440182","0.0-1.0-512.0-0.0","0","0","75093","","null","","","null","56","","","","","","","","","","","","","","","",""
"","ITI","","html-keyboard-response","384","441183","0.0-1.0-513.0","0","0","75093","","107","","","75","56","","","","","","","","","","","","","","","k",""
"","S1","","html-keyboard-response","385","441436","0.0-1.0-515.0","0","0","75093","","null","","","null","57","","","","","","","","","","","","","","","",""
"","ISI","","html-keyboard-response","386","443438","0.0-1.0-516.0","0","0","75093","","115","","","74","57","j","","","","","","","","","","","","","","",""
"","S2","","html-keyboard-response","387","443689","0.0-1.0-517.0","0","0","75093","","16","","","74","57","","j","","","","","","","","","","","","","",""
"","response","","html-keyboard-response","388","443895","0.0-1.0-518.0","0","0","75093","","205","","","68","57","","","2","57","training","adjacent","BC","2","3","Q.jpg","N.jpg","0","1","0","",""
"","feedback","","html-keyboard-response","389","444897","0.0-1.0-519.0-0.0","0","0","75093","","null","","","null","57","","","","","","","","","","","","","","","",""
"","time_out","","html-keyboard-response","390","446900","0.0-1.0-521.0-0.0","0","0","75093","","null","","","null","57","","","","","","","","","","","","","","","",""
"","ITI","","html-keyboard-response","391","447902","0.0-1.0-522.0","0","0","75093","","null","","","null","57","","","","","","","","","","","","","","","NaN",""
"","S1","","html-keyboard-response","392","448162","0.0-1.0-524.0","0","0","75093","","null","","","null","58","","","","","","","","","","","","","","","",""
"","ISI","","html-keyboard-response","393","450164","0.0-1.0-525.0","0","0","75093","","764","","","68","58","d","","","","","","","","","","","","","","",""
"","S2","","html-keyboard-response","394","450416","0.0-1.0-526.0","0","0","75093","","192","","","74","58","","j","","","","","","","","","","","","","",""
"","response","","html-keyboard-response","395","450608","0.0-1.0-527.0","0","0","75093","","190","","","68","58","","","2","58","training","adjacent","DE","4","5","O.jpg","M.jpg","0","1","0","",""
"","feedback","","html-keyboard-response","396","451610","0.0-1.0-528.0-0.0","0","0","75093","","null","","","null","58","","","","","","","","","","","","","","","",""
"","time_out","","html-keyboard-response","397","453612","0.0-1.0-530.0-0.0","0","0","75093","","null","","","null","58","","","","","","","","","","","","","","","",""
"","ITI","","html-keyboard-response","398","454614","0.0-1.0-531.0","0","0","75093","","31","","","74","58","","","","","","","","","","","","","","","j",""
"","S1","","html-keyboard-response","399","454867","0.0-1.0-533.0","0","0","75093","","null","","","null","59","","","","","","","","","","","","","","","",""
"","ISI","","html-keyboard-response","400","456868","0.0-1.0-534.0","0","0","75093","","116","","","74","59","j","","","","","","","","","","","","","","",""
"","S2","","html-keyboard-response","401","457121","0.0-1.0-535.0","0","0","75093","","7","","","74","59","","j","","","","","","","","","","","","","",""
"","response","","html-keyboard-response","402","457335","0.0-1.0-536.0","0","0","75093","","213","","","68","59","","","2","59","training","adjacent","CD","3","4","N.jpg","O.jpg","0","1","0","",""
"","feedback","","html-keyboard-response","403","458337","0.0-1.0-537.0-0.0","0","0","75093","","null","","","null","59","","","","","","","","","","","","","","","",""
"","time_out","","html-keyboard-response","404","460338","0.0-1.0-539.0-0.0","0","0","75093","","null","","","null","59","","","","","","","","","","","","","","","",""
"","ITI","","html-keyboard-response","405","461340","0.0-1.0-540.0","0","0","75093","","430","","","68","59","","","","","","","","","","","","","","","d",""
"","S1","","html-keyboard-response","406","461592","0.0-1.0-542.0","0","0","75093","","null","","","null","60","","","","","","","","","","","","","","","",""
"","ISI","","html-keyboard-response","407","463593","0.0-1.0-543.0","0","0","75093","","347","","","68","60","d","","","","","","","","","","","","","","",""
"","S2","","html-keyboard-response","408","463846","0.0-1.0-544.0","0","0","75093","","118","","","74","60","","j","","","","","","","","","","","","","",""
"","response","","html-keyboard-response","409","463973","0.0-1.0-545.0","0","0","75093","","127","","","68","60","","","2","60","training","adjacent","FG","6","7","L.jpg","R.jpg","0","1","0","",""
"","feedback","","html-keyboard-response","410","464975","0.0-1.0-546.0-0.0","0","0","75093","","null","","","null","60","","","","","","","","","","","","","","","",""
"","time_out","","html-keyboard-response","411","466978","0.0-1.0-548.0-0.0","0","0","75093","","null","","","null","60","","","","","","","","","","","","","","","",""
"","ITI","","html-keyboard-response","412","467980","0.0-1.0-549.0","0","0","75093","","22","","","68","60","","","","","","","","","","","","","","","d",""
"","S1","","html-keyboard-response","413","468233","0.0-1.0-551.0","0","0","75093","","null","","","null","61","","","","","","","","","","","","","","","",""
"","ISI","","html-keyboard-response","414","470235","0.0-1.0-552.0","0","0","75093","","237","","","68","61","d","","","","","","","","","","","","","","",""
"","S2","","html-keyboard-response","415","470487","0.0-1.0-553.0","0","0","75093","","39","","","75","61","","k","","","","","","","","","","","","","",""
"","response","","html-keyboard-response","416","470555","0.0-1.0-554.0","0","0","75093","","67","","","75","61","","","2","61","training","adjacent","ED","5","4","M.jpg","O.jpg","1","0","0","",""
"","feedback","","html-keyboard-response","417","471557","0.0-1.0-555.0-0.0","0","0","75093","","null","","","null","61","","","","","","","","","","","","","","","",""
"","time_out","","html-keyboard-response","418","473559","0.0-1.0-557.0-0.0","0","0","75093","","null","","","null","61","","","","","","","","","","","","","","","",""
"","ITI","","html-keyboard-response","419","474562","0.0-1.0-558.0","0","0","75093","","5","","","75","61","","","","","","","","","","","","","","","k",""
"","S1","","html-keyboard-response","420","474814","0.0-1.0-560.0","0","0","75093","","null","","","null","62","","","","","","","","","","","","","","","",""
"","ISI","","html-keyboard-response","421","476816","0.0-1.0-561.0","0","0","75093","","47","","","68","62","d","","","","","","","","","","","","","","",""
"","S2","","html-keyboard-response","422","477068","0.0-1.0-562.0","0","0","75093","","116","","","68","62","","d","","","","","","","","","","","","","",""
"","response","","html-keyboard-response","423","477152","0.0-1.0-563.0","0","0","75093","","83","","","68","62","","","2","62","training","adjacent","DE","4","5","O.jpg","M.jpg","0","1","0","",""
"","feedback","","html-keyboard-response","424","478155","0.0-1.0-564.0-0.0","0","0","75093","","null","","","null","62","","","","","","","","","","","","","","","",""
"","time_out","","html-keyboard-response","425","480157","0.0-1.0-566.0-0.0","0","0","75093","","null","","","null","62","","","","","","","","","","","","","","","",""
"","ITI","","html-keyboard-response","426","481159","0.0-1.0-567.0","0","0","75093","","416","","","75","62","","","","","","","","","","","","","","","k",""
"","S1","","html-keyboard-response","427","481412","0.0-1.0-569.0","0","0","75093","","null","","","null","63","","","","","","","","","","","","","","","",""
"","ISI","","html-keyboard-response","428","483415","0.0-1.0-570.0","0","0","75093","","11","","","75","63","k","","","","","","","","","","","","","","",""
"","S2","","html-keyboard-response","429","483667","0.0-1.0-571.0","0","0","75093","","27","","","75","63","","k","","","","","","","","","","","","","",""
"","response","","html-keyboard-response","430","483821","0.0-1.0-572.0","0","0","75093","","153","","","75","63","","","2","63","training","adjacent","DE","4","5","O.jpg","M.jpg","1","1","1","",""
"","feedback","","html-keyboard-response","431","484822","0.0-1.0-573.0-0.0","0","0","75093","","null","","","null","63","","","","","","","","","","","","","","","",""
"","ITI","","html-keyboard-response","432","485825","0.0-1.0-576.0","0","0","75093","","156","","","75","63","","","","","","","","","","","","","","","k",""
"","S1","","html-keyboard-response","433","486078","0.0-1.0-578.0","0","0","75093","","null","","","null","64","","","","","","","","","","","","","","","",""
"","ISI","","html-keyboard-response","434","488080","0.0-1.0-579.0","0","0","75093","","51","","","75","64","k","","","","","","","","","","","","","","",""
"","S2","","html-keyboard-response","435","488332","0.0-1.0-580.0","0","0","75093","","null","","","null","64","","NaN","","","","","","","","","","","","","",""
"","response","","html-keyboard-response","436","488355","0.0-1.0-581.0","0","0","75093","","23","","","68","64","","","2","64","training","adjacent","AB","1","2","P.jpg","Q.jpg","0","1","0","",""
"","feedback","","html-keyboard-response","437","489357","0.0-1.0-582.0-0.0","0","0","75093","","null","","","null","64","","","","","","","","","","","","","","","",""
"","time_out","","html-keyboard-response","438","491360","0.0-1.0-584.0-0.0","0","0","75093","","null","","","null","64","","","","","","","","","","","","","","","",""
"","ITI","","html-keyboard-response","439","492362","0.0-1.0-585.0","0","0","75093","","21","","","75","64","","","","","","","","","","","","","","","k",""
"","S1","","html-keyboard-response","440","492614","0.0-1.0-587.0","0","0","75093","","null","","","null","65","","","","","","","","","","","","","","","",""
"","ISI","","html-keyboard-response","441","494616","0.0-1.0-588.0","0","0","75093","","70","","","75","65","k","","","","","","","","","","","","","","",""
"","S2","","html-keyboard-response","442","494869","0.0-1.0-589.0","0","0","75093","","153","","","68","65","","d","","","","","","","","","","","","","",""
"","response","","html-keyboard-response","443","494970","0.0-1.0-590.0","0","0","75093","","100","","","68","65","","","2","65","training","adjacent","BC","2","3","Q.jpg","N.jpg","0","1","0","",""
"","feedback","","html-keyboard-response","444","495972","0.0-1.0-591.0-0.0","0","0","75093","","null","","","null","65","","","","","","","","","","","","","","","",""
"","time_out","","html-keyboard-response","445","497973","0.0-1.0-593.0-0.0","0","0","75093","","null","","","null","65","","","","","","","","","","","","","","","",""
"","ITI","","html-keyboard-response","446","498975","0.0-1.0-594.0","0","0","75093","","192","","","68","65","","","","","","","","","","","","","","","d",""
"","S1","","html-keyboard-response","447","499226","0.0-1.0-596.0","0","0","75093","","null","","","null","66","","","","","","","","","","","","","","","",""
"","ISI","","html-keyboard-response","448","501229","0.0-1.0-597.0","0","0","75093","","210","","","75","66","k","","","","","","","","","","","","","","",""
"","S2","","html-keyboard-response","449","501482","0.0-1.0-598.0","0","0","75093","","80","","","75","66","","k","","","","","","","","","","","","","",""
"","response","","html-keyboard-response","450","501545","0.0-1.0-599.0","0","0","75093","","62","","","75","66","","","2","66","training","adjacent","FE","6","5","L.jpg","M.jpg","1","0","0","",""
"","feedback","","html-keyboard-response","451","502547","0.0-1.0-600.0-0.0","0","0","75093","","null","","","null","66","","","","","","","","","","","","","","","",""
"","time_out","","html-keyboard-response","452","504549","0.0-1.0-602.0-0.0","0","0","75093","","null","","","null","66","","","","","","","","","","","","","","","",""
"","ITI","","html-keyboard-response","453","505552","0.0-1.0-603.0","0","0","75093","","44","","","75","66","","","","","","","","","","","","","","","k",""
"","S1","","html-keyboard-response","454","505804","0.0-1.0-605.0","0","0","75093","","null","","","null","67","","","","","","","","","","","","","","","",""
"","ISI","","html-keyboard-response","455","507820","0.0-1.0-606.0","0","0","75093","","0","","","75","67","k","","","","","","","","","","","","","","",""
"","S2","","html-keyboard-response","456","508072","0.0-1.0-607.0","0","0","75093","","56","","","75","67","","k","","","","","","","","","","","","","",""
"","response","","html-keyboard-response","457","508151","0.0-1.0-608.0","0","0","75093","","79","","","75","67","","","2","67","training","adjacent","GF","7","6","R.jpg","L.jpg","1","0","0","",""
"","feedback","","html-keyboard-response","458","509154","0.0-1.0-609.0-0.0","0","0","75093","","null","","","null","67","","","","","","","","","","","","","","","",""
"","time_out","","html-keyboard-response","459","511156","0.0-1.0-611.0-0.0","0","0","75093","","null","","","null","67","","","","","","","","","","","","","","","",""
"","ITI","","html-keyboard-response","460","512159","0.0-1.0-612.0","0","0","75093","","276","","","75","67","","","","","","","","","","","","","","","k",""
"","S1","","html-keyboard-response","461","512412","0.0-1.0-614.0","0","0","75093","","null","","","null","68","","","","","","","","","","","","","","","",""
"","ISI","","html-keyboard-response","462","514413","0.0-1.0-615.0","0","0","75093","","1","","","75","68","k","","","","","","","","","","","","","","",""
"","S2","","html-keyboard-response","463","514666","0.0-1.0-616.0","0","0","75093","","63","","","68","68","","d","","","","","","","","","","","","","",""
"","response","","html-keyboard-response","464","514673","0.0-1.0-617.0","0","0","75093","","6","","","68","68","","","2","68","training","adjacent","ED","5","4","M.jpg","O.jpg","0","0","1","",""
"","feedback","","html-keyboard-response","465","515676","0.0-1.0-618.0-0.0","0","0","75093","","null","","","null","68","","","","","","","","","","","","","","","",""
"","ITI","","html-keyboard-response","466","516678","0.0-1.0-621.0","0","0","75093","","165","","","75","68","","","","","","","","","","","","","","","k",""
"","S1","","html-keyboard-response","467","516930","0.0-1.0-623.0","0","0","75093","","null","","","null","69","","","","","","","","","","","","","","","",""
"","ISI","","html-keyboard-response","468","518932","0.0-1.0-624.0","0","0","75093","","140","","","68","69","d","","","","","","","","","","","","","","",""
"","S2","","html-keyboard-response","469","519184","0.0-1.0-625.0","0","0","75093","","97","","","75","69","","k","","","","","","","","","","","","","",""
"","response","","html-keyboard-response","470","519266","0.0-1.0-626.0","0","0","75093","","80","","","75","69","","","2","69","training","adjacent","DC","4","3","O.jpg","N.jpg","1","0","0","",""
"","feedback","","html-keyboard-response","471","520268","0.0-1.0-627.0-0.0","0","0","75093","","null","","","null","69","","","","","","","","","","","","","","","",""
"","time_out","","html-keyboard-response","472","522270","0.0-1.0-629.0-0.0","0","0","75093","","null","","","null","69","","","","","","","","","","","","","","","",""
"","ITI","","html-keyboard-response","473","523273","0.0-1.0-630.0","0","0","75093","","62","","","75","69","","","","","","","","","","","","","","","k",""
"","S1","","html-keyboard-response","474","523525","0.0-1.0-632.0","0","0","75093","","null","","","null","70","","","","","","","","","","","","","","","",""
"","ISI","","html-keyboard-response","475","525527","0.0-1.0-633.0","0","0","75093","","21","","","68","70","d","","","","","","","","","","","","","","",""
"","S2","","html-keyboard-response","476","525780","0.0-1.0-634.0","0","0","75093","","23","","","75","70","","k","","","","","","","","","","","","","",""
"","response","","html-keyboard-response","477","525792","0.0-1.0-635.0","0","0","75093","","9","","","75","70","","","2","70","training","adjacent","CD","3","4","N.jpg","O.jpg","1","1","1","",""
"","feedback","","html-keyboard-response","478","526794","0.0-1.0-636.0-0.0","0","0","75093","","null","","","null","70","","","","","","","","","","","","","","","",""
"","ITI","","html-keyboard-response","479","527797","0.0-1.0-639.0","0","0","75093","","11","","","68","70","","","","","","","","","","","","","","","d",""
"","S1","","html-keyboard-response","480","528050","0.0-1.0-641.0","0","0","75093","","null","","","null","71","","","","","","","","","","","","","","","",""
"","ISI","","html-keyboard-response","481","530053","0.0-1.0-642.0","0","0","75093","","83","","","75","71","k","","","","","","","","","","","","","","",""
"","S2","","html-keyboard-response","482","530305","0.0-1.0-643.0","0","0","75093","","75","","","75","71","","k","","","","","","","","","","","","","",""
"","response","","html-keyboard-response","483","530368","0.0-1.0-644.0","0","0","75093","","61","","","75","71","","","2","71","training","adjacent","DE","4","5","O.jpg","M.jpg","1","1","1","",""
"","feedback","","html-keyboard-response","484","531370","0.0-1.0-645.0-0.0","0","0","75093","","null","","","null","71","","","","","","","","","","","","","","","",""
"","ITI","","html-keyboard-response","485","532373","0.0-1.0-648.0","0","0","75093","","119","","","68","71","","","","","","","","","","","","","","","d",""
"","S1","","html-keyboard-response","486","532625","0.0-1.0-650.0","0","0","75093","","null","","","null","72","","","","","","","","","","","","","","","",""
"","ISI","","html-keyboard-response","487","534627","0.0-1.0-651.0","0","0","75093","","40","","","68","72","d","","","","","","","","","","","","","","",""
"","S2","","html-keyboard-response","488","534881","0.0-1.0-652.0","0","0","75093","","133","","","68","72","","d","","","","","","","","","","","","","",""
"","response","","html-keyboard-response","489","535020","0.0-1.0-653.0","0","0","75093","","138","","","68","72","","","2","72","training","adjacent","GF","7","6","R.jpg","L.jpg","0","0","1","",""
"","feedback","","html-keyboard-response","490","536022","0.0-1.0-654.0-0.0","0","0","75093","","null","","","null","72","","","","","","","","","","","","","","","",""
"","ITI","","html-keyboard-response","491","537025","0.0-1.0-657.0","0","0","75093","","759","","","75","72","","","","","","","","","","","","","","","k",""
"","S1","","html-keyboard-response","492","537277","0.0-1.0-659.0","0","0","75093","","null","","","null","73","","","","","","","","","","","","","","","",""
"","ISI","","html-keyboard-response","493","539279","0.0-1.0-660.0","0","0","75093","","121","","","68","73","d","","","","","","","","","","","","","","",""
"","S2","","html-keyboard-response","494","539530","0.0-1.0-661.0","0","0","75093","","41","","","75","73","","k","","","","","","","","","","","","","",""
"","response","","html-keyboard-response","495","539711","0.0-1.0-662.0","0","0","75093","","179","","","75","73","","","2","73","training","adjacent","FG","6","7","L.jpg","R.jpg","1","1","1","",""
"","feedback","","html-keyboard-response","496","540713","0.0-1.0-663.0-0.0","0","0","75093","","null","","","null","73","","","","","","","","","","","","","","","",""
"","ITI","","html-keyboard-response","497","541715","0.0-1.0-666.0","0","0","75093","","232","","","75","73","","","","","","","","","","","","","","","k",""
"","S1","","html-keyboard-response","498","541968","0.0-1.0-668.0","0","0","75093","","null","","","null","74","","","","","","","","","","","","","","","",""
"","ISI","","html-keyboard-response","499","543982","0.0-1.0-669.0","0","0","75093","","184","","","75","74","k","","","","","","","","","","","","","","",""
"","S2","","html-keyboard-response","500","544234","0.0-1.0-670.0","0","0","75093","","92","","","75","74","","k","","","","","","","","","","","","","",""
"","response","","html-keyboard-response","501","544285","0.0-1.0-671.0","0","0","75093","","50","","","68","74","","","2","74","training","adjacent","ED","5","4","M.jpg","O.jpg","0","0","1","",""
"","feedback","","html-keyboard-response","502","545288","0.0-1.0-672.0-0.0","0","0","75093","","null","","","null","74","","","","","","","","","","","","","","","",""
"","ITI","","html-keyboard-response","503","546290","0.0-1.0-675.0","0","0","75093","","57","","","75","74","","","","","","","","","","","","","","","k",""
"","S1","","html-keyboard-response","504","546543","0.0-1.0-677.0","0","0","75093","","null","","","null","75","","","","","","","","","","","","","","","",""
"","ISI","","html-keyboard-response","505","548545","0.0-1.0-678.0","0","0","75093","","49","","","75","75","k","","","","","","","","","","","","","","",""
"","S2","","html-keyboard-response","506","548799","0.0-1.0-679.0","0","0","75093","","34","","","75","75","","k","","","","","","","","","","","","","",""
"","response","","html-keyboard-response","507","548836","0.0-1.0-680.0","0","0","75093","","36","","","75","75","","","2","75","training","adjacent","BA","2","1","Q.jpg","P.jpg","1","0","0","",""
"","feedback","","html-keyboard-response","508","549839","0.0-1.0-681.0-0.0","0","0","75093","","null","","","null","75","","","","","","","","","","","","","","","",""
"","time_out","","html-keyboard-response","509","551841","0.0-1.0-683.0-0.0","0","0","75093","","null","","","null","75","","","","","","","","","","","","","","","",""
"","ITI","","html-keyboard-response","510","552844","0.0-1.0-684.0","0","0","75093","","42","","","68","75","","","","","","","","","","","","","","","d",""
"","S1","","html-keyboard-response","511","553096","0.0-1.0-686.0","0","0","75093","","null","","","null","76","","","","","","","","","","","","","","","",""
"","ISI","","html-keyboard-response","512","555097","0.0-1.0-687.0","0","0","75093","","101","","","75","76","k","","","","","","","","","","","","","","",""
"","S2","","html-keyboard-response","513","555349","0.0-1.0-688.0","0","0","75093","","94","","","75","76","","k","","","","","","","","","","","","","",""
"","response","","html-keyboard-response","514","555465","0.0-1.0-689.0","0","0","75093","","115","","","75","76","","","2","76","training","adjacent","FG","6","7","L.jpg","R.jpg","1","1","1","",""
"","feedback","","html-keyboard-response","515","556466","0.0-1.0-690.0-0.0","0","0","75093","","null","","","null","76","","","","","","","","","","","","","","","",""
"","ITI","","html-keyboard-response","516","557469","0.0-1.0-693.0","0","0","75093","","189","","","75","76","","","","","","","","","","","","","","","k",""
"","S1","","html-keyboard-response","517","557722","0.0-1.0-695.0","0","0","75093","","null","","","null","77","","","","","","","","","","","","","","","",""
"","ISI","","html-keyboard-response","518","559724","0.0-1.0-696.0","0","0","75093","","133","","","75","77","k","","","","","","","","","","","","","","",""
"","S2","","html-keyboard-response","519","559976","0.0-1.0-697.0","0","0","75093","","180","","","75","77","","k","","","","","","","","","","","","","",""
"","response","","html-keyboard-response","520","560003","0.0-1.0-698.0","0","0","75093","","26","","","68","77","","","2","77","training","adjacent","DC","4","3","O.jpg","N.jpg","0","0","1","",""
"","feedback","","html-keyboard-response","521","561006","0.0-1.0-699.0-0.0","0","0","75093","","null","","","null","77","","","","","","","","","","","","","","","",""
"","ITI","","html-keyboard-response","522","562009","0.0-1.0-702.0","0","0","75093","","199","","","75","77","","","","","","","","","","","","","","","k",""
"","S1","","html-keyboard-response","523","562261","0.0-1.0-704.0","0","0","75093","","null","","","null","78","","","","","","","","","","","","","","","",""
"","ISI","","html-keyboard-response","524","564262","0.0-1.0-705.0","0","0","75093","","144","","","75","78","k","","","","","","","","","","","","","","",""
"","S2","","html-keyboard-response","525","564514","0.0-1.0-706.0","0","0","75093","","216","","","68","78","","d","","","","","","","","","","","","","",""
"","response","","html-keyboard-response","526","564592","0.0-1.0-707.0","0","0","75093","","78","","","75","78","","","2","78","training","adjacent","BC","2","3","Q.jpg","N.jpg","1","1","1","",""
"","feedback","","html-keyboard-response","527","565594","0.0-1.0-708.0-0.0","0","0","75093","","null","","","null","78","","","","","","","","","","","","","","","",""
"","ITI","","html-keyboard-response","528","566596","0.0-1.0-711.0","0","0","75093","","193","","","68","78","","","","","","","","","","","","","","","d",""
"","S1","","html-keyboard-response","529","566848","0.0-1.0-713.0","0","0","75093","","null","","","null","79","","","","","","","","","","","","","","","",""
"","ISI","","html-keyboard-response","530","568849","0.0-1.0-714.0","0","0","75093","","139","","","68","79","d","","","","","","","","","","","","","","",""
"","S2","","html-keyboard-response","531","569102","0.0-1.0-715.0","0","0","75093","","103","","","68","79","","d","","","","","","","","","","","","","",""
"","response","","html-keyboard-response","532","569285","0.0-1.0-716.0","0","0","75093","","182","","","68","79","","","2","79","training","adjacent","GF","7","6","R.jpg","L.jpg","0","0","1","",""
"","feedback","","html-keyboard-response","533","570287","0.0-1.0-717.0-0.0","0","0","75093","","null","","","null","79","","","","","","","","","","","","","","","",""
"","ITI","","html-keyboard-response","534","571289","0.0-1.0-720.0","0","0","75093","","135","","","68","79","","","","","","","","","","","","","","","d",""
"","S1","","html-keyboard-response","535","571542","0.0-1.0-722.0","0","0","75093","","null","","","null","80","","","","","","","","","","","","","","","",""
"","ISI","","html-keyboard-response","536","573545","0.0-1.0-723.0","0","0","75093","","132","","","75","80","k","","","","","","","","","","","","","","",""
"","S2","","html-keyboard-response","537","573797","0.0-1.0-724.0","0","0","75093","","120","","","75","80","","k","","","","","","","","","","","","","",""
"","response","","html-keyboard-response","538","573908","0.0-1.0-725.0","0","0","75093","","110","","","75","80","","","2","80","training","adjacent","FE","6","5","L.jpg","M.jpg","1","0","0","",""
"","feedback","","html-keyboard-response","539","574911","0.0-1.0-726.0-0.0","0","0","75093","","null","","","null","80","","","","","","","","","","","","","","","",""
"","time_out","","html-keyboard-response","540","576926","0.0-1.0-728.0-0.0","0","0","75093","","null","","","null","80","","","","","","","","","","","","","","","",""
"","ITI","","html-keyboard-response","541","577936","0.0-1.0-729.0","0","0","75093","","37","","","75","80","","","","","","","","","","","","","","","k",""
"","S1","","html-keyboard-response","542","578189","0.0-1.0-731.0","0","0","75093","","null","","","null","81","","","","","","","","","","","","","","","",""
"","ISI","","html-keyboard-response","543","580191","0.0-1.0-732.0","0","0","75093","","302","","","75","81","k","","","","","","","","","","","","","","",""
"","S2","","html-keyboard-response","544","580444","0.0-1.0-733.0","0","0","75093","","null","","","null","81","","NaN","","","","","","","","","","","","","",""
"","response","","html-keyboard-response","545","580448","0.0-1.0-734.0","0","0","75093","","3","","","75","81","","","2","81","training","adjacent","FE","6","5","L.jpg","M.jpg","1","0","0","",""
"","feedback","","html-keyboard-response","546","581451","0.0-1.0-735.0-0.0","0","0","75093","","null","","","null","81","","","","","","","","","","","","","","","",""
"","time_out","","html-keyboard-response","547","583454","0.0-1.0-737.0-0.0","0","0","75093","","null","","","null","81","","","","","","","","","","","","","","","",""
"","ITI","","html-keyboard-response","548","584456","0.0-1.0-738.0","0","0","75093","","260","","","68","81","","","","","","","","","","","","","","","d",""
"","S1","","html-keyboard-response","549","584710","0.0-1.0-740.0","0","0","75093","","null","","","null","82","","","","","","","","","","","","","","","",""
"","ISI","","html-keyboard-response","550","586711","0.0-1.0-741.0","0","0","75093","","90","","","75","82","k","","","","","","","","","","","","","","",""
"","S2","","html-keyboard-response","551","586964","0.0-1.0-742.0","0","0","75093","","11","","","75","82","","k","","","","","","","","","","","","","",""
"","response","","html-keyboard-response","552","587167","0.0-1.0-743.0","0","0","75093","","202","","","75","82","","","2","82","training","adjacent","BA","2","1","Q.jpg","P.jpg","1","0","0","",""
"","feedback","","html-keyboard-response","553","588169","0.0-1.0-744.0-0.0","0","0","75093","","null","","","null","82","","","","","","","","","","","","","","","",""
"","time_out","","html-keyboard-response","554","590172","0.0-1.0-746.0-0.0","0","0","75093","","null","","","null","82","","","","","","","","","","","","","","","",""
"","ITI","","html-keyboard-response","555","591174","0.0-1.0-747.0","0","0","75093","","1","","","68","82","","","","","","","","","","","","","","","d",""
"","S1","","html-keyboard-response","556","591426","0.0-1.0-749.0","0","0","75093","","null","","","null","83","","","","","","","","","","","","","","","",""
"","ISI","","html-keyboard-response","557","593429","0.0-1.0-750.0","0","0","75093","","61","","","68","83","d","","","","","","","","","","","","","","",""
"","S2","","html-keyboard-response","558","593681","0.0-1.0-751.0","0","0","75093","","118","","","75","83","","k","","","","","","","","","","","","","",""
"","response","","html-keyboard-response","559","593834","0.0-1.0-752.0","0","0","75093","","151","","","75","83","","","2","83","training","adjacent","CB","3","2","N.jpg","Q.jpg","1","0","0","",""
"","feedback","","html-keyboard-response","560","594837","0.0-1.0-753.0-0.0","0","0","75093","","null","","","null","83","","","","","","","","","","","","","","","",""
"","time_out","","html-keyboard-response","561","596839","0.0-1.0-755.0-0.0","0","0","75093","","null","","","null","83","","","","","","","","","","","","","","","",""
"","ITI","","html-keyboard-response","562","597842","0.0-1.0-756.0","0","0","75093","","46","","","75","83","","","","","","","","","","","","","","","k",""
"","S1","","html-keyboard-response","563","598094","0.0-1.0-758.0","0","0","75093","","null","","","null","84","","","","","","","","","","","","","","","",""
"","ISI","","html-keyboard-response","564","600095","0.0-1.0-759.0","0","0","75093","","0","","","75","84","k","","","","","","","","","","","","","","",""
"","S2","","html-keyboard-response","565","600347","0.0-1.0-760.0","0","0","75093","","78","","","68","84","","d","","","","","","","","","","","","","",""
"","response","","html-keyboard-response","566","600487","0.0-1.0-761.0","0","0","75093","","138","","","68","84","","","2","84","training","adjacent","AB","1","2","P.jpg","Q.jpg","0","1","0","",""
"","feedback","","html-keyboard-response","567","601489","0.0-1.0-762.0-0.0","0","0","75093","","null","","","null","84","","","","","","","","","","","","","","","",""
"","time_out","","html-keyboard-response","568","603491","0.0-1.0-764.0-0.0","0","0","75093","","null","","","null","84","","","","","","","","","","","","","","","",""
"","ITI","","html-keyboard-response","569","604493","0.0-1.0-765.0","0","0","75093","","193","","","75","84","","","","","","","","","","","","","","","k",""
"","S1","","html-keyboard-response","570","604746","0.0-1.0-767.0","0","0","75093","","null","","","null","85","","","","","","","","","","","","","","","",""
"","ISI","","html-keyboard-response","571","606747","0.0-1.0-768.0","0","0","75093","","225","","","75","85","k","","","","","","","","","","","","","","",""
"","S2","","html-keyboard-response","572","607000","0.0-1.0-769.0","0","0","75093","","182","","","68","85","","d","","","","","","","","","","","","","",""
"","response","","html-keyboard-response","573","607162","0.0-1.0-770.0","0","0","75093","","161","","","68","85","","","2","85","training","adjacent","CD","3","4","N.jpg","O.jpg","0","1","0","",""
"","feedback","","html-keyboard-response","574","608179","0.0-1.0-771.0-0.0","0","0","75093","","null","","","null","85","","","","","","","","","","","","","","","",""
"","time_out","","html-keyboard-response","575","610188","0.0-1.0-773.0-0.0","0","0","75093","","null","","","null","85","","","","","","","","","","","","","","","",""
"","ITI","","html-keyboard-response","576","611191","0.0-1.0-774.0","0","0","75093","","206","","","68","85","","","","","","","","","","","","","","","d",""
"","S1","","html-keyboard-response","577","611453","0.0-1.0-776.0","0","0","75093","","null","","","null","86","","","","","","","","","","","","","","","",""
"","ISI","","html-keyboard-response","578","613456","0.0-1.0-777.0","0","0","75093","","111","","","68","86","d","","","","","","","","","","","","","","",""
"","S2","","html-keyboard-response","579","613708","0.0-1.0-778.0","0","0","75093","","119","","","68","86","","d","","","","","","","","","","","","","",""
"","response","","html-keyboard-response","580","613774","0.0-1.0-779.0","0","0","75093","","65","","","68","86","","","2","86","training","adjacent","EF","5","6","M.jpg","L.jpg","0","1","0","",""
"","feedback","","html-keyboard-response","581","614778","0.0-1.0-780.0-0.0","0","0","75093","","null","","","null","86","","","","","","","","","","","","","","","",""
"","time_out","","html-keyboard-response","582","616782","0.0-1.0-782.0-0.0","0","0","75093","","null","","","null","86","","","","","","","","","","","","","","","",""
"","ITI","","html-keyboard-response","583","617785","0.0-1.0-783.0","0","0","75093","","3","","","75","86","","","","","","","","","","","","","","","k",""
"","S1","","html-keyboard-response","584","618038","0.0-1.0-785.0","0","0","75093","","null","","","null","87","","","","","","","","","","","","","","","",""
"","ISI","","html-keyboard-response","585","620042","0.0-1.0-786.0","0","0","75093","","125","","","68","87","d","","","","","","","","","","","","","","",""
"","S2","","html-keyboard-response","586","620306","0.0-1.0-787.0","0","0","75093","","130","","","75","87","","k","","","","","","","","","","","","","",""
"","response","","html-keyboard-response","587","620402","0.0-1.0-788.0","0","0","75093","","94","","","75","87","","","2","87","training","adjacent","AB","1","2","P.jpg","Q.jpg","1","1","1","",""
"","feedback","","html-keyboard-response","588","621404","0.0-1.0-789.0-0.0","0","0","75093","","null","","","null","87","","","","","","","","","","","","","","","",""
"","ITI","","html-keyboard-response","589","622407","0.0-1.0-792.0","0","0","75093","","134","","","75","87","","","","","","","","","","","","","","","k",""
