"success","ttype","start_time","trial_type","trial_index","time_elapsed","internal_node_id","warning","missed_checkup","PID","view_history","rt","responses","repeat_instructions","key_press","index","keypress_isi","keypress_S2","block","trial_num","phase","group_type","pair_type","S1_stim","S2_stim","S1_img","S2_img","S1_chosen","S1_higher","accuracy","keypress_iti","total_bonus_tally"
"true","full_screen","d03032023hr1940","fullscreen","0","14395","0.0-0.0","0","0","52373","","","","","","","","","","","","","","","","","","","","","",""
"","instructions","","instructions","1","36399","0.0-1.0-0.0-0.0","0","0","52373","[{""page_index"":0,""viewing_time"":3330},{""page_index"":1,""viewing_time"":8812},{""page_index"":2,""viewing_time"":8488},{""page_index"":3,""viewing_time"":1372}]","22002","","","","","","","","","","","","","","","","","","","",""
"","comprehension_check","","survey-multi-choice","2","52941","0.0-1.0-0.0-1.0","0","0","52373","","16539","{""Q0"":""True"",""Q1"":""D"",""Q2"":""Only when the screen 'MAKE A CHOICE' is shown"",""Q3"":""Green mark"",""Q4"":""either D or K""}","1","","","","","","","","","","","","","","","","","",""
"","missed_instruction_checkup","","html-keyboard-response","3","54397","0.0-1.0-0.0-2.0-0.0","0","1","52373","","1453","","","32","","","","","","","","","","","","","","","","",""
"","instructions","","instructions","4","64984","0.0-1.0-0.1-0.1","0","0","52373","[{""page_index"":0,""viewing_time"":2946},{""page_index"":1,""viewing_time"":5950},{""page_index"":2,""viewing_time"":749},{""page_index"":3,""viewing_time"":940}]","10585","","","","","","","","","","","","","","","","","","","",""
"","comprehension_check","","survey-multi-choice","5","74798","0.0-1.0-0.1-1.1","0","0","52373","","9810","{""Q0"":""True"",""Q1"":""K"",""Q2"":""Only when the screen 'MAKE A CHOICE' is shown"",""Q3"":""Green mark"",""Q4"":""either D or K""}","1","","","","","","","","","","","","","","","","","",""
"","missed_instruction_checkup","","html-keyboard-response","6","76626","0.0-1.0-0.1-2.1-0.1","0","1","52373","","1825","","","32","","","","","","","","","","","","","","","","",""
"","instructions","","instructions","7","84246","0.0-1.0-0.2-0.2","0","0","52373","[{""page_index"":0,""viewing_time"":2395},{""page_index"":1,""viewing_time"":4280},{""page_index"":2,""viewing_time"":497},{""page_index"":3,""viewing_time"":446}]","7618","","","","","","","","","","","","","","","","","","","",""
"","comprehension_check","","survey-multi-choice","8","95518","0.0-1.0-0.2-1.2","0","0","52373","","11267","{""Q0"":""True"",""Q1"":""K"",""Q2"":""Once the second image appears and while the screen 'MAKE A CHOICE' is shown"",""Q3"":""Green mark"",""Q4"":""either D or K""}","0","","","","","","","","","","","","","","","","","",""
"","start_exp","","html-keyboard-response","9","96922","0.0-1.0-1.0","0","0","52373","","1403","","","32","","","","","","","","","","","","","","","","",""
"","S1","","html-keyboard-response","10","97177","0.0-1.0-2.0","0","0","52373","","null","","","null","0","","","","","","","","","","","","","","","",""
"","ISI","","html-keyboard-response","11","97688","0.0-1.0-3.0","0","0","52373","","null","","","null","0","NaN","","","","","","","","","","","","","","",""
"","S2","","html-keyboard-response","12","97951","0.0-1.0-4.0","0","0","52373","","null","","","null","0","","NaN","","","","","","","","","","","","","",""
"","response","","html-keyboard-response","13","98136","0.0-1.0-5.0-0.0","0","0","52373","","183","","","75","0","","","1","0","training","adjacent","BA","2","1","P.jpg","O.jpg","1","0","0","",""
"","feedback","","html-keyboard-response","14","99145","0.0-1.0-6.0-0.0","0","0","52373","","null","","","null","0","","","","","","","","","","","","","","","",""
"","time_out","","html-keyboard-response","15","101161","0.0-1.0-8.0-0.0","0","0","52373","","null","","","null","0","","","","","","","","","","","","","","","",""
"","ITI","","html-keyboard-response","16","102168","0.0-1.0-9.0","0","0","52373","","null","","","null","0","","","","","","","","","","","","","","","NaN",""
"","S1","","html-keyboard-response","17","102432","0.0-1.0-11.0","0","0","52373","","null","","","null","1","","","","","","","","","","","","","","","",""
"","ISI","","html-keyboard-response","18","102944","0.0-1.0-12.0","0","0","52373","","null","","","null","1","NaN","","","","","","","","","","","","","","",""
"","S2","","html-keyboard-response","19","103207","0.0-1.0-13.0","0","0","52373","","null","","","null","1","","NaN","","","","","","","","","","","","","",""
"","response","","html-keyboard-response","20","103295","0.0-1.0-14.0-0.0","0","0","52373","","86","","","68","1","","","1","1","training","adjacent","ED","5","4","N.jpg","Q.jpg","0","0","1","",""
"","feedback","","html-keyboard-response","21","104307","0.0-1.0-15.0-0.0","0","0","52373","","null","","","null","1","","","","","","","","","","","","","","","",""
"","ITI","","html-keyboard-response","22","105315","0.0-1.0-18.0","0","0","52373","","null","","","null","1","","","","","","","","","","","","","","","NaN",""
"","S1","","html-keyboard-response","23","105578","0.0-1.0-20.0","0","0","52373","","null","","","null","2","","","","","","","","","","","","","","","",""
"","ISI","","html-keyboard-response","24","106089","0.0-1.0-21.0","0","0","52373","","null","","","null","2","NaN","","","","","","","","","","","","","","",""
"","S2","","html-keyboard-response","25","106353","0.0-1.0-22.0","0","0","52373","","null","","","null","2","","NaN","","","","","","","","","","","","","",""
"","response","","html-keyboard-response","26","106402","0.0-1.0-23.0-0.0","0","0","52373","","47","","","75","2","","","1","2","training","adjacent","FG","6","7","R.jpg","L.jpg","1","1","1","",""
"","feedback","","html-keyboard-response","27","107408","0.0-1.0-24.0-0.0","0","0","52373","","null","","","null","2","","","","","","","","","","","","","","","",""
"","ITI","","html-keyboard-response","28","108416","0.0-1.0-27.0","0","0","52373","","null","","","null","2","","","","","","","","","","","","","","","NaN",""
"","S1","","html-keyboard-response","29","108680","0.0-1.0-29.0","0","0","52373","","null","","","null","3","","","","","","","","","","","","","","","",""
"","ISI","","html-keyboard-response","30","109191","0.0-1.0-30.0","0","0","52373","","null","","","null","3","NaN","","","","","","","","","","","","","","",""
"","S2","","html-keyboard-response","31","109435","0.0-1.0-31.0","0","0","52373","","243","","","68","3","","d","1","3","training","adjacent","BC","2","3","P.jpg","M.jpg","0","1","0","",""
"","feedback","","html-keyboard-response","32","110447","0.0-1.0-33.0-0.0","0","0","52373","","null","","","null","3","","","","","","","","","","","","","","","",""
"","time_out","","html-keyboard-response","33","112461","0.0-1.0-35.0-0.0","0","0","52373","","null","","","null","3","","","","","","","","","","","","","","","",""
"","ITI","","html-keyboard-response","34","113469","0.0-1.0-36.0","0","0","52373","","null","","","null","3","","","","","","","","","","","","","","","NaN",""
"","S1","","html-keyboard-response","35","113734","0.0-1.0-38.0","0","0","52373","","null","","","null","4","","","","","","","","","","","","","","","",""
"","ISI","","html-keyboard-response","36","114244","0.0-1.0-39.0","0","0","52373","","466","","","75","4","k","","","","","","","","","","","","","","",""
"","S2","","html-keyboard-response","37","114507","0.0-1.0-40.0","0","0","52373","","null","","","null","4","","NaN","","","","","","","","","","","","","",""
"","response","","html-keyboard-response","38","114684","0.0-1.0-41.0-0.0","0","0","52373","","176","","","75","4","","","1","4","training","adjacent","CB","3","2","M.jpg","P.jpg","1","0","0","",""
"","feedback","","html-keyboard-response","39","115686","0.0-1.0-42.0-0.0","0","0","52373","","null","","","null","4","","","","","","","","","","","","","","","",""
"","time_out","","html-keyboard-response","40","117700","0.0-1.0-44.0-0.0","0","0","52373","","null","","","null","4","","","","","","","","","","","","","","","",""
"","ITI","","html-keyboard-response","41","118708","0.0-1.0-45.0","0","0","52373","","null","","","null","4","","","","","","","","","","","","","","","NaN",""
"","S1","","html-keyboard-response","42","118973","0.0-1.0-47.0","0","0","52373","","null","","","null","5","","","","","","","","","","","","","","","",""
"","ISI","","html-keyboard-response","43","119484","0.0-1.0-48.0","0","0","52373","","null","","","null","5","NaN","","","","","","","","","","","","","","",""
"","S2","","html-keyboard-response","44","119703","0.0-1.0-49.0","0","0","52373","","217","","","68","5","","d","1","5","training","adjacent","CD","3","4","M.jpg","Q.jpg","0","1","0","",""
"","feedback","","html-keyboard-response","45","120709","0.0-1.0-51.0-0.0","0","0","52373","","null","","","null","5","","","","","","","","","","","","","","","",""
"","time_out","","html-keyboard-response","46","122724","0.0-1.0-53.0-0.0","0","0","52373","","null","","","null","5","","","","","","","","","","","","","","","",""
"","ITI","","html-keyboard-response","47","123732","0.0-1.0-54.0","0","0","52373","","null","","","null","5","","","","","","","","","","","","","","","NaN",""
"","S1","","html-keyboard-response","48","123995","0.0-1.0-56.0","0","0","52373","","null","","","null","6","","","","","","","","","","","","","","","",""
"","ISI","","html-keyboard-response","49","124507","0.0-1.0-57.0","0","0","52373","","null","","","null","6","NaN","","","","","","","","","","","","","","",""
"","S2","","html-keyboard-response","50","124771","0.0-1.0-58.0","0","0","52373","","null","","","null","6","","NaN","","","","","","","","","","","","","",""
"","response","","html-keyboard-response","51","124809","0.0-1.0-59.0-0.0","0","0","52373","","36","","","75","6","","","1","6","training","adjacent","DC","4","3","Q.jpg","M.jpg","1","0","0","",""
"","feedback","","html-keyboard-response","52","125825","0.0-1.0-60.0-0.0","0","0","52373","","null","","","null","6","","","","","","","","","","","","","","","",""
"","time_out","","html-keyboard-response","53","127839","0.0-1.0-62.0-0.0","0","0","52373","","null","","","null","6","","","","","","","","","","","","","","","",""
"","ITI","","html-keyboard-response","54","128847","0.0-1.0-63.0","0","0","52373","","null","","","null","6","","","","","","","","","","","","","","","NaN",""
"","S1","","html-keyboard-response","55","129110","0.0-1.0-65.0","0","0","52373","","null","","","null","7","","","","","","","","","","","","","","","",""
"","ISI","","html-keyboard-response","56","129621","0.0-1.0-66.0","0","0","52373","","null","","","null","7","NaN","","","","","","","","","","","","","","",""
"","S2","","html-keyboard-response","57","129886","0.0-1.0-67.0","0","0","52373","","null","","","null","7","","NaN","","","","","","","","","","","","","",""
"","response","","html-keyboard-response","58","130015","0.0-1.0-68.0-0.0","0","0","52373","","127","","","75","7","","","1","7","training","adjacent","AB","1","2","O.jpg","P.jpg","1","1","1","",""
"","feedback","","html-keyboard-response","59","131033","0.0-1.0-69.0-0.0","0","0","52373","","null","","","null","7","","","","","","","","","","","","","","","",""
"","ITI","","html-keyboard-response","60","132041","0.0-1.0-72.0","0","0","52373","","null","","","null","7","","","","","","","","","","","","","","","NaN",""
"","S1","","html-keyboard-response","61","132304","0.0-1.0-74.0","0","0","52373","","null","","","null","8","","","","","","","","","","","","","","","",""
"","ISI","","html-keyboard-response","62","132815","0.0-1.0-75.0","0","0","52373","","null","","","null","8","NaN","","","","","","","","","","","","","","",""
"","S2","","html-keyboard-response","63","133037","0.0-1.0-76.0","0","0","52373","","220","","","68","8","","d","1","8","training","adjacent","GF","7","6","L.jpg","R.jpg","0","0","1","",""
"","feedback","","html-keyboard-response","64","134040","0.0-1.0-78.0-0.0","0","0","52373","","null","","","null","8","","","","","","","","","","","","","","","",""
"","ITI","","html-keyboard-response","65","135048","0.0-1.0-81.0","0","0","52373","","null","","","null","8","","","","","","","","","","","","","","","NaN",""
"","S1","","html-keyboard-response","66","135312","0.0-1.0-83.0","0","0","52373","","null","","","null","9","","","","","","","","","","","","","","","",""
"","ISI","","html-keyboard-response","67","135823","0.0-1.0-84.0","0","0","52373","","null","","","null","9","NaN","","","","","","","","","","","","","","",""
"","S2","","html-keyboard-response","68","135985","0.0-1.0-85.0","0","0","52373","","160","","","75","9","","k","1","9","training","adjacent","EF","5","6","N.jpg","R.jpg","1","1","1","",""
"","feedback","","html-keyboard-response","69","137001","0.0-1.0-87.0-0.0","0","0","52373","","null","","","null","9","","","","","","","","","","","","","","","",""
"","ITI","","html-keyboard-response","70","138008","0.0-1.0-90.0","0","0","52373","","null","","","null","9","","","","","","","","","","","","","","","NaN",""
"","S1","","html-keyboard-response","71","138273","0.0-1.0-92.0","0","0","52373","","null","","","null","10","","","","","","","","","","","","","","","",""
"","ISI","","html-keyboard-response","72","138783","0.0-1.0-93.0","0","0","52373","","null","","","null","10","NaN","","","","","","","","","","","","","","",""
"","S2","","html-keyboard-response","73","138859","0.0-1.0-94.0","0","0","52373","","73","","","68","10","","d","1","10","training","adjacent","FE","6","5","R.jpg","N.jpg","0","0","1","",""
"","feedback","","html-keyboard-response","74","139869","0.0-1.0-96.0-0.0","0","0","52373","","null","","","null","10","","","","","","","","","","","","","","","",""
"","ITI","","html-keyboard-response","75","140876","0.0-1.0-99.0","0","0","52373","","null","","","null","10","","","","","","","","","","","","","","","NaN",""
"","S1","","html-keyboard-response","76","141141","0.0-1.0-101.0","0","0","52373","","null","","","null","11","","","","","","","","","","","","","","","",""
"","ISI","","html-keyboard-response","77","141651","0.0-1.0-102.0","0","0","52373","","null","","","null","11","NaN","","","","","","","","","","","","","","",""
"","S2","","html-keyboard-response","78","141728","0.0-1.0-103.0","0","0","52373","","74","","","75","11","","k","1","11","training","adjacent","CD","3","4","M.jpg","Q.jpg","1","1","1","",""
"","feedback","","html-keyboard-response","79","142737","0.0-1.0-105.0-0.0","0","0","52373","","null","","","null","11","","","","","","","","","","","","","","","",""
"","ITI","","html-keyboard-response","80","143746","0.0-1.0-108.0","0","0","52373","","null","","","null","11","","","","","","","","","","","","","","","NaN",""
"","S1","","html-keyboard-response","81","144008","0.0-1.0-110.0","0","0","52373","","null","","","null","12","","","","","","","","","","","","","","","",""
"","ISI","","html-keyboard-response","82","144519","0.0-1.0-111.0","0","0","52373","","null","","","null","12","NaN","","","","","","","","","","","","","","",""
"","S2","","html-keyboard-response","83","144783","0.0-1.0-112.0","0","0","52373","","261","","","75","12","","k","1","12","training","adjacent","FE","6","5","R.jpg","N.jpg","1","0","0","",""
"","feedback","","html-keyboard-response","84","145790","0.0-1.0-114.0-0.0","0","0","52373","","null","","","null","12","","","","","","","","","","","","","","","",""
"","time_out","","html-keyboard-response","85","147805","0.0-1.0-116.0-0.0","0","0","52373","","null","","","null","12","","","","","","","","","","","","","","","",""
"","ITI","","html-keyboard-response","86","148813","0.0-1.0-117.0","0","0","52373","","null","","","null","12","","","","","","","","","","","","","","","NaN",""
"","S1","","html-keyboard-response","87","149077","0.0-1.0-119.0","0","0","52373","","null","","","null","13","","","","","","","","","","","","","","","",""
"","ISI","","html-keyboard-response","88","149588","0.0-1.0-120.0","0","0","52373","","null","","","null","13","NaN","","","","","","","","","","","","","","",""
"","S2","","html-keyboard-response","89","149811","0.0-1.0-121.0","0","0","52373","","221","","","75","13","","k","1","13","training","adjacent","CB","3","2","M.jpg","P.jpg","1","0","0","",""
"","feedback","","html-keyboard-response","90","150813","0.0-1.0-123.0-0.0","0","0","52373","","null","","","null","13","","","","","","","","","","","","","","","",""
"","time_out","","html-keyboard-response","91","152828","0.0-1.0-125.0-0.0","0","0","52373","","null","","","null","13","","","","","","","","","","","","","","","",""
"","ITI","","html-keyboard-response","92","153836","0.0-1.0-126.0","0","0","52373","","null","","","null","13","","","","","","","","","","","","","","","NaN",""
"","S1","","html-keyboard-response","93","154099","0.0-1.0-128.0","0","0","52373","","null","","","null","14","","","","","","","","","","","","","","","",""
"","ISI","","html-keyboard-response","94","154610","0.0-1.0-129.0","0","0","52373","","null","","","null","14","NaN","","","","","","","","","","","","","","",""
"","S2","","html-keyboard-response","95","154875","0.0-1.0-130.0","0","0","52373","","null","","","null","14","","NaN","","","","","","","","","","","","","",""
"","response","","html-keyboard-response","96","154931","0.0-1.0-131.0-0.0","0","0","52373","","54","","","75","14","","","1","14","training","adjacent","DE","4","5","Q.jpg","N.jpg","1","1","1","",""
"","feedback","","html-keyboard-response","97","155945","0.0-1.0-132.0-0.0","0","0","52373","","null","","","null","14","","","","","","","","","","","","","","","",""
"","ITI","","html-keyboard-response","98","156952","0.0-1.0-135.0","0","0","52373","","null","","","null","14","","","","","","","","","","","","","","","NaN",""
"","S1","","html-keyboard-response","99","157216","0.0-1.0-137.0","0","0","52373","","null","","","null","15","","","","","","","","","","","","","","","",""
"","ISI","","html-keyboard-response","100","157727","0.0-1.0-138.0","0","0","52373","","null","","","null","15","NaN","","","","","","","","","","","","","","",""
"","S2","","html-keyboard-response","101","157954","0.0-1.0-139.0","0","0","52373","","225","","","75","15","","k","1","15","training","adjacent","FG","6","7","R.jpg","L.jpg","1","1","1","",""
"","feedback","","html-keyboard-response","102","158968","0.0-1.0-141.0-0.0","0","0","52373","","null","","","null","15","","","","","","","","","","","","","","","",""
"","ITI","","html-keyboard-response","103","159975","0.0-1.0-144.0","0","0","52373","","null","","","null","15","","","","","","","","","","","","","","","NaN",""
"","S1","","html-keyboard-response","104","160237","0.0-1.0-146.0","0","0","52373","","null","","","null","16","","","","","","","","","","","","","","","",""
"","ISI","","html-keyboard-response","105","160749","0.0-1.0-147.0","0","0","52373","","null","","","null","16","NaN","","","","","","","","","","","","","","",""
"","S2","","html-keyboard-response","106","160799","0.0-1.0-148.0","0","0","52373","","47","","","68","16","","d","1","16","training","adjacent","ED","5","4","N.jpg","Q.jpg","0","0","1","",""
"","feedback","","html-keyboard-response","107","161804","0.0-1.0-150.0-0.0","0","0","52373","","null","","","null","16","","","","","","","","","","","","","","","",""
"","ITI","","html-keyboard-response","108","162811","0.0-1.0-153.0","0","0","52373","","null","","","null","16","","","","","","","","","","","","","","","NaN",""
"","S1","","html-keyboard-response","109","163075","0.0-1.0-155.0","0","0","52373","","null","","","null","17","","","","","","","","","","","","","","","",""
"","ISI","","html-keyboard-response","110","163587","0.0-1.0-156.0","0","0","52373","","null","","","null","17","NaN","","","","","","","","","","","","","","",""
"","S2","","html-keyboard-response","111","163776","0.0-1.0-157.0","0","0","52373","","187","","","75","17","","k","1","17","training","adjacent","AB","1","2","O.jpg","P.jpg","1","1","1","",""
"","feedback","","html-keyboard-response","112","164780","0.0-1.0-159.0-0.0","0","0","52373","","null","","","null","17","","","","","","","","","","","","","","","",""
"","ITI","","html-keyboard-response","113","165788","0.0-1.0-162.0","0","0","52373","","null","","","null","17","","","","","","","","","","","","","","","NaN",""
"","S1","","html-keyboard-response","114","166053","0.0-1.0-164.0","0","0","52373","","null","","","null","18","","","","","","","","","","","","","","","",""
"","ISI","","html-keyboard-response","115","166563","0.0-1.0-165.0","0","0","52373","","446","","","68","18","d","","","","","","","","","","","","","","",""
"","S2","","html-keyboard-response","116","166827","0.0-1.0-166.0","0","0","52373","","null","","","null","18","","NaN","","","","","","","","","","","","","",""
"","response","","html-keyboard-response","117","167164","0.0-1.0-167.0-0.0","0","0","52373","","336","","","75","18","","","1","18","training","adjacent","GF","7","6","L.jpg","R.jpg","1","0","0","",""
"","feedback","","html-keyboard-response","118","168175","0.0-1.0-168.0-0.0","0","0","52373","","null","","","null","18","","","","","","","","","","","","","","","",""
"","time_out","","html-keyboard-response","119","170192","0.0-1.0-170.0-0.0","0","0","52373","","null","","","null","18","","","","","","","","","","","","","","","",""
"","ITI","","html-keyboard-response","120","171199","0.0-1.0-171.0","0","0","52373","","null","","","null","18","","","","","","","","","","","","","","","NaN",""
"","S1","","html-keyboard-response","121","171462","0.0-1.0-173.0","0","0","52373","","null","","","null","19","","","","","","","","","","","","","","","",""
"","ISI","","html-keyboard-response","122","171974","0.0-1.0-174.0","0","0","52373","","null","","","null","19","NaN","","","","","","","","","","","","","","",""
"","S2","","html-keyboard-response","123","172032","0.0-1.0-175.0","0","0","52373","","55","","","68","19","","d","1","19","training","adjacent","ED","5","4","N.jpg","Q.jpg","0","0","1","",""
"","feedback","","html-keyboard-response","124","173043","0.0-1.0-177.0-0.0","0","0","52373","","null","","","null","19","","","","","","","","","","","","","","","",""
"","ITI","","html-keyboard-response","125","174052","0.0-1.0-180.0","0","0","52373","","null","","","null","19","","","","","","","","","","","","","","","NaN",""
"","S1","","html-keyboard-response","126","174314","0.0-1.0-182.0","0","0","52373","","null","","","null","20","","","","","","","","","","","","","","","",""
"","ISI","","html-keyboard-response","127","174826","0.0-1.0-183.0","0","0","52373","","null","","","null","20","NaN","","","","","","","","","","","","","","",""
"","S2","","html-keyboard-response","128","174877","0.0-1.0-184.0","0","0","52373","","49","","","75","20","","k","1","20","training","adjacent","FE","6","5","R.jpg","N.jpg","1","0","0","",""
"","feedback","","html-keyboard-response","129","175880","0.0-1.0-186.0-0.0","0","0","52373","","null","","","null","20","","","","","","","","","","","","","","","",""
"","time_out","","html-keyboard-response","130","177896","0.0-1.0-188.0-0.0","0","0","52373","","null","","","null","20","","","","","","","","","","","","","","","",""
"","ITI","","html-keyboard-response","131","178903","0.0-1.0-189.0","0","0","52373","","null","","","null","20","","","","","","","","","","","","","","","NaN",""
"","S1","","html-keyboard-response","132","179166","0.0-1.0-191.0","0","0","52373","","null","","","null","21","","","","","","","","","","","","","","","",""
"","ISI","","html-keyboard-response","133","179677","0.0-1.0-192.0","0","0","52373","","408","","","68","21","d","","","","","","","","","","","","","","",""
"","S2","","html-keyboard-response","134","179942","0.0-1.0-193.0","0","0","52373","","null","","","null","21","","NaN","","","","","","","","","","","","","",""
"","response","","html-keyboard-response","135","180065","0.0-1.0-194.0-0.0","0","0","52373","","121","","","75","21","","","1","21","training","adjacent","DC","4","3","Q.jpg","M.jpg","1","0","0","",""
"","feedback","","html-keyboard-response","136","181073","0.0-1.0-195.0-0.0","0","0","52373","","null","","","null","21","","","","","","","","","","","","","","","",""
"","time_out","","html-keyboard-response","137","183088","0.0-1.0-197.0-0.0","0","0","52373","","null","","","null","21","","","","","","","","","","","","","","","",""
"","ITI","","html-keyboard-response","138","184096","0.0-1.0-198.0","0","0","52373","","null","","","null","21","","","","","","","","","","","","","","","NaN",""
"","S1","","html-keyboard-response","139","184359","0.0-1.0-200.0","0","0","52373","","null","","","null","22","","","","","","","","","","","","","","","",""
"","ISI","","html-keyboard-response","140","184872","0.0-1.0-201.0","0","0","52373","","null","","","null","22","NaN","","","","","","","","","","","","","","",""
"","S2","","html-keyboard-response","141","184905","0.0-1.0-202.0","0","0","52373","","32","","","75","22","","k","1","22","training","adjacent","CB","3","2","M.jpg","P.jpg","1","0","0","",""
"","feedback","","html-keyboard-response","142","185910","0.0-1.0-204.0-0.0","0","0","52373","","null","","","null","22","","","","","","","","","","","","","","","",""
"","time_out","","html-keyboard-response","143","187925","0.0-1.0-206.0-0.0","0","0","52373","","null","","","null","22","","","","","","","","","","","","","","","",""
"","ITI","","html-keyboard-response","144","188933","0.0-1.0-207.0","0","0","52373","","null","","","null","22","","","","","","","","","","","","","","","NaN",""
"","S1","","html-keyboard-response","145","189196","0.0-1.0-209.0","0","0","52373","","null","","","null","23","","","","","","","","","","","","","","","",""
"","ISI","","html-keyboard-response","146","189709","0.0-1.0-210.0","0","0","52373","","null","","","null","23","NaN","","","","","","","","","","","","","","",""
"","S2","","html-keyboard-response","147","189971","0.0-1.0-211.0","0","0","52373","","null","","","null","23","","NaN","","","","","","","","","","","","","",""
"","response","","html-keyboard-response","148","190001","0.0-1.0-212.0-0.0","0","0","52373","","28","","","75","23","","","1","23","training","adjacent","EF","5","6","N.jpg","R.jpg","1","1","1","",""
"","feedback","","html-keyboard-response","149","191011","0.0-1.0-213.0-0.0","0","0","52373","","null","","","null","23","","","","","","","","","","","","","","","",""
"","ITI","","html-keyboard-response","150","192018","0.0-1.0-216.0","0","0","52373","","null","","","null","23","","","","","","","","","","","","","","","NaN",""
"","S1","","html-keyboard-response","151","192282","0.0-1.0-218.0","0","0","52373","","null","","","null","24","","","","","","","","","","","","","","","",""
"","ISI","","html-keyboard-response","152","192793","0.0-1.0-219.0","0","0","52373","","null","","","null","24","NaN","","","","","","","","","","","","","","",""
"","S2","","html-keyboard-response","153","192826","0.0-1.0-220.0","0","0","52373","","30","","","75","24","","k","1","24","training","adjacent","CB","3","2","M.jpg","P.jpg","1","0","0","",""
"","feedback","","html-keyboard-response","154","193831","0.0-1.0-222.0-0.0","0","0","52373","","null","","","null","24","","","","","","","","","","","","","","","",""
"","time_out","","html-keyboard-response","155","195847","0.0-1.0-224.0-0.0","0","0","52373","","null","","","null","24","","","","","","","","","","","","","","","",""
"","ITI","","html-keyboard-response","156","196854","0.0-1.0-225.0","0","0","52373","","null","","","null","24","","","","","","","","","","","","","","","NaN",""
"","S1","","html-keyboard-response","157","197118","0.0-1.0-227.0","0","0","52373","","null","","","null","25","","","","","","","","","","","","","","","",""
"","ISI","","html-keyboard-response","158","197630","0.0-1.0-228.0","0","0","52373","","null","","","null","25","NaN","","","","","","","","","","","","","","",""
"","S2","","html-keyboard-response","159","197875","0.0-1.0-229.0","0","0","52373","","243","","","68","25","","d","1","25","training","adjacent","BA","2","1","P.jpg","O.jpg","0","0","1","",""
"","feedback","","html-keyboard-response","160","198885","0.0-1.0-231.0-0.0","0","0","52373","","null","","","null","25","","","","","","","","","","","","","","","",""
"","ITI","","html-keyboard-response","161","199893","0.0-1.0-234.0","0","0","52373","","null","","","null","25","","","","","","","","","","","","","","","NaN",""
"","S1","","html-keyboard-response","162","200157","0.0-1.0-236.0","0","0","52373","","null","","","null","26","","","","","","","","","","","","","","","",""
"","ISI","","html-keyboard-response","163","200669","0.0-1.0-237.0","0","0","52373","","null","","","null","26","NaN","","","","","","","","","","","","","","",""
"","S2","","html-keyboard-response","164","200932","0.0-1.0-238.0","0","0","52373","","null","","","null","26","","NaN","","","","","","","","","","","","","",""
"","response","","html-keyboard-response","165","201087","0.0-1.0-239.0-0.0","0","0","52373","","153","","","75","26","","","1","26","training","adjacent","BA","2","1","P.jpg","O.jpg","1","0","0","",""
"","feedback","","html-keyboard-response","166","202095","0.0-1.0-240.0-0.0","0","0","52373","","null","","","null","26","","","","","","","","","","","","","","","",""
"","time_out","","html-keyboard-response","167","204110","0.0-1.0-242.0-0.0","0","0","52373","","null","","","null","26","","","","","","","","","","","","","","","",""
"","ITI","","html-keyboard-response","168","205118","0.0-1.0-243.0","0","0","52373","","null","","","null","26","","","","","","","","","","","","","","","NaN",""
"","S1","","html-keyboard-response","169","205382","0.0-1.0-245.0","0","0","52373","","null","","","null","27","","","","","","","","","","","","","","","",""
"","ISI","","html-keyboard-response","170","205893","0.0-1.0-246.0","0","0","52373","","null","","","null","27","NaN","","","","","","","","","","","","","","",""
"","S2","","html-keyboard-response","171","205976","0.0-1.0-247.0","0","0","52373","","81","","","75","27","","k","1","27","training","adjacent","FG","6","7","R.jpg","L.jpg","1","1","1","",""
"","feedback","","html-keyboard-response","172","206979","0.0-1.0-249.0-0.0","0","0","52373","","null","","","null","27","","","","","","","","","","","","","","","",""
"","ITI","","html-keyboard-response","173","207986","0.0-1.0-252.0","0","0","52373","","null","","","null","27","","","","","","","","","","","","","","","NaN",""
"","S1","","html-keyboard-response","174","208249","0.0-1.0-254.0","0","0","52373","","null","","","null","28","","","","","","","","","","","","","","","",""
"","ISI","","html-keyboard-response","175","208761","0.0-1.0-255.0","0","0","52373","","null","","","null","28","NaN","","","","","","","","","","","","","","",""
"","S2","","html-keyboard-response","176","208813","0.0-1.0-256.0","0","0","52373","","50","","","68","28","","d","1","28","training","adjacent","EF","5","6","N.jpg","R.jpg","0","1","0","",""
"","feedback","","html-keyboard-response","177","209816","0.0-1.0-258.0-0.0","0","0","52373","","null","","","null","28","","","","","","","","","","","","","","","",""
"","time_out","","html-keyboard-response","178","211831","0.0-1.0-260.0-0.0","0","0","52373","","null","","","null","28","","","","","","","","","","","","","","","",""
"","ITI","","html-keyboard-response","179","212838","0.0-1.0-261.0","0","0","52373","","null","","","null","28","","","","","","","","","","","","","","","NaN",""
"","S1","","html-keyboard-response","180","213102","0.0-1.0-263.0","0","0","52373","","null","","","null","29","","","","","","","","","","","","","","","",""
"","ISI","","html-keyboard-response","181","213613","0.0-1.0-264.0","0","0","52373","","457","","","75","29","k","","","","","","","","","","","","","","",""
"","S2","","html-keyboard-response","182","213877","0.0-1.0-265.0","0","0","52373","","null","","","null","29","","NaN","","","","","","","","","","","","","",""
"","response","","html-keyboard-response","183","214091","0.0-1.0-266.0-0.0","0","0","52373","","212","","","75","29","","","1","29","training","adjacent","BC","2","3","P.jpg","M.jpg","1","1","1","",""
"","feedback","","html-keyboard-response","184","215101","0.0-1.0-267.0-0.0","0","0","52373","","null","","","null","29","","","","","","","","","","","","","","","",""
"","ITI","","html-keyboard-response","185","216108","0.0-1.0-270.0","0","0","52373","","null","","","null","29","","","","","","","","","","","","","","","NaN",""
"","S1","","html-keyboard-response","186","216371","0.0-1.0-272.0","0","0","52373","","null","","","null","30","","","","","","","","","","","","","","","",""
"","ISI","","html-keyboard-response","187","216884","0.0-1.0-273.0","0","0","52373","","null","","","null","30","NaN","","","","","","","","","","","","","","",""
"","S2","","html-keyboard-response","188","217128","0.0-1.0-274.0","0","0","52373","","243","","","75","30","","k","1","30","training","adjacent","CD","3","4","M.jpg","Q.jpg","1","1","1","",""
"","feedback","","html-keyboard-response","189","218139","0.0-1.0-276.0-0.0","0","0","52373","","null","","","null","30","","","","","","","","","","","","","","","",""
"","ITI","","html-keyboard-response","190","219146","0.0-1.0-279.0","0","0","52373","","null","","","null","30","","","","","","","","","","","","","","","NaN",""
"","S1","","html-keyboard-response","191","219410","0.0-1.0-281.0","0","0","52373","","null","","","null","31","","","","","","","","","","","","","","","",""
"","ISI","","html-keyboard-response","192","219921","0.0-1.0-282.0","0","0","52373","","null","","","null","31","NaN","","","","","","","","","","","","","","",""
"","S2","","html-keyboard-response","193","220056","0.0-1.0-283.0","0","0","52373","","132","","","75","31","","k","1","31","training","adjacent","BC","2","3","P.jpg","M.jpg","1","1","1","",""
"","feedback","","html-keyboard-response","194","221069","0.0-1.0-285.0-0.0","0","0","52373","","null","","","null","31","","","","","","","","","","","","","","","",""
"","ITI","","html-keyboard-response","195","222077","0.0-1.0-288.0","0","0","52373","","null","","","null","31","","","","","","","","","","","","","","","NaN",""
"","S1","","html-keyboard-response","196","222340","0.0-1.0-290.0","0","0","52373","","null","","","null","32","","","","","","","","","","","","","","","",""
"","ISI","","html-keyboard-response","197","222851","0.0-1.0-291.0","0","0","52373","","null","","","null","32","NaN","","","","","","","","","","","","","","",""
"","S2","","html-keyboard-response","198","222902","0.0-1.0-292.0","0","0","52373","","49","","","68","32","","d","1","32","training","adjacent","AB","1","2","O.jpg","P.jpg","0","1","0","",""
"","feedback","","html-keyboard-response","199","223906","0.0-1.0-294.0-0.0","0","0","52373","","null","","","null","32","","","","","","","","","","","","","","","",""
"","time_out","","html-keyboard-response","200","225921","0.0-1.0-296.0-0.0","0","0","52373","","null","","","null","32","","","","","","","","","","","","","","","",""
"","ITI","","html-keyboard-response","201","226929","0.0-1.0-297.0","0","0","52373","","null","","","null","32","","","","","","","","","","","","","","","NaN",""
"","S1","","html-keyboard-response","202","227191","0.0-1.0-299.0","0","0","52373","","null","","","null","33","","","","","","","","","","","","","","","",""
"","ISI","","html-keyboard-response","203","227704","0.0-1.0-300.0","0","0","52373","","478","","","75","33","k","","","","","","","","","","","","","","",""
"","S2","","html-keyboard-response","204","227966","0.0-1.0-301.0","0","0","52373","","null","","","null","33","","NaN","","","","","","","","","","","","","",""
"","response","","html-keyboard-response","205","228106","0.0-1.0-302.0-0.0","0","0","52373","","138","","","75","33","","","1","33","training","adjacent","ED","5","4","N.jpg","Q.jpg","1","0","0","",""
"","feedback","","html-keyboard-response","206","229115","0.0-1.0-303.0-0.0","0","0","52373","","null","","","null","33","","","","","","","","","","","","","","","",""
"","time_out","","html-keyboard-response","207","231129","0.0-1.0-305.0-0.0","0","0","52373","","null","","","null","33","","","","","","","","","","","","","","","",""
"","ITI","","html-keyboard-response","208","232137","0.0-1.0-306.0","0","0","52373","","null","","","null","33","","","","","","","","","","","","","","","NaN",""
"","S1","","html-keyboard-response","209","232400","0.0-1.0-308.0","0","0","52373","","null","","","null","34","","","","","","","","","","","","","","","",""
"","ISI","","html-keyboard-response","210","232912","0.0-1.0-309.0","0","0","52373","","null","","","null","34","NaN","","","","","","","","","","","","","","",""
"","S2","","html-keyboard-response","211","233078","0.0-1.0-310.0","0","0","52373","","164","","","68","34","","d","1","34","training","adjacent","DE","4","5","Q.jpg","N.jpg","0","1","0","",""
"","feedback","","html-keyboard-response","212","234091","0.0-1.0-312.0-0.0","0","0","52373","","null","","","null","34","","","","","","","","","","","","","","","",""
"","time_out","","html-keyboard-response","213","236107","0.0-1.0-314.0-0.0","0","0","52373","","null","","","null","34","","","","","","","","","","","","","","","",""
"","ITI","","html-keyboard-response","214","237114","0.0-1.0-315.0","0","0","52373","","null","","","null","34","","","","","","","","","","","","","","","NaN",""
"","S1","","html-keyboard-response","215","237377","0.0-1.0-317.0","0","0","52373","","null","","","null","35","","","","","","","","","","","","","","","",""
"","ISI","","html-keyboard-response","216","237888","0.0-1.0-318.0","0","0","52373","","null","","","null","35","NaN","","","","","","","","","","","","","","",""
"","S2","","html-keyboard-response","217","237967","0.0-1.0-319.0","0","0","52373","","77","","","75","35","","k","1","35","training","adjacent","FE","6","5","R.jpg","N.jpg","1","0","0","",""
"","feedback","","html-keyboard-response","218","238974","0.0-1.0-321.0-0.0","0","0","52373","","null","","","null","35","","","","","","","","","","","","","","","",""
"","time_out","","html-keyboard-response","219","240989","0.0-1.0-323.0-0.0","0","0","52373","","null","","","null","35","","","","","","","","","","","","","","","",""
"","ITI","","html-keyboard-response","220","241997","0.0-1.0-324.0","0","0","52373","","null","","","null","35","","","","","","","","","","","","","","","NaN",""
"","S1","","html-keyboard-response","221","242260","0.0-1.0-326.0","0","0","52373","","null","","","null","36","","","","","","","","","","","","","","","",""
"","ISI","","html-keyboard-response","222","242772","0.0-1.0-327.0","0","0","52373","","355","","","75","36","k","","","","","","","","","","","","","","",""
"","S2","","html-keyboard-response","223","242945","0.0-1.0-328.0","0","0","52373","","171","","","75","36","","k","1","36","training","adjacent","DE","4","5","Q.jpg","N.jpg","1","1","1","",""
"","feedback","","html-keyboard-response","224","243951","0.0-1.0-330.0-0.0","0","0","52373","","null","","","null","36","","","","","","","","","","","","","","","",""
"","ITI","","html-keyboard-response","225","244958","0.0-1.0-333.0","0","0","52373","","null","","","null","36","","","","","","","","","","","","","","","NaN",""
"","S1","","html-keyboard-response","226","245221","0.0-1.0-335.0","0","0","52373","","null","","","null","37","","","","","","","","","","","","","","","",""
"","ISI","","html-keyboard-response","227","245732","0.0-1.0-336.0","0","0","52373","","null","","","null","37","NaN","","","","","","","","","","","","","","",""
"","S2","","html-keyboard-response","228","245874","0.0-1.0-337.0","0","0","52373","","139","","","68","37","","d","1","37","training","adjacent","AB","1","2","O.jpg","P.jpg","0","1","0","",""
"","feedback","","html-keyboard-response","229","246880","0.0-1.0-339.0-0.0","0","0","52373","","null","","","null","37","","","","","","","","","","","","","","","",""
"","time_out","","html-keyboard-response","230","248895","0.0-1.0-341.0-0.0","0","0","52373","","null","","","null","37","","","","","","","","","","","","","","","",""
"","ITI","","html-keyboard-response","231","249903","0.0-1.0-342.0","0","0","52373","","null","","","null","37","","","","","","","","","","","","","","","NaN",""
"","S1","","html-keyboard-response","232","250167","0.0-1.0-344.0","0","0","52373","","null","","","null","38","","","","","","","","","","","","","","","",""
"","ISI","","html-keyboard-response","233","250678","0.0-1.0-345.0","0","0","52373","","null","","","null","38","NaN","","","","","","","","","","","","","","",""
"","S2","","html-keyboard-response","234","250892","0.0-1.0-346.0","0","0","52373","","211","","","75","38","","k","1","38","training","adjacent","BA","2","1","P.jpg","O.jpg","1","0","0","",""
"","feedback","","html-keyboard-response","235","251902","0.0-1.0-348.0-0.0","0","0","52373","","null","","","null","38","","","","","","","","","","","","","","","",""
"","time_out","","html-keyboard-response","236","253918","0.0-1.0-350.0-0.0","0","0","52373","","null","","","null","38","","","","","","","","","","","","","","","",""
"","ITI","","html-keyboard-response","237","254926","0.0-1.0-351.0","0","0","52373","","null","","","null","38","","","","","","","","","","","","","","","NaN",""
"","S1","","html-keyboard-response","238","255189","0.0-1.0-353.0","0","0","52373","","null","","","null","39","","","","","","","","","","","","","","","",""
"","ISI","","html-keyboard-response","239","255701","0.0-1.0-354.0","0","0","52373","","80","","","75","39","k","","","","","","","","","","","","","","",""
"","S2","","html-keyboard-response","240","255965","0.0-1.0-355.0","0","0","52373","","null","","","null","39","","NaN","","","","","","","","","","","","","",""
"","response","","html-keyboard-response","241","256097","0.0-1.0-356.0-0.0","0","0","52373","","130","","","75","39","","","1","39","training","adjacent","GF","7","6","L.jpg","R.jpg","1","0","0","",""
"","feedback","","html-keyboard-response","242","257111","0.0-1.0-357.0-0.0","0","0","52373","","null","","","null","39","","","","","","","","","","","","","","","",""
"","time_out","","html-keyboard-response","243","259127","0.0-1.0-359.0-0.0","0","0","52373","","null","","","null","39","","","","","","","","","","","","","","","",""
"","ITI","","html-keyboard-response","244","260134","0.0-1.0-360.0","0","0","52373","","null","","","null","39","","","","","","","","","","","","","","","NaN",""
"","S1","","html-keyboard-response","245","260398","0.0-1.0-362.0","0","0","52373","","null","","","null","40","","","","","","","","","","","","","","","",""
"","ISI","","html-keyboard-response","246","260910","0.0-1.0-363.0","0","0","52373","","97","","","68","40","d","","","","","","","","","","","","","","",""
"","S2","","html-keyboard-response","247","260967","0.0-1.0-364.0","0","0","52373","","54","","","68","40","","d","1","40","training","adjacent","BC","2","3","P.jpg","M.jpg","0","1","0","",""
"","feedback","","html-keyboard-response","248","261979","0.0-1.0-366.0-0.0","0","0","52373","","null","","","null","40","","","","","","","","","","","","","","","",""
"","time_out","","html-keyboard-response","249","263994","0.0-1.0-368.0-0.0","0","0","52373","","null","","","null","40","","","","","","","","","","","","","","","",""
"","ITI","","html-keyboard-response","250","265001","0.0-1.0-369.0","0","0","52373","","146","","","75","40","","","","","","","","","","","","","","","k",""
"","S1","","html-keyboard-response","251","265265","0.0-1.0-371.0","0","0","52373","","null","","","null","41","","","","","","","","","","","","","","","",""
"","ISI","","html-keyboard-response","252","265777","0.0-1.0-372.0","0","0","52373","","25","","","75","41","k","","","","","","","","","","","","","","",""
"","S2","","html-keyboard-response","253","265833","0.0-1.0-373.0","0","0","52373","","54","","","75","41","","k","1","41","training","adjacent","DE","4","5","Q.jpg","N.jpg","1","1","1","",""
"","feedback","","html-keyboard-response","254","266847","0.0-1.0-375.0-0.0","0","0","52373","","null","","","null","41","","","","","","","","","","","","","","","",""
"","ITI","","html-keyboard-response","255","267854","0.0-1.0-378.0","0","0","52373","","null","","","null","41","","","","","","","","","","","","","","","NaN",""
"","S1","","html-keyboard-response","256","268118","0.0-1.0-380.0","0","0","52373","","null","","","null","42","","","","","","","","","","","","","","","",""
"","ISI","","html-keyboard-response","257","268629","0.0-1.0-381.0","0","0","52373","","null","","","null","42","NaN","","","","","","","","","","","","","","",""
"","S2","","html-keyboard-response","258","268720","0.0-1.0-382.0","0","0","52373","","87","","","68","42","","d","1","42","training","adjacent","CD","3","4","M.jpg","Q.jpg","0","1","0","",""
"","feedback","","html-keyboard-response","259","269730","0.0-1.0-384.0-0.0","0","0","52373","","null","","","null","42","","","","","","","","","","","","","","","",""
"","time_out","","html-keyboard-response","260","271745","0.0-1.0-386.0-0.0","0","0","52373","","null","","","null","42","","","","","","","","","","","","","","","",""
"","ITI","","html-keyboard-response","261","272753","0.0-1.0-387.0","0","0","52373","","710","","","75","42","","","","","","","","","","","","","","","k",""
"","S1","","html-keyboard-response","262","273016","0.0-1.0-389.0","0","0","52373","","null","","","null","43","","","","","","","","","","","","","","","",""
"","ISI","","html-keyboard-response","263","273528","0.0-1.0-390.0","0","0","52373","","164","","","75","43","k","","","","","","","","","","","","","","",""
"","S2","","html-keyboard-response","264","273661","0.0-1.0-391.0","0","0","52373","","131","","","75","43","","k","1","43","training","adjacent","DC","4","3","Q.jpg","M.jpg","1","0","0","",""
"","feedback","","html-keyboard-response","265","274676","0.0-1.0-393.0-0.0","0","0","52373","","null","","","null","43","","","","","","","","","","","","","","","",""
"","time_out","","html-keyboard-response","266","276690","0.0-1.0-395.0-0.0","0","0","52373","","null","","","null","43","","","","","","","","","","","","","","","",""
"","ITI","","html-keyboard-response","267","277697","0.0-1.0-396.0","0","0","52373","","null","","","null","43","","","","","","","","","","","","","","","NaN",""
"","S1","","html-keyboard-response","268","277962","0.0-1.0-398.0","0","0","52373","","null","","","null","44","","","","","","","","","","","","","","","",""
"","ISI","","html-keyboard-response","269","278474","0.0-1.0-399.0","0","0","52373","","null","","","null","44","NaN","","","","","","","","","","","","","","",""
"","S2","","html-keyboard-response","270","278579","0.0-1.0-400.0","0","0","52373","","101","","","75","44","","k","1","44","training","adjacent","GF","7","6","L.jpg","R.jpg","1","0","0","",""
"","feedback","","html-keyboard-response","271","279589","0.0-1.0-402.0-0.0","0","0","52373","","null","","","null","44","","","","","","","","","","","","","","","",""
"","time_out","","html-keyboard-response","272","281604","0.0-1.0-404.0-0.0","0","0","52373","","null","","","null","44","","","","","","","","","","","","","","","",""
"","ITI","","html-keyboard-response","273","282613","0.0-1.0-405.0","0","0","52373","","null","","","null","44","","","","","","","","","","","","","","","NaN",""
"","S1","","html-keyboard-response","274","282875","0.0-1.0-407.0","0","0","52373","","null","","","null","45","","","","","","","","","","","","","","","",""
"","ISI","","html-keyboard-response","275","283387","0.0-1.0-408.0","0","0","52373","","null","","","null","45","NaN","","","","","","","","","","","","","","",""
"","S2","","html-keyboard-response","276","283528","0.0-1.0-409.0","0","0","52373","","140","","","68","45","","d","1","45","training","adjacent","EF","5","6","N.jpg","R.jpg","0","1","0","",""
"","feedback","","html-keyboard-response","277","284534","0.0-1.0-411.0-0.0","0","0","52373","","null","","","null","45","","","","","","","","","","","","","","","",""
"","time_out","","html-keyboard-response","278","286550","0.0-1.0-413.0-0.0","0","0","52373","","null","","","null","45","","","","","","","","","","","","","","","",""
"","ITI","","html-keyboard-response","279","287557","0.0-1.0-414.0","0","0","52373","","null","","","null","45","","","","","","","","","","","","","","","NaN",""
"","S1","","html-keyboard-response","280","287822","0.0-1.0-416.0","0","0","52373","","null","","","null","46","","","","","","","","","","","","","","","",""
"","ISI","","html-keyboard-response","281","288332","0.0-1.0-417.0","0","0","52373","","null","","","null","46","NaN","","","","","","","","","","","","","","",""
"","S2","","html-keyboard-response","282","288596","0.0-1.0-418.0","0","0","52373","","null","","","null","46","","NaN","","","","","","","","","","","","","",""
"","response","","html-keyboard-response","283","288794","0.0-1.0-419.0-0.0","0","0","52373","","196","","","75","46","","","1","46","training","adjacent","DC","4","3","Q.jpg","M.jpg","1","0","0","",""
"","feedback","","html-keyboard-response","284","289805","0.0-1.0-420.0-0.0","0","0","52373","","null","","","null","46","","","","","","","","","","","","","","","",""
"","time_out","","html-keyboard-response","285","291821","0.0-1.0-422.0-0.0","0","0","52373","","null","","","null","46","","","","","","","","","","","","","","","",""
"","ITI","","html-keyboard-response","286","292828","0.0-1.0-423.0","0","0","52373","","null","","","null","46","","","","","","","","","","","","","","","NaN",""
"","S1","","html-keyboard-response","287","293092","0.0-1.0-425.0","0","0","52373","","null","","","null","47","","","","","","","","","","","","","","","",""
"","ISI","","html-keyboard-response","288","293603","0.0-1.0-426.0","0","0","52373","","null","","","null","47","NaN","","","","","","","","","","","","","","",""
"","S2","","html-keyboard-response","289","293839","0.0-1.0-427.0","0","0","52373","","234","","","68","47","","d","1","47","training","adjacent","FG","6","7","R.jpg","L.jpg","0","1","0","",""
"","feedback","","html-keyboard-response","290","294844","0.0-1.0-429.0-0.0","0","0","52373","","null","","","null","47","","","","","","","","","","","","","","","",""
"","time_out","","html-keyboard-response","291","296858","0.0-1.0-431.0-0.0","0","0","52373","","null","","","null","47","","","","","","","","","","","","","","","",""
"","ITI","","html-keyboard-response","292","297868","0.0-1.0-432.0","0","0","52373","","null","","","null","47","","","","","","","","","","","","","","","NaN",""
"","block_over","","html-keyboard-response","293","301453","0.0-1.0-433.0-0.0","0","0","52373","","3582","","","32","47","","","","","","","","","","","","","","","",""
"","S1","","html-keyboard-response","294","301711","0.0-1.0-434.0","0","0","52373","","null","","","null","48","","","","","","","","","","","","","","","",""
"","ISI","","html-keyboard-response","295","302223","0.0-1.0-435.0","0","0","52373","","null","","","null","48","NaN","","","","","","","","","","","","","","",""
"","S2","","html-keyboard-response","296","302446","0.0-1.0-436.0","0","0","52373","","222","","","75","48","","k","2","48","training","adjacent","FE","6","5","R.jpg","N.jpg","1","0","0","",""
"","feedback","","html-keyboard-response","297","303463","0.0-1.0-438.0-0.0","0","0","52373","","null","","","null","48","","","","","","","","","","","","","","","",""
"","time_out","","html-keyboard-response","298","305478","0.0-1.0-440.0-0.0","0","0","52373","","null","","","null","48","","","","","","","","","","","","","","","",""
"","ITI","","html-keyboard-response","299","306486","0.0-1.0-441.0","0","0","52373","","null","","","null","48","","","","","","","","","","","","","","","NaN",""
"","S1","","html-keyboard-response","300","306749","0.0-1.0-443.0","0","0","52373","","null","","","null","49","","","","","","","","","","","","","","","",""
"","ISI","","html-keyboard-response","301","307261","0.0-1.0-444.0","0","0","52373","","null","","","null","49","NaN","","","","","","","","","","","","","","",""
"","S2","","html-keyboard-response","302","307525","0.0-1.0-445.0","0","0","52373","","null","","","null","49","","NaN","","","","","","","","","","","","","",""
"","response","","html-keyboard-response","303","307644","0.0-1.0-446.0-0.0","0","0","52373","","118","","","68","49","","","2","49","training","adjacent","ED","5","4","N.jpg","Q.jpg","0","0","1","",""
"","feedback","","html-keyboard-response","304","308656","0.0-1.0-447.0-0.0","0","0","52373","","null","","","null","49","","","","","","","","","","","","","","","",""
"","ITI","","html-keyboard-response","305","309664","0.0-1.0-450.0","0","0","52373","","null","","","null","49","","","","","","","","","","","","","","","NaN",""
"","S1","","html-keyboard-response","306","309928","0.0-1.0-452.0","0","0","52373","","null","","","null","50","","","","","","","","","","","","","","","",""
"","ISI","","html-keyboard-response","307","310438","0.0-1.0-453.0","0","0","52373","","null","","","null","50","NaN","","","","","","","","","","","","","","",""
"","S2","","html-keyboard-response","308","310702","0.0-1.0-454.0","0","0","52373","","null","","","null","50","","NaN","","","","","","","","","","","","","",""
"","response","","html-keyboard-response","309","310835","0.0-1.0-455.0-0.0","0","0","52373","","132","","","68","50","","","2","50","training","adjacent","FE","6","5","R.jpg","N.jpg","0","0","1","",""
"","feedback","","html-keyboard-response","310","311849","0.0-1.0-456.0-0.0","0","0","52373","","null","","","null","50","","","","","","","","","","","","","","","",""
"","ITI","","html-keyboard-response","311","312857","0.0-1.0-459.0","0","0","52373","","null","","","null","50","","","","","","","","","","","","","","","NaN",""
"","S1","","html-keyboard-response","312","313121","0.0-1.0-461.0","0","0","52373","","null","","","null","51","","","","","","","","","","","","","","","",""
"","ISI","","html-keyboard-response","313","313632","0.0-1.0-462.0","0","0","52373","","null","","","null","51","NaN","","","","","","","","","","","","","","",""
"","S2","","html-keyboard-response","314","313896","0.0-1.0-463.0","0","0","52373","","null","","","null","51","","NaN","","","","","","","","","","","","","",""
"","response","","html-keyboard-response","315","313940","0.0-1.0-464.0-0.0","0","0","52373","","42","","","75","51","","","2","51","training","adjacent","DC","4","3","Q.jpg","M.jpg","1","0","0","",""
"","feedback","","html-keyboard-response","316","314950","0.0-1.0-465.0-0.0","0","0","52373","","null","","","null","51","","","","","","","","","","","","","","","",""
"","time_out","","html-keyboard-response","317","316963","0.0-1.0-467.0-0.0","0","0","52373","","null","","","null","51","","","","","","","","","","","","","","","",""
"","ITI","","html-keyboard-response","318","317971","0.0-1.0-468.0","0","0","52373","","null","","","null","51","","","","","","","","","","","","","","","NaN",""
"","S1","","html-keyboard-response","319","318236","0.0-1.0-470.0","0","0","52373","","null","","","null","52","","","","","","","","","","","","","","","",""
"","ISI","","html-keyboard-response","320","318748","0.0-1.0-471.0","0","0","52373","","null","","","null","52","NaN","","","","","","","","","","","","","","",""
"","S2","","html-keyboard-response","321","319002","0.0-1.0-472.0","0","0","52373","","252","","","68","52","","d","2","52","training","adjacent","DC","4","3","Q.jpg","M.jpg","0","0","1","",""
"","feedback","","html-keyboard-response","322","320019","0.0-1.0-474.0-0.0","0","0","52373","","null","","","null","52","","","","","","","","","","","","","","","",""
"","ITI","","html-keyboard-response","323","321026","0.0-1.0-477.0","0","0","52373","","null","","","null","52","","","","","","","","","","","","","","","NaN",""
"","S1","","html-keyboard-response","324","321289","0.0-1.0-479.0","0","0","52373","","null","","","null","53","","","","","","","","","","","","","","","",""
"","ISI","","html-keyboard-response","325","321802","0.0-1.0-480.0","0","0","52373","","null","","","null","53","NaN","","","","","","","","","","","","","","",""
"","S2","","html-keyboard-response","326","322065","0.0-1.0-481.0","0","0","52373","","null","","","null","53","","NaN","","","","","","","","","","","","","",""
"","response","","html-keyboard-response","327","322099","0.0-1.0-482.0-0.0","0","0","52373","","33","","","68","53","","","2","53","training","adjacent","GF","7","6","L.jpg","R.jpg","0","0","1","",""
"","feedback","","html-keyboard-response","328","323103","0.0-1.0-483.0-0.0","0","0","52373","","null","","","null","53","","","","","","","","","","","","","","","",""
"","ITI","","html-keyboard-response","329","324111","0.0-1.0-486.0","0","0","52373","","null","","","null","53","","","","","","","","","","","","","","","NaN",""
"","S1","","html-keyboard-response","330","324374","0.0-1.0-488.0","0","0","52373","","null","","","null","54","","","","","","","","","","","","","","","",""
"","ISI","","html-keyboard-response","331","324888","0.0-1.0-489.0","0","0","52373","","null","","","null","54","NaN","","","","","","","","","","","","","","",""
"","S2","","html-keyboard-response","332","325149","0.0-1.0-490.0","0","0","52373","","null","","","null","54","","NaN","","","","","","","","","","","","","",""
"","response","","html-keyboard-response","333","325154","0.0-1.0-491.0-0.0","0","0","52373","","4","","","75","54","","","2","54","training","adjacent","FE","6","5","R.jpg","N.jpg","1","0","0","",""
"","feedback","","html-keyboard-response","334","326158","0.0-1.0-492.0-0.0","0","0","52373","","null","","","null","54","","","","","","","","","","","","","","","",""
"","time_out","","html-keyboard-response","335","328173","0.0-1.0-494.0-0.0","0","0","52373","","null","","","null","54","","","","","","","","","","","","","","","",""
"","ITI","","html-keyboard-response","336","329180","0.0-1.0-495.0","0","0","52373","","null","","","null","54","","","","","","","","","","","","","","","NaN",""
"","S1","","html-keyboard-response","337","329445","0.0-1.0-497.0","0","0","52373","","null","","","null","55","","","","","","","","","","","","","","","",""
"","ISI","","html-keyboard-response","338","329955","0.0-1.0-498.0","0","0","52373","","null","","","null","55","NaN","","","","","","","","","","","","","","",""
"","S2","","html-keyboard-response","339","330152","0.0-1.0-499.0","0","0","52373","","196","","","75","55","","k","2","55","training","adjacent","EF","5","6","N.jpg","R.jpg","1","1","1","",""
"","feedback","","html-keyboard-response","340","331165","0.0-1.0-501.0-0.0","0","0","52373","","null","","","null","55","","","","","","","","","","","","","","","",""
"","ITI","","html-keyboard-response","341","332173","0.0-1.0-504.0","0","0","52373","","null","","","null","55","","","","","","","","","","","","","","","NaN",""
"","S1","","html-keyboard-response","342","332436","0.0-1.0-506.0","0","0","52373","","null","","","null","56","","","","","","","","","","","","","","","",""
"","ISI","","html-keyboard-response","343","332947","0.0-1.0-507.0","0","0","52373","","185","","","75","56","k","","","","","","","","","","","","","","",""
"","S2","","html-keyboard-response","344","333179","0.0-1.0-508.0","0","0","52373","","229","","","75","56","","k","2","56","training","adjacent","EF","5","6","N.jpg","R.jpg","1","1","1","",""
"","feedback","","html-keyboard-response","345","334188","0.0-1.0-510.0-0.0","0","0","52373","","null","","","null","56","","","","","","","","","","","","","","","",""
"","ITI","","html-keyboard-response","346","335195","0.0-1.0-513.0","0","0","52373","","null","","","null","56","","","","","","","","","","","","","","","NaN",""
"","S1","","html-keyboard-response","347","335458","0.0-1.0-515.0","0","0","52373","","null","","","null","57","","","","","","","","","","","","","","","",""
"","ISI","","html-keyboard-response","348","335970","0.0-1.0-516.0","0","0","52373","","null","","","null","57","NaN","","","","","","","","","","","","","","",""
"","S2","","html-keyboard-response","349","336235","0.0-1.0-517.0","0","0","52373","","null","","","null","57","","NaN","","","","","","","","","","","","","",""
"","response","","html-keyboard-response","350","336328","0.0-1.0-518.0-0.0","0","0","52373","","91","","","68","57","","","2","57","training","adjacent","BC","2","3","P.jpg","M.jpg","0","1","0","",""
"","feedback","","html-keyboard-response","351","337335","0.0-1.0-519.0-0.0","0","0","52373","","null","","","null","57","","","","","","","","","","","","","","","",""
"","time_out","","html-keyboard-response","352","339350","0.0-1.0-521.0-0.0","0","0","52373","","null","","","null","57","","","","","","","","","","","","","","","",""
"","ITI","","html-keyboard-response","353","340358","0.0-1.0-522.0","0","0","52373","","null","","","null","57","","","","","","","","","","","","","","","NaN",""
"","S1","","html-keyboard-response","354","340621","0.0-1.0-524.0","0","0","52373","","null","","","null","58","","","","","","","","","","","","","","","",""
"","ISI","","html-keyboard-response","355","341133","0.0-1.0-525.0","0","0","52373","","null","","","null","58","NaN","","","","","","","","","","","","","","",""
"","S2","","html-keyboard-response","356","341397","0.0-1.0-526.0","0","0","52373","","null","","","null","58","","NaN","","","","","","","","","","","","","",""
"","response","","html-keyboard-response","357","341633","0.0-1.0-527.0-0.0","0","0","52373","","235","","","75","58","","","2","58","training","adjacent","CD","3","4","M.jpg","Q.jpg","1","1","1","",""
"","feedback","","html-keyboard-response","358","342637","0.0-1.0-528.0-0.0","0","0","52373","","null","","","null","58","","","","","","","","","","","","","","","",""
"","ITI","","html-keyboard-response","359","343646","0.0-1.0-531.0","0","0","52373","","null","","","null","58","","","","","","","","","","","","","","","NaN",""
"","S1","","html-keyboard-response","360","343908","0.0-1.0-533.0","0","0","52373","","null","","","null","59","","","","","","","","","","","","","","","",""
"","ISI","","html-keyboard-response","361","344420","0.0-1.0-534.0","0","0","52373","","null","","","null","59","NaN","","","","","","","","","","","","","","",""
"","S2","","html-keyboard-response","362","344683","0.0-1.0-535.0","0","0","52373","","null","","","null","59","","NaN","","","","","","","","","","","","","",""
"","response","","html-keyboard-response","363","344804","0.0-1.0-536.0-0.0","0","0","52373","","117","","","75","59","","","2","59","training","adjacent","CD","3","4","M.jpg","Q.jpg","1","1","1","",""
"","feedback","","html-keyboard-response","364","345816","0.0-1.0-537.0-0.0","0","0","52373","","null","","","null","59","","","","","","","","","","","","","","","",""
"","ITI","","html-keyboard-response","365","346822","0.0-1.0-540.0","0","0","52373","","null","","","null","59","","","","","","","","","","","","","","","NaN",""
"","S1","","html-keyboard-response","366","347086","0.0-1.0-542.0","0","0","52373","","null","","","null","60","","","","","","","","","","","","","","","",""
"","ISI","","html-keyboard-response","367","347597","0.0-1.0-543.0","0","0","52373","","null","","","null","60","NaN","","","","","","","","","","","","","","",""
"","S2","","html-keyboard-response","368","347814","0.0-1.0-544.0","0","0","52373","","214","","","75","60","","k","2","60","training","adjacent","CD","3","4","M.jpg","Q.jpg","1","1","1","",""
"","feedback","","html-keyboard-response","369","348822","0.0-1.0-546.0-0.0","0","0","52373","","null","","","null","60","","","","","","","","","","","","","","","",""
"","ITI","","html-keyboard-response","370","349830","0.0-1.0-549.0","0","0","52373","","null","","","null","60","","","","","","","","","","","","","","","NaN",""
"","S1","","html-keyboard-response","371","350094","0.0-1.0-551.0","0","0","52373","","null","","","null","61","","","","","","","","","","","","","","","",""
"","ISI","","html-keyboard-response","372","350605","0.0-1.0-552.0","0","0","52373","","null","","","null","61","NaN","","","","","","","","","","","","","","",""
"","S2","","html-keyboard-response","373","350869","0.0-1.0-553.0","0","0","52373","","null","","","null","61","","NaN","","","","","","","","","","","","","",""
"","response","","html-keyboard-response","374","350911","0.0-1.0-554.0-0.0","0","0","52373","","41","","","75","61","","","2","61","training","adjacent","CD","3","4","M.jpg","Q.jpg","1","1","1","",""
"","feedback","","html-keyboard-response","375","351923","0.0-1.0-555.0-0.0","0","0","52373","","null","","","null","61","","","","","","","","","","","","","","","",""
"","ITI","","html-keyboard-response","376","352931","0.0-1.0-558.0","0","0","52373","","null","","","null","61","","","","","","","","","","","","","","","NaN",""
"","S1","","html-keyboard-response","377","353195","0.0-1.0-560.0","0","0","52373","","null","","","null","62","","","","","","","","","","","","","","","",""
"","ISI","","html-keyboard-response","378","353706","0.0-1.0-561.0","0","0","52373","","null","","","null","62","NaN","","","","","","","","","","","","","","",""
"","S2","","html-keyboard-response","379","353956","0.0-1.0-562.0","0","0","52373","","248","","","68","62","","d","2","62","training","adjacent","DC","4","3","Q.jpg","M.jpg","0","0","1","",""
"","feedback","","html-keyboard-response","380","354961","0.0-1.0-564.0-0.0","0","0","52373","","null","","","null","62","","","","","","","","","","","","","","","",""
"","ITI","","html-keyboard-response","381","355969","0.0-1.0-567.0","0","0","52373","","null","","","null","62","","","","","","","","","","","","","","","NaN",""
"","S1","","html-keyboard-response","382","356233","0.0-1.0-569.0","0","0","52373","","null","","","null","63","","","","","","","","","","","","","","","",""
"","ISI","","html-keyboard-response","383","356745","0.0-1.0-570.0","0","0","52373","","null","","","null","63","NaN","","","","","","","","","","","","","","",""
"","S2","","html-keyboard-response","384","357009","0.0-1.0-571.0","0","0","52373","","null","","","null","63","","NaN","","","","","","","","","","","","","",""
"","response","","html-keyboard-response","385","357098","0.0-1.0-572.0-0.0","0","0","52373","","88","","","75","63","","","2","63","training","adjacent","ED","5","4","N.jpg","Q.jpg","1","0","0","",""
"","feedback","","html-keyboard-response","386","358109","0.0-1.0-573.0-0.0","0","0","52373","","null","","","null","63","","","","","","","","","","","","","","","",""
"","time_out","","html-keyboard-response","387","360124","0.0-1.0-575.0-0.0","0","0","52373","","null","","","null","63","","","","","","","","","","","","","","","",""
"","ITI","","html-keyboard-response","388","361132","0.0-1.0-576.0","0","0","52373","","null","","","null","63","","","","","","","","","","","","","","","NaN",""
"","S1","","html-keyboard-response","389","361395","0.0-1.0-578.0","0","0","52373","","null","","","null","64","","","","","","","","","","","","","","","",""
"","ISI","","html-keyboard-response","390","361907","0.0-1.0-579.0","0","0","52373","","null","","","null","64","NaN","","","","","","","","","","","","","","",""
"","S2","","html-keyboard-response","391","362170","0.0-1.0-580.0","0","0","52373","","null","","","null","64","","NaN","","","","","","","","","","","","","",""
"","response","","html-keyboard-response","392","362481","0.0-1.0-581.0-0.0","0","0","52373","","308","","","75","64","","","2","64","training","adjacent","BC","2","3","P.jpg","M.jpg","1","1","1","",""
"","feedback","","html-keyboard-response","393","363488","0.0-1.0-582.0-0.0","0","0","52373","","null","","","null","64","","","","","","","","","","","","","","","",""
"","ITI","","html-keyboard-response","394","364496","0.0-1.0-585.0","0","0","52373","","null","","","null","64","","","","","","","","","","","","","","","NaN",""
"","S1","","html-keyboard-response","395","364759","0.0-1.0-587.0","0","0","52373","","null","","","null","65","","","","","","","","","","","","","","","",""
"","ISI","","html-keyboard-response","396","365271","0.0-1.0-588.0","0","0","52373","","null","","","null","65","NaN","","","","","","","","","","","","","","",""
"","S2","","html-keyboard-response","397","365534","0.0-1.0-589.0","0","0","52373","","null","","","null","65","","NaN","","","","","","","","","","","","","",""
"","response","","html-keyboard-response","398","365919","0.0-1.0-590.0-0.0","0","0","52373","","383","","","75","65","","","2","65","training","adjacent","EF","5","6","N.jpg","R.jpg","1","1","1","",""
"","feedback","","html-keyboard-response","399","366930","0.0-1.0-591.0-0.0","0","0","52373","","null","","","null","65","","","","","","","","","","","","","","","",""
"","ITI","","html-keyboard-response","400","367937","0.0-1.0-594.0","0","0","52373","","null","","","null","65","","","","","","","","","","","","","","","NaN",""
"","S1","","html-keyboard-response","401","368200","0.0-1.0-596.0","0","0","52373","","null","","","null","66","","","","","","","","","","","","","","","",""
"","ISI","","html-keyboard-response","402","368713","0.0-1.0-597.0","0","0","52373","","null","","","null","66","NaN","","","","","","","","","","","","","","",""
"","S2","","html-keyboard-response","403","368975","0.0-1.0-598.0","0","0","52373","","null","","","null","66","","NaN","","","","","","","","","","","","","",""
"","response","","html-keyboard-response","404","369272","0.0-1.0-599.0-0.0","0","0","52373","","296","","","68","66","","","2","66","training","adjacent","BA","2","1","P.jpg","O.jpg","0","0","1","",""
"","feedback","","html-keyboard-response","405","370278","0.0-1.0-600.0-0.0","0","0","52373","","null","","","null","66","","","","","","","","","","","","","","","",""
"","ITI","","html-keyboard-response","406","371286","0.0-1.0-603.0","0","0","52373","","null","","","null","66","","","","","","","","","","","","","","","NaN",""
"","S1","","html-keyboard-response","407","371549","0.0-1.0-605.0","0","0","52373","","null","","","null","67","","","","","","","","","","","","","","","",""
"","ISI","","html-keyboard-response","408","372060","0.0-1.0-606.0","0","0","52373","","null","","","null","67","NaN","","","","","","","","","","","","","","",""
"","S2","","html-keyboard-response","409","372324","0.0-1.0-607.0","0","0","52373","","null","","","null","67","","NaN","","","","","","","","","","","","","",""
"","response","","html-keyboard-response","410","372551","0.0-1.0-608.0-0.0","0","0","52373","","226","","","68","67","","","2","67","training","adjacent","BA","2","1","P.jpg","O.jpg","0","0","1","",""
"","feedback","","html-keyboard-response","411","373565","0.0-1.0-609.0-0.0","0","0","52373","","null","","","null","67","","","","","","","","","","","","","","","",""
"","ITI","","html-keyboard-response","412","374573","0.0-1.0-612.0","0","0","52373","","null","","","null","67","","","","","","","","","","","","","","","NaN",""
"","S1","","html-keyboard-response","413","374835","0.0-1.0-614.0","0","0","52373","","null","","","null","68","","","","","","","","","","","","","","","",""
"","ISI","","html-keyboard-response","414","375347","0.0-1.0-615.0","0","0","52373","","null","","","null","68","NaN","","","","","","","","","","","","","","",""
"","S2","","html-keyboard-response","415","375611","0.0-1.0-616.0","0","0","52373","","null","","","null","68","","NaN","","","","","","","","","","","","","",""
"","response","","html-keyboard-response","416","375755","0.0-1.0-617.0-0.0","0","0","52373","","142","","","75","68","","","2","68","training","adjacent","FG","6","7","R.jpg","L.jpg","1","1","1","",""
"","feedback","","html-keyboard-response","417","376757","0.0-1.0-618.0-0.0","0","0","52373","","null","","","null","68","","","","","","","","","","","","","","","",""
"","ITI","","html-keyboard-response","418","377765","0.0-1.0-621.0","0","0","52373","","null","","","null","68","","","","","","","","","","","","","","","NaN",""
"","S1","","html-keyboard-response","419","378029","0.0-1.0-623.0","0","0","52373","","null","","","null","69","","","","","","","","","","","","","","","",""
"","ISI","","html-keyboard-response","420","378542","0.0-1.0-624.0","0","0","52373","","null","","","null","69","NaN","","","","","","","","","","","","","","",""
"","S2","","html-keyboard-response","421","378805","0.0-1.0-625.0","0","0","52373","","null","","","null","69","","NaN","","","","","","","","","","","","","",""
"","response","","html-keyboard-response","422","378949","0.0-1.0-626.0-0.0","0","0","52373","","142","","","75","69","","","2","69","training","adjacent","CB","3","2","M.jpg","P.jpg","1","0","0","",""
"","feedback","","html-keyboard-response","423","379951","0.0-1.0-627.0-0.0","0","0","52373","","null","","","null","69","","","","","","","","","","","","","","","",""
"","time_out","","html-keyboard-response","424","381966","0.0-1.0-629.0-0.0","0","0","52373","","null","","","null","69","","","","","","","","","","","","","","","",""
"","ITI","","html-keyboard-response","425","382974","0.0-1.0-630.0","0","0","52373","","null","","","null","69","","","","","","","","","","","","","","","NaN",""
"","S1","","html-keyboard-response","426","383237","0.0-1.0-632.0","0","0","52373","","null","","","null","70","","","","","","","","","","","","","","","",""
"","ISI","","html-keyboard-response","427","383749","0.0-1.0-633.0","0","0","52373","","null","","","null","70","NaN","","","","","","","","","","","","","","",""
"","S2","","html-keyboard-response","428","384012","0.0-1.0-634.0","0","0","52373","","null","","","null","70","","NaN","","","","","","","","","","","","","",""
"","response","","html-keyboard-response","429","384171","0.0-1.0-635.0-0.0","0","0","52373","","157","","","68","70","","","2","70","training","adjacent","CB","3","2","M.jpg","P.jpg","0","0","1","",""
"","feedback","","html-keyboard-response","430","385174","0.0-1.0-636.0-0.0","0","0","52373","","null","","","null","70","","","","","","","","","","","","","","","",""
"","ITI","","html-keyboard-response","431","386182","0.0-1.0-639.0","0","0","52373","","null","","","null","70","","","","","","","","","","","","","","","NaN",""
"","S1","","html-keyboard-response","432","386446","0.0-1.0-641.0","0","0","52373","","null","","","null","71","","","","","","","","","","","","","","","",""
"","ISI","","html-keyboard-response","433","386959","0.0-1.0-642.0","0","0","52373","","null","","","null","71","NaN","","","","","","","","","","","","","","",""
"","S2","","html-keyboard-response","434","387222","0.0-1.0-643.0","0","0","52373","","null","","","null","71","","NaN","","","","","","","","","","","","","",""
"","response","","html-keyboard-response","435","387466","0.0-1.0-644.0-0.0","0","0","52373","","243","","","75","71","","","2","71","training","adjacent","DE","4","5","Q.jpg","N.jpg","1","1","1","",""
"","feedback","","html-keyboard-response","436","388477","0.0-1.0-645.0-0.0","0","0","52373","","null","","","null","71","","","","","","","","","","","","","","","",""
"","ITI","","html-keyboard-response","437","389485","0.0-1.0-648.0","0","0","52373","","null","","","null","71","","","","","","","","","","","","","","","NaN",""
"","S1","","html-keyboard-response","438","389748","0.0-1.0-650.0","0","0","52373","","null","","","null","72","","","","","","","","","","","","","","","",""
"","ISI","","html-keyboard-response","439","390260","0.0-1.0-651.0","0","0","52373","","null","","","null","72","NaN","","","","","","","","","","","","","","",""
"","S2","","html-keyboard-response","440","390524","0.0-1.0-652.0","0","0","52373","","null","","","null","72","","NaN","","","","","","","","","","","","","",""
"","response","","html-keyboard-response","441","390776","0.0-1.0-653.0-0.0","0","0","52373","","250","","","75","72","","","2","72","training","adjacent","AB","1","2","O.jpg","P.jpg","1","1","1","",""
"","feedback","","html-keyboard-response","442","391779","0.0-1.0-654.0-0.0","0","0","52373","","null","","","null","72","","","","","","","","","","","","","","","",""
"","ITI","","html-keyboard-response","443","392786","0.0-1.0-657.0","0","0","52373","","null","","","null","72","","","","","","","","","","","","","","","NaN",""
"","S1","","html-keyboard-response","444","393051","0.0-1.0-659.0","0","0","52373","","null","","","null","73","","","","","","","","","","","","","","","",""
"","ISI","","html-keyboard-response","445","393561","0.0-1.0-660.0","0","0","52373","","null","","","null","73","NaN","","","","","","","","","","","","","","",""
"","S2","","html-keyboard-response","446","393826","0.0-1.0-661.0","0","0","52373","","null","","","null","73","","NaN","","","","","","","","","","","","","",""
"","response","","html-keyboard-response","447","394238","0.0-1.0-662.0-0.0","0","0","52373","","412","","","75","73","","","2","73","training","adjacent","BA","2","1","P.jpg","O.jpg","1","0","0","",""
"","feedback","","html-keyboard-response","448","395252","0.0-1.0-663.0-0.0","0","0","52373","","null","","","null","73","","","","","","","","","","","","","","","",""
"","time_out","","html-keyboard-response","449","397266","0.0-1.0-665.0-0.0","0","0","52373","","null","","","null","73","","","","","","","","","","","","","","","",""
"","ITI","","html-keyboard-response","450","398274","0.0-1.0-666.0","0","0","52373","","null","","","null","73","","","","","","","","","","","","","","","NaN",""
"","S1","","html-keyboard-response","451","398539","0.0-1.0-668.0","0","0","52373","","null","","","null","74","","","","","","","","","","","","","","","",""
"","ISI","","html-keyboard-response","452","399049","0.0-1.0-669.0","0","0","52373","","null","","","null","74","NaN","","","","","","","","","","","","","","",""
"","S2","","html-keyboard-response","453","399281","0.0-1.0-670.0","0","0","52373","","230","","","75","74","","k","2","74","training","adjacent","EF","5","6","N.jpg","R.jpg","1","1","1","",""
"","feedback","","html-keyboard-response","454","400290","0.0-1.0-672.0-0.0","0","0","52373","","null","","","null","74","","","","","","","","","","","","","","","",""
"","ITI","","html-keyboard-response","455","401297","0.0-1.0-675.0","0","0","52373","","null","","","null","74","","","","","","","","","","","","","","","NaN",""
"","S1","","html-keyboard-response","456","401560","0.0-1.0-677.0","0","0","52373","","null","","","null","75","","","","","","","","","","","","","","","",""
"","ISI","","html-keyboard-response","457","402072","0.0-1.0-678.0","0","0","52373","","null","","","null","75","NaN","","","","","","","","","","","","","","",""
"","S2","","html-keyboard-response","458","402335","0.0-1.0-679.0","0","0","52373","","null","","","null","75","","NaN","","","","","","","","","","","","","",""
"","response","","html-keyboard-response","459","402432","0.0-1.0-680.0-0.0","0","0","52373","","94","","","75","75","","","2","75","training","adjacent","ED","5","4","N.jpg","Q.jpg","1","0","0","",""
"","feedback","","html-keyboard-response","460","403437","0.0-1.0-681.0-0.0","0","0","52373","","null","","","null","75","","","","","","","","","","","","","","","",""
"","time_out","","html-keyboard-response","461","405452","0.0-1.0-683.0-0.0","0","0","52373","","null","","","null","75","","","","","","","","","","","","","","","",""
"","ITI","","html-keyboard-response","462","406459","0.0-1.0-684.0","0","0","52373","","null","","","null","75","","","","","","","","","","","","","","","NaN",""
"","S1","","html-keyboard-response","463","406723","0.0-1.0-686.0","0","0","52373","","null","","","null","76","","","","","","","","","","","","","","","",""
"","ISI","","html-keyboard-response","464","407234","0.0-1.0-687.0","0","0","52373","","null","","","null","76","NaN","","","","","","","","","","","","","","",""
"","S2","","html-keyboard-response","465","407498","0.0-1.0-688.0","0","0","52373","","null","","","null","76","","NaN","","","","","","","","","","","","","",""
"","response","","html-keyboard-response","466","407652","0.0-1.0-689.0-0.0","0","0","52373","","153","","","68","76","","","2","76","training","adjacent","DC","4","3","Q.jpg","M.jpg","0","0","1","",""
"","feedback","","html-keyboard-response","467","408661","0.0-1.0-690.0-0.0","0","0","52373","","null","","","null","76","","","","","","","","","","","","","","","",""
"","ITI","","html-keyboard-response","468","409669","0.0-1.0-693.0","0","0","52373","","null","","","null","76","","","","","","","","","","","","","","","NaN",""
"","S1","","html-keyboard-response","469","409932","0.0-1.0-695.0","0","0","52373","","null","","","null","77","","","","","","","","","","","","","","","",""
"","ISI","","html-keyboard-response","470","410444","0.0-1.0-696.0","0","0","52373","","null","","","null","77","NaN","","","","","","","","","","","","","","",""
"","S2","","html-keyboard-response","471","410708","0.0-1.0-697.0","0","0","52373","","null","","","null","77","","NaN","","","","","","","","","","","","","",""
"","response","","html-keyboard-response","472","410740","0.0-1.0-698.0-0.0","0","0","52373","","30","","","68","77","","","2","77","training","adjacent","DE","4","5","Q.jpg","N.jpg","0","1","0","",""
"","feedback","","html-keyboard-response","473","411746","0.0-1.0-699.0-0.0","0","0","52373","","null","","","null","77","","","","","","","","","","","","","","","",""
"","time_out","","html-keyboard-response","474","413762","0.0-1.0-701.0-0.0","0","0","52373","","null","","","null","77","","","","","","","","","","","","","","","",""
"","ITI","","html-keyboard-response","475","414768","0.0-1.0-702.0","0","0","52373","","null","","","null","77","","","","","","","","","","","","","","","NaN",""
"","S1","","html-keyboard-response","476","415032","0.0-1.0-704.0","0","0","52373","","null","","","null","78","","","","","","","","","","","","","","","",""
"","ISI","","html-keyboard-response","477","415544","0.0-1.0-705.0","0","0","52373","","null","","","null","78","NaN","","","","","","","","","","","","","","",""
"","S2","","html-keyboard-response","478","415571","0.0-1.0-706.0","0","0","52373","","25","","","75","78","","k","2","78","training","adjacent","GF","7","6","L.jpg","R.jpg","1","0","0","",""
"","feedback","","html-keyboard-response","479","416583","0.0-1.0-708.0-0.0","0","0","52373","","null","","","null","78","","","","","","","","","","","","","","","",""
"","time_out","","html-keyboard-response","480","418598","0.0-1.0-710.0-0.0","0","0","52373","","null","","","null","78","","","","","","","","","","","","","","","",""
"","ITI","","html-keyboard-response","481","419605","0.0-1.0-711.0","0","0","52373","","null","","","null","78","","","","","","","","","","","","","","","NaN",""
"","S1","","html-keyboard-response","482","419869","0.0-1.0-713.0","0","0","52373","","null","","","null","79","","","","","","","","","","","","","","","",""
"","ISI","","html-keyboard-response","483","420380","0.0-1.0-714.0","0","0","52373","","null","","","null","79","NaN","","","","","","","","","","","","","","",""
"","S2","","html-keyboard-response","484","420499","0.0-1.0-715.0","0","0","52373","","116","","","75","79","","k","2","79","training","adjacent","FG","6","7","R.jpg","L.jpg","1","1","1","",""
"","feedback","","html-keyboard-response","485","421512","0.0-1.0-717.0-0.0","0","0","52373","","null","","","null","79","","","","","","","","","","","","","","","",""
"","ITI","","html-keyboard-response","486","422520","0.0-1.0-720.0","0","0","52373","","null","","","null","79","","","","","","","","","","","","","","","NaN",""
"","S1","","html-keyboard-response","487","422783","0.0-1.0-722.0","0","0","52373","","null","","","null","80","","","","","","","","","","","","","","","",""
"","ISI","","html-keyboard-response","488","423295","0.0-1.0-723.0","0","0","52373","","null","","","null","80","NaN","","","","","","","","","","","","","","",""
"","S2","","html-keyboard-response","489","423558","0.0-1.0-724.0","0","0","52373","","null","","","null","80","","NaN","","","","","","","","","","","","","",""
"","response","","html-keyboard-response","490","423772","0.0-1.0-725.0-0.0","0","0","52373","","211","","","68","80","","","2","80","training","adjacent","BA","2","1","P.jpg","O.jpg","0","0","1","",""
"","feedback","","html-keyboard-response","491","424784","0.0-1.0-726.0-0.0","0","0","52373","","null","","","null","80","","","","","","","","","","","","","","","",""
"","ITI","","html-keyboard-response","492","425790","0.0-1.0-729.0","0","0","52373","","null","","","null","80","","","","","","","","","","","","","","","NaN",""
"","S1","","html-keyboard-response","493","426054","0.0-1.0-731.0","0","0","52373","","null","","","null","81","","","","","","","","","","","","","","","",""
"","ISI","","html-keyboard-response","494","426566","0.0-1.0-732.0","0","0","52373","","null","","","null","81","NaN","","","","","","","","","","","","","","",""
"","S2","","html-keyboard-response","495","426829","0.0-1.0-733.0","0","0","52373","","null","","","null","81","","NaN","","","","","","","","","","","","","",""
"","response","","html-keyboard-response","496","427025","0.0-1.0-734.0-0.0","0","0","52373","","194","","","68","81","","","2","81","training","adjacent","BC","2","3","P.jpg","M.jpg","0","1","0","",""
"","feedback","","html-keyboard-response","497","428039","0.0-1.0-735.0-0.0","0","0","52373","","null","","","null","81","","","","","","","","","","","","","","","",""
"","time_out","","html-keyboard-response","498","430054","0.0-1.0-737.0-0.0","0","0","52373","","null","","","null","81","","","","","","","","","","","","","","","",""
"","ITI","","html-keyboard-response","499","431061","0.0-1.0-738.0","0","0","52373","","null","","","null","81","","","","","","","","","","","","","","","NaN",""
"","S1","","html-keyboard-response","500","431326","0.0-1.0-740.0","0","0","52373","","null","","","null","82","","","","","","","","","","","","","","","",""
"","ISI","","html-keyboard-response","501","431837","0.0-1.0-741.0","0","0","52373","","null","","","null","82","NaN","","","","","","","","","","","","","","",""
"","S2","","html-keyboard-response","502","432087","0.0-1.0-742.0","0","0","52373","","248","","","75","82","","k","2","82","training","adjacent","FG","6","7","R.jpg","L.jpg","1","1","1","",""
"","feedback","","html-keyboard-response","503","433093","0.0-1.0-744.0-0.0","0","0","52373","","null","","","null","82","","","","","","","","","","","","","","","",""
"","ITI","","html-keyboard-response","504","434100","0.0-1.0-747.0","0","0","52373","","null","","","null","82","","","","","","","","","","","","","","","NaN",""
"","S1","","html-keyboard-response","505","434365","0.0-1.0-749.0","0","0","52373","","null","","","null","83","","","","","","","","","","","","","","","",""
"","ISI","","html-keyboard-response","506","434876","0.0-1.0-750.0","0","0","52373","","null","","","null","83","NaN","","","","","","","","","","","","","","",""
"","S2","","html-keyboard-response","507","435139","0.0-1.0-751.0","0","0","52373","","null","","","null","83","","NaN","","","","","","","","","","","","","",""
"","response","","html-keyboard-response","508","435425","0.0-1.0-752.0-0.0","0","0","52373","","284","","","75","83","","","2","83","training","adjacent","FE","6","5","R.jpg","N.jpg","1","0","0","",""
"","feedback","","html-keyboard-response","509","436441","0.0-1.0-753.0-0.0","0","0","52373","","null","","","null","83","","","","","","","","","","","","","","","",""
"","time_out","","html-keyboard-response","510","438457","0.0-1.0-755.0-0.0","0","0","52373","","null","","","null","83","","","","","","","","","","","","","","","",""
"","ITI","","html-keyboard-response","511","439464","0.0-1.0-756.0","0","0","52373","","null","","","null","83","","","","","","","","","","","","","","","NaN",""
"","S1","","html-keyboard-response","512","439727","0.0-1.0-758.0","0","0","52373","","null","","","null","84","","","","","","","","","","","","","","","",""
"","ISI","","html-keyboard-response","513","440241","0.0-1.0-759.0","0","0","52373","","null","","","null","84","NaN","","","","","","","","","","","","","","",""
"","S2","","html-keyboard-response","514","440489","0.0-1.0-760.0","0","0","52373","","246","","","75","84","","k","2","84","training","adjacent","FG","6","7","R.jpg","L.jpg","1","1","1","",""
"","feedback","","html-keyboard-response","515","441495","0.0-1.0-762.0-0.0","0","0","52373","","null","","","null","84","","","","","","","","","","","","","","","",""
"","ITI","","html-keyboard-response","516","442503","0.0-1.0-765.0","0","0","52373","","null","","","null","84","","","","","","","","","","","","","","","NaN",""
"","S1","","html-keyboard-response","517","442766","0.0-1.0-767.0","0","0","52373","","null","","","null","85","","","","","","","","","","","","","","","",""
"","ISI","","html-keyboard-response","518","443279","0.0-1.0-768.0","0","0","52373","","null","","","null","85","NaN","","","","","","","","","","","","","","",""
"","S2","","html-keyboard-response","519","443543","0.0-1.0-769.0","0","0","52373","","null","","","null","85","","NaN","","","","","","","","","","","","","",""
"","response","","html-keyboard-response","520","443763","0.0-1.0-770.0-0.0","0","0","52373","","217","","","75","85","","","2","85","training","adjacent","AB","1","2","O.jpg","P.jpg","1","1","1","",""
"","feedback","","html-keyboard-response","521","444766","0.0-1.0-771.0-0.0","0","0","52373","","null","","","null","85","","","","","","","","","","","","","","","",""
"","ITI","","html-keyboard-response","522","445774","0.0-1.0-774.0","0","0","52373","","null","","","null","85","","","","","","","","","","","","","","","NaN",""
"","S1","","html-keyboard-response","523","446037","0.0-1.0-776.0","0","0","52373","","null","","","null","86","","","","","","","","","","","","","","","",""
"","ISI","","html-keyboard-response","524","446549","0.0-1.0-777.0","0","0","52373","","null","","","null","86","NaN","","","","","","","","","","","","","","",""
"","S2","","html-keyboard-response","525","446813","0.0-1.0-778.0","0","0","52373","","null","","","null","86","","NaN","","","","","","","","","","","","","",""
"","response","","html-keyboard-response","526","447155","0.0-1.0-779.0-0.0","0","0","52373","","341","","","75","86","","","2","86","training","adjacent","BC","2","3","P.jpg","M.jpg","1","1","1","",""
"","feedback","","html-keyboard-response","527","448161","0.0-1.0-780.0-0.0","0","0","52373","","null","","","null","86","","","","","","","","","","","","","","","",""
"","ITI","","html-keyboard-response","528","449169","0.0-1.0-783.0","0","0","52373","","null","","","null","86","","","","","","","","","","","","","","","NaN",""
"","S1","","html-keyboard-response","529","449432","0.0-1.0-785.0","0","0","52373","","null","","","null","87","","","","","","","","","","","","","","","",""
"","ISI","","html-keyboard-response","530","449945","0.0-1.0-786.0","0","0","52373","","null","","","null","87","NaN","","","","","","","","","","","","","","",""
"","S2","","html-keyboard-response","531","450208","0.0-1.0-787.0","0","0","52373","","null","","","null","87","","NaN","","","","","","","","","","","","","",""
"","response","","html-keyboard-response","532","450505","0.0-1.0-788.0-0.0","0","0","52373","","296","","","75","87","","","2","87","training","adjacent","ED","5","4","N.jpg","Q.jpg","1","0","0","",""
"","feedback","","html-keyboard-response","533","451509","0.0-1.0-789.0-0.0","0","0","52373","","null","","","null","87","","","","","","","","","","","","","","","",""
"","time_out","","html-keyboard-response","534","453524","0.0-1.0-791.0-0.0","0","0","52373","","null","","","null","87","","","","","","","","","","","","","","","",""
"","ITI","","html-keyboard-response","535","454532","0.0-1.0-792.0","0","0","52373","","null","","","null","87","","","","","","","","","","","","","","","NaN",""
"","S1","","html-keyboard-response","536","454796","0.0-1.0-794.0","0","0","52373","","null","","","null","88","","","","","","","","","","","","","","","",""
"","ISI","","html-keyboard-response","537","455308","0.0-1.0-795.0","0","0","52373","","null","","","null","88","NaN","","","","","","","","","","","","","","",""
"","S2","","html-keyboard-response","538","455571","0.0-1.0-796.0","0","0","52373","","null","","","null","88","","NaN","","","","","","","","","","","","","",""
"","response","","html-keyboard-response","539","455784","0.0-1.0-797.0-0.0","0","0","52373","","212","","","75","88","","","2","88","training","adjacent","GF","7","6","L.jpg","R.jpg","1","0","0","",""
"","feedback","","html-keyboard-response","540","456795","0.0-1.0-798.0-0.0","0","0","52373","","null","","","null","88","","","","","","","","","","","","","","","",""
"","time_out","","html-keyboard-response","541","458812","0.0-1.0-800.0-0.0","0","0","52373","","null","","","null","88","","","","","","","","","","","","","","","",""
"","ITI","","html-keyboard-response","542","459818","0.0-1.0-801.0","0","0","52373","","null","","","null","88","","","","","","","","","","","","","","","NaN",""
"","S1","","html-keyboard-response","543","460082","0.0-1.0-803.0","0","0","52373","","null","","","null","89","","","","","","","","","","","","","","","",""
"","ISI","","html-keyboard-response","544","460593","0.0-1.0-804.0","0","0","52373","","null","","","null","89","NaN","","","","","","","","","","","","","","",""
"","S2","","html-keyboard-response","545","460857","0.0-1.0-805.0","0","0","52373","","null","","","null","89","","NaN","","","","","","","","","","","","","",""
"","response","","html-keyboard-response","546","460970","0.0-1.0-806.0-0.0","0","0","52373","","111","","","68","89","","","2","89","training","adjacent","DE","4","5","Q.jpg","N.jpg","0","1","0","",""
"","feedback","","html-keyboard-response","547","461974","0.0-1.0-807.0-0.0","0","0","52373","","null","","","null","89","","","","","","","","","","","","","","","",""
"","time_out","","html-keyboard-response","548","463989","0.0-1.0-809.0-0.0","0","0","52373","","null","","","null","89","","","","","","","","","","","","","","","",""
"","ITI","","html-keyboard-response","549","464997","0.0-1.0-810.0","0","0","52373","","null","","","null","89","","","","","","","","","","","","","","","NaN",""
"","S1","","html-keyboard-response","550","465260","0.0-1.0-812.0","0","0","52373","","null","","","null","90","","","","","","","","","","","","","","","",""
"","ISI","","html-keyboard-response","551","465772","0.0-1.0-813.0","0","0","52373","","null","","","null","90","NaN","","","","","","","","","","","","","","",""
"","S2","","html-keyboard-response","552","466005","0.0-1.0-814.0","0","0","52373","","231","","","75","90","","k","2","90","training","adjacent","CB","3","2","M.jpg","P.jpg","1","0","0","",""
"","feedback","","html-keyboard-response","553","467011","0.0-1.0-816.0-0.0","0","0","52373","","null","","","null","90","","","","","","","","","","","","","","","",""
"","time_out","","html-keyboard-response","554","469027","0.0-1.0-818.0-0.0","0","0","52373","","null","","","null","90","","","","","","","","","","","","","","","",""
"","ITI","","html-keyboard-response","555","470035","0.0-1.0-819.0","0","0","52373","","null","","","null","90","","","","","","","","","","","","","","","NaN",""
"","S1","","html-keyboard-response","556","470298","0.0-1.0-821.0","0","0","52373","","null","","","null","91","","","","","","","","","","","","","","","",""
"","ISI","","html-keyboard-response","557","470811","0.0-1.0-822.0","0","0","52373","","null","","","null","91","NaN","","","","","","","","","","","","","","",""
"","S2","","html-keyboard-response","558","471074","0.0-1.0-823.0","0","0","52373","","null","","","null","91","","NaN","","","","","","","","","","","","","",""
"","response","","html-keyboard-response","559","471155","0.0-1.0-824.0-0.0","0","0","52373","","79","","","68","91","","","2","91","training","adjacent","AB","1","2","O.jpg","P.jpg","0","1","0","",""
"","feedback","","html-keyboard-response","560","472159","0.0-1.0-825.0-0.0","0","0","52373","","null","","","null","91","","","","","","","","","","","","","","","",""
"","time_out","","html-keyboard-response","561","474174","0.0-1.0-827.0-0.0","0","0","52373","","null","","","null","91","","","","","","","","","","","","","","","",""
"","ITI","","html-keyboard-response","562","475182","0.0-1.0-828.0","0","0","52373","","null","","","null","91","","","","","","","","","","","","","","","NaN",""
"","S1","","html-keyboard-response","563","475446","0.0-1.0-830.0","0","0","52373","","null","","","null","92","","","","","","","","","","","","","","","",""
"","ISI","","html-keyboard-response","564","475958","0.0-1.0-831.0","0","0","52373","","null","","","null","92","NaN","","","","","","","","","","","","","","",""
"","S2","","html-keyboard-response","565","476198","0.0-1.0-832.0","0","0","52373","","238","","","75","92","","k","2","92","training","adjacent","AB","1","2","O.jpg","P.jpg","1","1","1","",""
"","feedback","","html-keyboard-response","566","477213","0.0-1.0-834.0-0.0","0","0","52373","","null","","","null","92","","","","","","","","","","","","","","","",""
"","ITI","","html-keyboard-response","567","478220","0.0-1.0-837.0","0","0","52373","","null","","","null","92","","","","","","","","","","","","","","","NaN",""
"","S1","","html-keyboard-response","568","478484","0.0-1.0-839.0","0","0","52373","","null","","","null","93","","","","","","","","","","","","","","","",""
"","ISI","","html-keyboard-response","569","478996","0.0-1.0-840.0","0","0","52373","","null","","","null","93","NaN","","","","","","","","","","","","","","",""
"","S2","","html-keyboard-response","570","479260","0.0-1.0-841.0","0","0","52373","","null","","","null","93","","NaN","","","","","","","","","","","","","",""
"","response","","html-keyboard-response","571","479380","0.0-1.0-842.0-0.0","0","0","52373","","119","","","75","93","","","2","93","training","adjacent","CB","3","2","M.jpg","P.jpg","1","0","0","",""
"","feedback","","html-keyboard-response","572","480391","0.0-1.0-843.0-0.0","0","0","52373","","null","","","null","93","","","","","","","","","","","","","","","",""
"","time_out","","html-keyboard-response","573","482407","0.0-1.0-845.0-0.0","0","0","52373","","null","","","null","93","","","","","","","","","","","","","","","",""
"","ITI","","html-keyboard-response","574","483415","0.0-1.0-846.0","0","0","52373","","null","","","null","93","","","","","","","","","","","","","","","NaN",""
"","S1","","html-keyboard-response","575","483677","0.0-1.0-848.0","0","0","52373","","null","","","null","94","","","","","","","","","","","","","","","",""
"","ISI","","html-keyboard-response","576","484189","0.0-1.0-849.0","0","0","52373","","null","","","null","94","NaN","","","","","","","","","","","","","","",""
"","S2","","html-keyboard-response","577","484406","0.0-1.0-850.0","0","0","52373","","215","","","68","94","","d","2","94","training","adjacent","GF","7","6","L.jpg","R.jpg","0","0","1","",""
"","feedback","","html-keyboard-response","578","485414","0.0-1.0-852.0-0.0","0","0","52373","","null","","","null","94","","","","","","","","","","","","","","","",""
"","ITI","","html-keyboard-response","579","486421","0.0-1.0-855.0","0","0","52373","","null","","","null","94","","","","","","","","","","","","","","","NaN",""
"","S1","","html-keyboard-response","580","486684","0.0-1.0-857.0","0","0","52373","","null","","","null","95","","","","","","","","","","","","","","","",""
