"success","ttype","start_time","trial_type","trial_index","time_elapsed","internal_node_id","warning","missed_checkup","PID","view_history","rt","responses","repeat_instructions","key_press","index","keypress_isi","keypress_S2","block","trial_num","phase","group_type","pair_type","S1_stim","S2_stim","S1_img","S2_img","S1_chosen","S1_higher","accuracy","keypress_iti","total_bonus_tally"
"true","full_screen","d04132023hr1524","fullscreen","0","23662","0.0-0.0","0","0","83224","","","","","","","","","","","","","","","","","","","","","",""
"","instructions","","instructions","1","55772","0.0-1.0-0.0-0.0","0","0","83224","[{""page_index"":0,""viewing_time"":2694},{""page_index"":1,""viewing_time"":22358},{""page_index"":2,""viewing_time"":5576},{""page_index"":3,""viewing_time"":1478}]","32107","","","","","","","","","","","","","","","","","","","",""
"","comprehension_check","","survey-multi-choice","2","90025","0.0-1.0-0.0-1.0","0","0","83224","","34249","{""Q0"":""True"",""Q1"":""D"",""Q2"":""Once the second image appears and while the screen 'MAKE A CHOICE' is shown"",""Q3"":""Green mark"",""Q4"":""either D or K""}","0","","","","","","","","","","","","","","","","","",""
"","start_exp","","html-keyboard-response","3","92943","0.0-1.0-1.0","0","0","83224","","2913","","","32","","","","","","","","","","","","","","","","",""
"","S1","","html-keyboard-response","4","93197","0.0-1.0-2.0","0","0","83224","","null","","","null","0","","","","","","","","","","","","","","","",""
"","ISI","","html-keyboard-response","5","94200","0.0-1.0-3.0","0","0","83224","","null","","","null","0","NaN","","","","","","","","","","","","","","",""
"","S2","","html-keyboard-response","6","94455","0.0-1.0-4.0","0","0","83224","","null","","","null","0","","NaN","","","","","","","","","","","","","",""
"","response","","html-keyboard-response","7","94876","0.0-1.0-5.0-0.0","0","0","83224","","418","","","68","0","","","1","0","training","adjacent","DE","4","5","R.jpg","Q.jpg","1","1","1","",""
"","feedback","","html-keyboard-response","8","95880","0.0-1.0-6.0-0.0","0","0","83224","","null","","","null","0","","","","","","","","","","","","","","","",""
"","ITI","","html-keyboard-response","9","96884","0.0-1.0-9.0","0","0","83224","","null","","","null","0","","","","","","","","","","","","","","","NaN",""
"","S1","","html-keyboard-response","10","97139","0.0-1.0-11.0","0","0","83224","","null","","","null","1","","","","","","","","","","","","","","","",""
"","ISI","","html-keyboard-response","11","98143","0.0-1.0-12.0","0","0","83224","","null","","","null","1","NaN","","","","","","","","","","","","","","",""
"","S2","","html-keyboard-response","12","98411","0.0-1.0-13.0","0","0","83224","","null","","","null","1","","NaN","","","","","","","","","","","","","",""
"","response","","html-keyboard-response","13","98812","0.0-1.0-14.0-0.0","0","0","83224","","398","","","75","1","","","1","1","training","adjacent","FG","6","7","N.jpg","P.jpg","0","1","0","",""
"","feedback","","html-keyboard-response","14","99817","0.0-1.0-15.0-0.0","0","0","83224","","null","","","null","1","","","","","","","","","","","","","","","",""
"","time_out","","html-keyboard-response","15","101819","0.0-1.0-17.0-0.0","0","0","83224","","null","","","null","1","","","","","","","","","","","","","","","",""
"","ITI","","html-keyboard-response","16","102824","0.0-1.0-18.0","0","0","83224","","null","","","null","1","","","","","","","","","","","","","","","NaN",""
"","S1","","html-keyboard-response","17","103078","0.0-1.0-20.0","0","0","83224","","null","","","null","2","","","","","","","","","","","","","","","",""
"","ISI","","html-keyboard-response","18","104082","0.0-1.0-21.0","0","0","83224","","null","","","null","2","NaN","","","","","","","","","","","","","","",""
"","S2","","html-keyboard-response","19","104336","0.0-1.0-22.0","0","0","83224","","null","","","null","2","","NaN","","","","","","","","","","","","","",""
"","response","","html-keyboard-response","20","104750","0.0-1.0-23.0-0.0","0","0","83224","","411","","","75","2","","","1","2","training","adjacent","BA","2","1","O.jpg","M.jpg","0","0","1","",""
"","feedback","","html-keyboard-response","21","105755","0.0-1.0-24.0-0.0","0","0","83224","","null","","","null","2","","","","","","","","","","","","","","","",""
"","ITI","","html-keyboard-response","22","106758","0.0-1.0-27.0","0","0","83224","","null","","","null","2","","","","","","","","","","","","","","","NaN",""
"","S1","","html-keyboard-response","23","107012","0.0-1.0-29.0","0","0","83224","","null","","","null","3","","","","","","","","","","","","","","","",""
"","ISI","","html-keyboard-response","24","108015","0.0-1.0-30.0","0","0","83224","","null","","","null","3","NaN","","","","","","","","","","","","","","",""
"","S2","","html-keyboard-response","25","108270","0.0-1.0-31.0","0","0","83224","","null","","","null","3","","NaN","","","","","","","","","","","","","",""
"","response","","html-keyboard-response","26","108476","0.0-1.0-32.0-0.0","0","0","83224","","204","","","68","3","","","1","3","training","adjacent","BC","2","3","O.jpg","L.jpg","1","1","1","",""
"","feedback","","html-keyboard-response","27","109479","0.0-1.0-33.0-0.0","0","0","83224","","null","","","null","3","","","","","","","","","","","","","","","",""
"","ITI","","html-keyboard-response","28","110484","0.0-1.0-36.0","0","0","83224","","null","","","null","3","","","","","","","","","","","","","","","NaN",""
"","S1","","html-keyboard-response","29","110738","0.0-1.0-38.0","0","0","83224","","null","","","null","4","","","","","","","","","","","","","","","",""
"","ISI","","html-keyboard-response","30","111742","0.0-1.0-39.0","0","0","83224","","null","","","null","4","NaN","","","","","","","","","","","","","","",""
"","S2","","html-keyboard-response","31","111997","0.0-1.0-40.0","0","0","83224","","null","","","null","4","","NaN","","","","","","","","","","","","","",""
"","response","","html-keyboard-response","32","112324","0.0-1.0-41.0-0.0","0","0","83224","","324","","","68","4","","","1","4","training","adjacent","CD","3","4","L.jpg","R.jpg","1","1","1","",""
"","feedback","","html-keyboard-response","33","113329","0.0-1.0-42.0-0.0","0","0","83224","","null","","","null","4","","","","","","","","","","","","","","","",""
"","ITI","","html-keyboard-response","34","114333","0.0-1.0-45.0","0","0","83224","","null","","","null","4","","","","","","","","","","","","","","","NaN",""
"","S1","","html-keyboard-response","35","114588","0.0-1.0-47.0","0","0","83224","","null","","","null","5","","","","","","","","","","","","","","","",""
"","ISI","","html-keyboard-response","36","115592","0.0-1.0-48.0","0","0","83224","","null","","","null","5","NaN","","","","","","","","","","","","","","",""
"","S2","","html-keyboard-response","37","115845","0.0-1.0-49.0","0","0","83224","","null","","","null","5","","NaN","","","","","","","","","","","","","",""
"","response","","html-keyboard-response","38","115973","0.0-1.0-50.0-0.0","0","0","83224","","124","","","75","5","","","1","5","training","adjacent","BC","2","3","O.jpg","L.jpg","0","1","0","",""
"","feedback","","html-keyboard-response","39","116976","0.0-1.0-51.0-0.0","0","0","83224","","null","","","null","5","","","","","","","","","","","","","","","",""
"","time_out","","html-keyboard-response","40","118980","0.0-1.0-53.0-0.0","0","0","83224","","null","","","null","5","","","","","","","","","","","","","","","",""
"","ITI","","html-keyboard-response","41","119984","0.0-1.0-54.0","0","0","83224","","null","","","null","5","","","","","","","","","","","","","","","NaN",""
"","S1","","html-keyboard-response","42","120237","0.0-1.0-56.0","0","0","83224","","null","","","null","6","","","","","","","","","","","","","","","",""
"","ISI","","html-keyboard-response","43","121240","0.0-1.0-57.0","0","0","83224","","null","","","null","6","NaN","","","","","","","","","","","","","","",""
"","S2","","html-keyboard-response","44","121495","0.0-1.0-58.0","0","0","83224","","null","","","null","6","","NaN","","","","","","","","","","","","","",""
"","response","","html-keyboard-response","45","121852","0.0-1.0-59.0-0.0","0","0","83224","","354","","","75","6","","","1","6","training","adjacent","FG","6","7","N.jpg","P.jpg","0","1","0","",""
"","feedback","","html-keyboard-response","46","122857","0.0-1.0-60.0-0.0","0","0","83224","","null","","","null","6","","","","","","","","","","","","","","","",""
"","time_out","","html-keyboard-response","47","124860","0.0-1.0-62.0-0.0","0","0","83224","","null","","","null","6","","","","","","","","","","","","","","","",""
"","ITI","","html-keyboard-response","48","125864","0.0-1.0-63.0","0","0","83224","","null","","","null","6","","","","","","","","","","","","","","","NaN",""
"","S1","","html-keyboard-response","49","126118","0.0-1.0-65.0","0","0","83224","","null","","","null","7","","","","","","","","","","","","","","","",""
"","ISI","","html-keyboard-response","50","127122","0.0-1.0-66.0","0","0","83224","","null","","","null","7","NaN","","","","","","","","","","","","","","",""
"","S2","","html-keyboard-response","51","127376","0.0-1.0-67.0","0","0","83224","","null","","","null","7","","NaN","","","","","","","","","","","","","",""
"","response","","html-keyboard-response","52","127693","0.0-1.0-68.0-0.0","0","0","83224","","313","","","68","7","","","1","7","training","adjacent","AB","1","2","M.jpg","O.jpg","1","1","1","",""
"","feedback","","html-keyboard-response","53","128697","0.0-1.0-69.0-0.0","0","0","83224","","null","","","null","7","","","","","","","","","","","","","","","",""
"","ITI","","html-keyboard-response","54","129701","0.0-1.0-72.0","0","0","83224","","null","","","null","7","","","","","","","","","","","","","","","NaN",""
"","S1","","html-keyboard-response","55","129956","0.0-1.0-74.0","0","0","83224","","null","","","null","8","","","","","","","","","","","","","","","",""
"","ISI","","html-keyboard-response","56","130960","0.0-1.0-75.0","0","0","83224","","null","","","null","8","NaN","","","","","","","","","","","","","","",""
"","S2","","html-keyboard-response","57","131216","0.0-1.0-76.0","0","0","83224","","null","","","null","8","","NaN","","","","","","","","","","","","","",""
"","response","","html-keyboard-response","58","131525","0.0-1.0-77.0-0.0","0","0","83224","","308","","","68","8","","","1","8","training","adjacent","DE","4","5","R.jpg","Q.jpg","1","1","1","",""
"","feedback","","html-keyboard-response","59","132529","0.0-1.0-78.0-0.0","0","0","83224","","null","","","null","8","","","","","","","","","","","","","","","",""
"","ITI","","html-keyboard-response","60","133532","0.0-1.0-81.0","0","0","83224","","null","","","null","8","","","","","","","","","","","","","","","NaN",""
"","S1","","html-keyboard-response","61","133786","0.0-1.0-83.0","0","0","83224","","null","","","null","9","","","","","","","","","","","","","","","",""
"","ISI","","html-keyboard-response","62","134789","0.0-1.0-84.0","0","0","83224","","null","","","null","9","NaN","","","","","","","","","","","","","","",""
"","S2","","html-keyboard-response","63","135043","0.0-1.0-85.0","0","0","83224","","null","","","null","9","","NaN","","","","","","","","","","","","","",""
"","response","","html-keyboard-response","64","135357","0.0-1.0-86.0-0.0","0","0","83224","","310","","","68","9","","","1","9","training","adjacent","CB","3","2","L.jpg","O.jpg","1","0","0","",""
"","feedback","","html-keyboard-response","65","136361","0.0-1.0-87.0-0.0","0","0","83224","","null","","","null","9","","","","","","","","","","","","","","","",""
"","time_out","","html-keyboard-response","66","138365","0.0-1.0-89.0-0.0","0","0","83224","","null","","","null","9","","","","","","","","","","","","","","","",""
"","ITI","","html-keyboard-response","67","139369","0.0-1.0-90.0","0","0","83224","","null","","","null","9","","","","","","","","","","","","","","","NaN",""
"","S1","","html-keyboard-response","68","139623","0.0-1.0-92.0","0","0","83224","","null","","","null","10","","","","","","","","","","","","","","","",""
"","ISI","","html-keyboard-response","69","140625","0.0-1.0-93.0","0","0","83224","","null","","","null","10","NaN","","","","","","","","","","","","","","",""
"","S2","","html-keyboard-response","70","140879","0.0-1.0-94.0","0","0","83224","","null","","","null","10","","NaN","","","","","","","","","","","","","",""
"","response","","html-keyboard-response","71","141097","0.0-1.0-95.0-0.0","0","0","83224","","217","","","75","10","","","1","10","training","adjacent","EF","5","6","Q.jpg","N.jpg","0","1","0","",""
"","feedback","","html-keyboard-response","72","142104","0.0-1.0-96.0-0.0","0","0","83224","","null","","","null","10","","","","","","","","","","","","","","","",""
"","time_out","","html-keyboard-response","73","144108","0.0-1.0-98.0-0.0","0","0","83224","","null","","","null","10","","","","","","","","","","","","","","","",""
"","ITI","","html-keyboard-response","74","145112","0.0-1.0-99.0","0","0","83224","","null","","","null","10","","","","","","","","","","","","","","","NaN",""
"","S1","","html-keyboard-response","75","145366","0.0-1.0-101.0","0","0","83224","","null","","","null","11","","","","","","","","","","","","","","","",""
"","ISI","","html-keyboard-response","76","146369","0.0-1.0-102.0","0","0","83224","","null","","","null","11","NaN","","","","","","","","","","","","","","",""
"","S2","","html-keyboard-response","77","146623","0.0-1.0-103.0","0","0","83224","","null","","","null","11","","NaN","","","","","","","","","","","","","",""
"","response","","html-keyboard-response","78","147044","0.0-1.0-104.0-0.0","0","0","83224","","419","","","75","11","","","1","11","training","adjacent","CD","3","4","L.jpg","R.jpg","0","1","0","",""
"","feedback","","html-keyboard-response","79","148049","0.0-1.0-105.0-0.0","0","0","83224","","null","","","null","11","","","","","","","","","","","","","","","",""
"","time_out","","html-keyboard-response","80","150052","0.0-1.0-107.0-0.0","0","0","83224","","null","","","null","11","","","","","","","","","","","","","","","",""
"","ITI","","html-keyboard-response","81","151056","0.0-1.0-108.0","0","0","83224","","null","","","null","11","","","","","","","","","","","","","","","NaN",""
"","S1","","html-keyboard-response","82","151310","0.0-1.0-110.0","0","0","83224","","null","","","null","12","","","","","","","","","","","","","","","",""
"","ISI","","html-keyboard-response","83","152313","0.0-1.0-111.0","0","0","83224","","null","","","null","12","NaN","","","","","","","","","","","","","","",""
"","S2","","html-keyboard-response","84","152567","0.0-1.0-112.0","0","0","83224","","null","","","null","12","","NaN","","","","","","","","","","","","","",""
"","response","","html-keyboard-response","85","152892","0.0-1.0-113.0-0.0","0","0","83224","","323","","","68","12","","","1","12","training","adjacent","FE","6","5","N.jpg","Q.jpg","1","0","0","",""
"","feedback","","html-keyboard-response","86","153896","0.0-1.0-114.0-0.0","0","0","83224","","null","","","null","12","","","","","","","","","","","","","","","",""
"","time_out","","html-keyboard-response","87","155901","0.0-1.0-116.0-0.0","0","0","83224","","null","","","null","12","","","","","","","","","","","","","","","",""
"","ITI","","html-keyboard-response","88","156904","0.0-1.0-117.0","0","0","83224","","null","","","null","12","","","","","","","","","","","","","","","NaN",""
"","S1","","html-keyboard-response","89","157158","0.0-1.0-119.0","0","0","83224","","null","","","null","13","","","","","","","","","","","","","","","",""
"","ISI","","html-keyboard-response","90","158161","0.0-1.0-120.0","0","0","83224","","null","","","null","13","NaN","","","","","","","","","","","","","","",""
"","S2","","html-keyboard-response","91","158415","0.0-1.0-121.0","0","0","83224","","null","","","null","13","","NaN","","","","","","","","","","","","","",""
"","response","","html-keyboard-response","92","158908","0.0-1.0-122.0-0.0","0","0","83224","","490","","","68","13","","","1","13","training","adjacent","FE","6","5","N.jpg","Q.jpg","1","0","0","",""
"","feedback","","html-keyboard-response","93","159912","0.0-1.0-123.0-0.0","0","0","83224","","null","","","null","13","","","","","","","","","","","","","","","",""
"","time_out","","html-keyboard-response","94","161916","0.0-1.0-125.0-0.0","0","0","83224","","null","","","null","13","","","","","","","","","","","","","","","",""
"","ITI","","html-keyboard-response","95","162922","0.0-1.0-126.0","0","0","83224","","null","","","null","13","","","","","","","","","","","","","","","NaN",""
"","S1","","html-keyboard-response","96","163175","0.0-1.0-128.0","0","0","83224","","null","","","null","14","","","","","","","","","","","","","","","",""
"","ISI","","html-keyboard-response","97","164180","0.0-1.0-129.0","0","0","83224","","null","","","null","14","NaN","","","","","","","","","","","","","","",""
"","S2","","html-keyboard-response","98","164433","0.0-1.0-130.0","0","0","83224","","null","","","null","14","","NaN","","","","","","","","","","","","","",""
"","response","","html-keyboard-response","99","164724","0.0-1.0-131.0-0.0","0","0","83224","","289","","","68","14","","","1","14","training","adjacent","FE","6","5","N.jpg","Q.jpg","1","0","0","",""
"","feedback","","html-keyboard-response","100","165728","0.0-1.0-132.0-0.0","0","0","83224","","null","","","null","14","","","","","","","","","","","","","","","",""
"","time_out","","html-keyboard-response","101","167732","0.0-1.0-134.0-0.0","0","0","83224","","null","","","null","14","","","","","","","","","","","","","","","",""
"","ITI","","html-keyboard-response","102","168735","0.0-1.0-135.0","0","0","83224","","null","","","null","14","","","","","","","","","","","","","","","NaN",""
"","S1","","html-keyboard-response","103","168990","0.0-1.0-137.0","0","0","83224","","null","","","null","15","","","","","","","","","","","","","","","",""
"","ISI","","html-keyboard-response","104","169994","0.0-1.0-138.0","0","0","83224","","null","","","null","15","NaN","","","","","","","","","","","","","","",""
"","S2","","html-keyboard-response","105","170257","0.0-1.0-139.0","0","0","83224","","null","","","null","15","","NaN","","","","","","","","","","","","","",""
"","response","","html-keyboard-response","106","170404","0.0-1.0-140.0-0.0","0","0","83224","","143","","","75","15","","","1","15","training","adjacent","ED","5","4","Q.jpg","R.jpg","0","0","1","",""
"","feedback","","html-keyboard-response","107","171409","0.0-1.0-141.0-0.0","0","0","83224","","null","","","null","15","","","","","","","","","","","","","","","",""
"","ITI","","html-keyboard-response","108","172413","0.0-1.0-144.0","0","0","83224","","null","","","null","15","","","","","","","","","","","","","","","NaN",""
"","S1","","html-keyboard-response","109","172668","0.0-1.0-146.0","0","0","83224","","null","","","null","16","","","","","","","","","","","","","","","",""
"","ISI","","html-keyboard-response","110","173672","0.0-1.0-147.0","0","0","83224","","null","","","null","16","NaN","","","","","","","","","","","","","","",""
"","S2","","html-keyboard-response","111","173925","0.0-1.0-148.0","0","0","83224","","null","","","null","16","","NaN","","","","","","","","","","","","","",""
"","response","","html-keyboard-response","112","174213","0.0-1.0-149.0-0.0","0","0","83224","","285","","","68","16","","","1","16","training","adjacent","DC","4","3","R.jpg","L.jpg","1","0","0","",""
"","feedback","","html-keyboard-response","113","175217","0.0-1.0-150.0-0.0","0","0","83224","","null","","","null","16","","","","","","","","","","","","","","","",""
"","time_out","","html-keyboard-response","114","177221","0.0-1.0-152.0-0.0","0","0","83224","","null","","","null","16","","","","","","","","","","","","","","","",""
"","ITI","","html-keyboard-response","115","178225","0.0-1.0-153.0","0","0","83224","","null","","","null","16","","","","","","","","","","","","","","","NaN",""
"","S1","","html-keyboard-response","116","178479","0.0-1.0-155.0","0","0","83224","","null","","","null","17","","","","","","","","","","","","","","","",""
"","ISI","","html-keyboard-response","117","179481","0.0-1.0-156.0","0","0","83224","","null","","","null","17","NaN","","","","","","","","","","","","","","",""
"","S2","","html-keyboard-response","118","179735","0.0-1.0-157.0","0","0","83224","","null","","","null","17","","NaN","","","","","","","","","","","","","",""
"","response","","html-keyboard-response","119","179974","0.0-1.0-158.0-0.0","0","0","83224","","236","","","75","17","","","1","17","training","adjacent","EF","5","6","Q.jpg","N.jpg","0","1","0","",""
"","feedback","","html-keyboard-response","120","180976","0.0-1.0-159.0-0.0","0","0","83224","","null","","","null","17","","","","","","","","","","","","","","","",""
"","time_out","","html-keyboard-response","121","182980","0.0-1.0-161.0-0.0","0","0","83224","","null","","","null","17","","","","","","","","","","","","","","","",""
"","ITI","","html-keyboard-response","122","183984","0.0-1.0-162.0","0","0","83224","","null","","","null","17","","","","","","","","","","","","","","","NaN",""
"","S1","","html-keyboard-response","123","184238","0.0-1.0-164.0","0","0","83224","","null","","","null","18","","","","","","","","","","","","","","","",""
"","ISI","","html-keyboard-response","124","185243","0.0-1.0-165.0","0","0","83224","","null","","","null","18","NaN","","","","","","","","","","","","","","",""
"","S2","","html-keyboard-response","125","185497","0.0-1.0-166.0","0","0","83224","","null","","","null","18","","NaN","","","","","","","","","","","","","",""
"","response","","html-keyboard-response","126","185796","0.0-1.0-167.0-0.0","0","0","83224","","296","","","68","18","","","1","18","training","adjacent","BC","2","3","O.jpg","L.jpg","1","1","1","",""
"","feedback","","html-keyboard-response","127","186800","0.0-1.0-168.0-0.0","0","0","83224","","null","","","null","18","","","","","","","","","","","","","","","",""
"","ITI","","html-keyboard-response","128","187805","0.0-1.0-171.0","0","0","83224","","null","","","null","18","","","","","","","","","","","","","","","NaN",""
"","S1","","html-keyboard-response","129","188059","0.0-1.0-173.0","0","0","83224","","null","","","null","19","","","","","","","","","","","","","","","",""
"","ISI","","html-keyboard-response","130","189062","0.0-1.0-174.0","0","0","83224","","null","","","null","19","NaN","","","","","","","","","","","","","","",""
"","S2","","html-keyboard-response","131","189316","0.0-1.0-175.0","0","0","83224","","null","","","null","19","","NaN","","","","","","","","","","","","","",""
"","response","","html-keyboard-response","132","189684","0.0-1.0-176.0-0.0","0","0","83224","","365","","","75","19","","","1","19","training","adjacent","DE","4","5","R.jpg","Q.jpg","0","1","0","",""
"","feedback","","html-keyboard-response","133","190688","0.0-1.0-177.0-0.0","0","0","83224","","null","","","null","19","","","","","","","","","","","","","","","",""
"","time_out","","html-keyboard-response","134","192691","0.0-1.0-179.0-0.0","0","0","83224","","null","","","null","19","","","","","","","","","","","","","","","",""
"","ITI","","html-keyboard-response","135","193696","0.0-1.0-180.0","0","0","83224","","null","","","null","19","","","","","","","","","","","","","","","NaN",""
"","S1","","html-keyboard-response","136","193950","0.0-1.0-182.0","0","0","83224","","null","","","null","20","","","","","","","","","","","","","","","",""
"","ISI","","html-keyboard-response","137","194954","0.0-1.0-183.0","0","0","83224","","null","","","null","20","NaN","","","","","","","","","","","","","","",""
"","S2","","html-keyboard-response","138","195218","0.0-1.0-184.0","0","0","83224","","null","","","null","20","","NaN","","","","","","","","","","","","","",""
"","response","","html-keyboard-response","139","195636","0.0-1.0-185.0-0.0","0","0","83224","","415","","","75","20","","","1","20","training","adjacent","DC","4","3","R.jpg","L.jpg","0","0","1","",""
"","feedback","","html-keyboard-response","140","196641","0.0-1.0-186.0-0.0","0","0","83224","","null","","","null","20","","","","","","","","","","","","","","","",""
"","ITI","","html-keyboard-response","141","197644","0.0-1.0-189.0","0","0","83224","","null","","","null","20","","","","","","","","","","","","","","","NaN",""
"","S1","","html-keyboard-response","142","197899","0.0-1.0-191.0","0","0","83224","","null","","","null","21","","","","","","","","","","","","","","","",""
"","ISI","","html-keyboard-response","143","198903","0.0-1.0-192.0","0","0","83224","","null","","","null","21","NaN","","","","","","","","","","","","","","",""
"","S2","","html-keyboard-response","144","199157","0.0-1.0-193.0","0","0","83224","","null","","","null","21","","NaN","","","","","","","","","","","","","",""
"","response","","html-keyboard-response","145","199492","0.0-1.0-194.0-0.0","0","0","83224","","333","","","68","21","","","1","21","training","adjacent","AB","1","2","M.jpg","O.jpg","1","1","1","",""
"","feedback","","html-keyboard-response","146","200497","0.0-1.0-195.0-0.0","0","0","83224","","null","","","null","21","","","","","","","","","","","","","","","",""
"","ITI","","html-keyboard-response","147","201501","0.0-1.0-198.0","0","0","83224","","null","","","null","21","","","","","","","","","","","","","","","NaN",""
"","S1","","html-keyboard-response","148","201755","0.0-1.0-200.0","0","0","83224","","null","","","null","22","","","","","","","","","","","","","","","",""
"","ISI","","html-keyboard-response","149","202763","0.0-1.0-201.0","0","0","83224","","null","","","null","22","NaN","","","","","","","","","","","","","","",""
"","S2","","html-keyboard-response","150","203017","0.0-1.0-202.0","0","0","83224","","null","","","null","22","","NaN","","","","","","","","","","","","","",""
"","response","","html-keyboard-response","151","203428","0.0-1.0-203.0-0.0","0","0","83224","","408","","","75","22","","","1","22","training","adjacent","FG","6","7","N.jpg","P.jpg","0","1","0","",""
"","feedback","","html-keyboard-response","152","204433","0.0-1.0-204.0-0.0","0","0","83224","","null","","","null","22","","","","","","","","","","","","","","","",""
"","time_out","","html-keyboard-response","153","206437","0.0-1.0-206.0-0.0","0","0","83224","","null","","","null","22","","","","","","","","","","","","","","","",""
"","ITI","","html-keyboard-response","154","207441","0.0-1.0-207.0","0","0","83224","","null","","","null","22","","","","","","","","","","","","","","","NaN",""
"","S1","","html-keyboard-response","155","207695","0.0-1.0-209.0","0","0","83224","","null","","","null","23","","","","","","","","","","","","","","","",""
"","ISI","","html-keyboard-response","156","208699","0.0-1.0-210.0","0","0","83224","","null","","","null","23","NaN","","","","","","","","","","","","","","",""
"","S2","","html-keyboard-response","157","208954","0.0-1.0-211.0","0","0","83224","","null","","","null","23","","NaN","","","","","","","","","","","","","",""
"","response","","html-keyboard-response","158","209188","0.0-1.0-212.0-0.0","0","0","83224","","232","","","68","23","","","1","23","training","adjacent","FE","6","5","N.jpg","Q.jpg","1","0","0","",""
"","feedback","","html-keyboard-response","159","210192","0.0-1.0-213.0-0.0","0","0","83224","","null","","","null","23","","","","","","","","","","","","","","","",""
"","time_out","","html-keyboard-response","160","212196","0.0-1.0-215.0-0.0","0","0","83224","","null","","","null","23","","","","","","","","","","","","","","","",""
"","ITI","","html-keyboard-response","161","213200","0.0-1.0-216.0","0","0","83224","","null","","","null","23","","","","","","","","","","","","","","","NaN",""
"","S1","","html-keyboard-response","162","213454","0.0-1.0-218.0","0","0","83224","","null","","","null","24","","","","","","","","","","","","","","","",""
"","ISI","","html-keyboard-response","163","214458","0.0-1.0-219.0","0","0","83224","","null","","","null","24","NaN","","","","","","","","","","","","","","",""
"","S2","","html-keyboard-response","164","214712","0.0-1.0-220.0","0","0","83224","","null","","","null","24","","NaN","","","","","","","","","","","","","",""
"","response","","html-keyboard-response","165","215156","0.0-1.0-221.0-0.0","0","0","83224","","441","","","68","24","","","1","24","training","adjacent","DE","4","5","R.jpg","Q.jpg","1","1","1","",""
"","feedback","","html-keyboard-response","166","216161","0.0-1.0-222.0-0.0","0","0","83224","","null","","","null","24","","","","","","","","","","","","","","","",""
"","ITI","","html-keyboard-response","167","217164","0.0-1.0-225.0","0","0","83224","","null","","","null","24","","","","","","","","","","","","","","","NaN",""
"","S1","","html-keyboard-response","168","217418","0.0-1.0-227.0","0","0","83224","","null","","","null","25","","","","","","","","","","","","","","","",""
"","ISI","","html-keyboard-response","169","218423","0.0-1.0-228.0","0","0","83224","","null","","","null","25","NaN","","","","","","","","","","","","","","",""
"","S2","","html-keyboard-response","170","218676","0.0-1.0-229.0","0","0","83224","","null","","","null","25","","NaN","","","","","","","","","","","","","",""
"","response","","html-keyboard-response","171","219156","0.0-1.0-230.0-0.0","0","0","83224","","477","","","75","25","","","1","25","training","adjacent","BA","2","1","O.jpg","M.jpg","0","0","1","",""
"","feedback","","html-keyboard-response","172","220160","0.0-1.0-231.0-0.0","0","0","83224","","null","","","null","25","","","","","","","","","","","","","","","",""
"","ITI","","html-keyboard-response","173","221163","0.0-1.0-234.0","0","0","83224","","null","","","null","25","","","","","","","","","","","","","","","NaN",""
"","S1","","html-keyboard-response","174","221417","0.0-1.0-236.0","0","0","83224","","null","","","null","26","","","","","","","","","","","","","","","",""
"","ISI","","html-keyboard-response","175","222420","0.0-1.0-237.0","0","0","83224","","null","","","null","26","NaN","","","","","","","","","","","","","","",""
"","S2","","html-keyboard-response","176","222674","0.0-1.0-238.0","0","0","83224","","null","","","null","26","","NaN","","","","","","","","","","","","","",""
"","response","","html-keyboard-response","177","223009","0.0-1.0-239.0-0.0","0","0","83224","","333","","","68","26","","","1","26","training","adjacent","BC","2","3","O.jpg","L.jpg","1","1","1","",""
"","feedback","","html-keyboard-response","178","224011","0.0-1.0-240.0-0.0","0","0","83224","","null","","","null","26","","","","","","","","","","","","","","","",""
"","ITI","","html-keyboard-response","179","225016","0.0-1.0-243.0","0","0","83224","","null","","","null","26","","","","","","","","","","","","","","","NaN",""
"","S1","","html-keyboard-response","180","225270","0.0-1.0-245.0","0","0","83224","","null","","","null","27","","","","","","","","","","","","","","","",""
"","ISI","","html-keyboard-response","181","226275","0.0-1.0-246.0","0","0","83224","","null","","","null","27","NaN","","","","","","","","","","","","","","",""
"","S2","","html-keyboard-response","182","226528","0.0-1.0-247.0","0","0","83224","","null","","","null","27","","NaN","","","","","","","","","","","","","",""
"","response","","html-keyboard-response","183","227380","0.0-1.0-248.0-0.0","0","0","83224","","849","","","75","27","","","1","27","training","adjacent","CB","3","2","L.jpg","O.jpg","0","0","1","",""
"","feedback","","html-keyboard-response","184","228384","0.0-1.0-249.0-0.0","0","0","83224","","null","","","null","27","","","","","","","","","","","","","","","",""
"","ITI","","html-keyboard-response","185","229388","0.0-1.0-252.0","0","0","83224","","null","","","null","27","","","","","","","","","","","","","","","NaN",""
"","S1","","html-keyboard-response","186","229642","0.0-1.0-254.0","0","0","83224","","null","","","null","28","","","","","","","","","","","","","","","",""
"","ISI","","html-keyboard-response","187","230646","0.0-1.0-255.0","0","0","83224","","null","","","null","28","NaN","","","","","","","","","","","","","","",""
"","S2","","html-keyboard-response","188","230900","0.0-1.0-256.0","0","0","83224","","null","","","null","28","","NaN","","","","","","","","","","","","","",""
"","response","","html-keyboard-response","189","231364","0.0-1.0-257.0-0.0","0","0","83224","","461","","","68","28","","","1","28","training","adjacent","ED","5","4","Q.jpg","R.jpg","1","0","0","",""
"","feedback","","html-keyboard-response","190","232368","0.0-1.0-258.0-0.0","0","0","83224","","null","","","null","28","","","","","","","","","","","","","","","",""
"","time_out","","html-keyboard-response","191","234372","0.0-1.0-260.0-0.0","0","0","83224","","null","","","null","28","","","","","","","","","","","","","","","",""
"","ITI","","html-keyboard-response","192","235376","0.0-1.0-261.0","0","0","83224","","null","","","null","28","","","","","","","","","","","","","","","NaN",""
"","S1","","html-keyboard-response","193","235631","0.0-1.0-263.0","0","0","83224","","null","","","null","29","","","","","","","","","","","","","","","",""
"","ISI","","html-keyboard-response","194","236634","0.0-1.0-264.0","0","0","83224","","null","","","null","29","NaN","","","","","","","","","","","","","","",""
"","S2","","html-keyboard-response","195","236890","0.0-1.0-265.0","0","0","83224","","null","","","null","29","","NaN","","","","","","","","","","","","","",""
"","response","","html-keyboard-response","196","237908","0.0-1.0-266.0-0.0","0","0","83224","","1016","","","75","29","","","1","29","training","adjacent","CB","3","2","L.jpg","O.jpg","0","0","1","",""
"","feedback","","html-keyboard-response","197","238911","0.0-1.0-267.0-0.0","0","0","83224","","null","","","null","29","","","","","","","","","","","","","","","",""
"","ITI","","html-keyboard-response","198","239915","0.0-1.0-270.0","0","0","83224","","null","","","null","29","","","","","","","","","","","","","","","NaN",""
"","S1","","html-keyboard-response","199","240170","0.0-1.0-272.0","0","0","83224","","null","","","null","30","","","","","","","","","","","","","","","",""
"","ISI","","html-keyboard-response","200","241174","0.0-1.0-273.0","0","0","83224","","null","","","null","30","NaN","","","","","","","","","","","","","","",""
"","S2","","html-keyboard-response","201","241429","0.0-1.0-274.0","0","0","83224","","null","","","null","30","","NaN","","","","","","","","","","","","","",""
"","response","","html-keyboard-response","202","241940","0.0-1.0-275.0-0.0","0","0","83224","","508","","","68","30","","","1","30","training","adjacent","EF","5","6","Q.jpg","N.jpg","1","1","1","",""
"","feedback","","html-keyboard-response","203","242944","0.0-1.0-276.0-0.0","0","0","83224","","null","","","null","30","","","","","","","","","","","","","","","",""
"","ITI","","html-keyboard-response","204","243948","0.0-1.0-279.0","0","0","83224","","null","","","null","30","","","","","","","","","","","","","","","NaN",""
"","S1","","html-keyboard-response","205","244203","0.0-1.0-281.0","0","0","83224","","null","","","null","31","","","","","","","","","","","","","","","",""
"","ISI","","html-keyboard-response","206","245206","0.0-1.0-282.0","0","0","83224","","null","","","null","31","NaN","","","","","","","","","","","","","","",""
"","S2","","html-keyboard-response","207","245464","0.0-1.0-283.0","0","0","83224","","null","","","null","31","","NaN","","","","","","","","","","","","","",""
"","response","","html-keyboard-response","208","245836","0.0-1.0-284.0-0.0","0","0","83224","","368","","","68","31","","","1","31","training","adjacent","CD","3","4","L.jpg","R.jpg","1","1","1","",""
"","feedback","","html-keyboard-response","209","246841","0.0-1.0-285.0-0.0","0","0","83224","","null","","","null","31","","","","","","","","","","","","","","","",""
"","ITI","","html-keyboard-response","210","247844","0.0-1.0-288.0","0","0","83224","","null","","","null","31","","","","","","","","","","","","","","","NaN",""
"","S1","","html-keyboard-response","211","248102","0.0-1.0-290.0","0","0","83224","","null","","","null","32","","","","","","","","","","","","","","","",""
"","ISI","","html-keyboard-response","212","249106","0.0-1.0-291.0","0","0","83224","","null","","","null","32","NaN","","","","","","","","","","","","","","",""
"","S2","","html-keyboard-response","213","249361","0.0-1.0-292.0","0","0","83224","","null","","","null","32","","NaN","","","","","","","","","","","","","",""
"","response","","html-keyboard-response","214","249969","0.0-1.0-293.0-0.0","0","0","83224","","606","","","68","32","","","1","32","training","adjacent","AB","1","2","M.jpg","O.jpg","1","1","1","",""
"","feedback","","html-keyboard-response","215","250973","0.0-1.0-294.0-0.0","0","0","83224","","null","","","null","32","","","","","","","","","","","","","","","",""
"","ITI","","html-keyboard-response","216","251978","0.0-1.0-297.0","0","0","83224","","null","","","null","32","","","","","","","","","","","","","","","NaN",""
"","S1","","html-keyboard-response","217","252232","0.0-1.0-299.0","0","0","83224","","null","","","null","33","","","","","","","","","","","","","","","",""
"","ISI","","html-keyboard-response","218","253236","0.0-1.0-300.0","0","0","83224","","null","","","null","33","NaN","","","","","","","","","","","","","","",""
"","S2","","html-keyboard-response","219","253490","0.0-1.0-301.0","0","0","83224","","null","","","null","33","","NaN","","","","","","","","","","","","","",""
"","response","","html-keyboard-response","220","254132","0.0-1.0-302.0-0.0","0","0","83224","","638","","","68","33","","","1","33","training","adjacent","DC","4","3","R.jpg","L.jpg","1","0","0","",""
"","feedback","","html-keyboard-response","221","255135","0.0-1.0-303.0-0.0","0","0","83224","","null","","","null","33","","","","","","","","","","","","","","","",""
"","time_out","","html-keyboard-response","222","257139","0.0-1.0-305.0-0.0","0","0","83224","","null","","","null","33","","","","","","","","","","","","","","","",""
"","ITI","","html-keyboard-response","223","258142","0.0-1.0-306.0","0","0","83224","","null","","","null","33","","","","","","","","","","","","","","","NaN",""
"","S1","","html-keyboard-response","224","258396","0.0-1.0-308.0","0","0","83224","","null","","","null","34","","","","","","","","","","","","","","","",""
"","ISI","","html-keyboard-response","225","259400","0.0-1.0-309.0","0","0","83224","","null","","","null","34","NaN","","","","","","","","","","","","","","",""
"","S2","","html-keyboard-response","226","259654","0.0-1.0-310.0","0","0","83224","","null","","","null","34","","NaN","","","","","","","","","","","","","",""
"","response","","html-keyboard-response","227","260243","0.0-1.0-311.0-0.0","0","0","83224","","587","","","75","34","","","1","34","training","adjacent","GF","7","6","P.jpg","N.jpg","0","0","1","",""
"","feedback","","html-keyboard-response","228","261247","0.0-1.0-312.0-0.0","0","0","83224","","null","","","null","34","","","","","","","","","","","","","","","",""
"","ITI","","html-keyboard-response","229","262251","0.0-1.0-315.0","0","0","83224","","null","","","null","34","","","","","","","","","","","","","","","NaN",""
"","S1","","html-keyboard-response","230","262506","0.0-1.0-317.0","0","0","83224","","null","","","null","35","","","","","","","","","","","","","","","",""
"","ISI","","html-keyboard-response","231","263509","0.0-1.0-318.0","0","0","83224","","null","","","null","35","NaN","","","","","","","","","","","","","","",""
"","S2","","html-keyboard-response","232","263763","0.0-1.0-319.0","0","0","83224","","null","","","null","35","","NaN","","","","","","","","","","","","","",""
"","response","","html-keyboard-response","233","264468","0.0-1.0-320.0-0.0","0","0","83224","","702","","","68","35","","","1","35","training","adjacent","CD","3","4","L.jpg","R.jpg","1","1","1","",""
"","feedback","","html-keyboard-response","234","265472","0.0-1.0-321.0-0.0","0","0","83224","","null","","","null","35","","","","","","","","","","","","","","","",""
"","ITI","","html-keyboard-response","235","266476","0.0-1.0-324.0","0","0","83224","","null","","","null","35","","","","","","","","","","","","","","","NaN",""
"","S1","","html-keyboard-response","236","266730","0.0-1.0-326.0","0","0","83224","","null","","","null","36","","","","","","","","","","","","","","","",""
"","ISI","","html-keyboard-response","237","267733","0.0-1.0-327.0","0","0","83224","","null","","","null","36","NaN","","","","","","","","","","","","","","",""
"","S2","","html-keyboard-response","238","267988","0.0-1.0-328.0","0","0","83224","","null","","","null","36","","NaN","","","","","","","","","","","","","",""
"","response","","html-keyboard-response","239","268531","0.0-1.0-329.0-0.0","0","0","83224","","540","","","75","36","","","1","36","training","adjacent","BA","2","1","O.jpg","M.jpg","0","0","1","",""
"","feedback","","html-keyboard-response","240","269536","0.0-1.0-330.0-0.0","0","0","83224","","null","","","null","36","","","","","","","","","","","","","","","",""
"","ITI","","html-keyboard-response","241","270540","0.0-1.0-333.0","0","0","83224","","null","","","null","36","","","","","","","","","","","","","","","NaN",""
"","S1","","html-keyboard-response","242","270794","0.0-1.0-335.0","0","0","83224","","null","","","null","37","","","","","","","","","","","","","","","",""
"","ISI","","html-keyboard-response","243","271798","0.0-1.0-336.0","0","0","83224","","null","","","null","37","NaN","","","","","","","","","","","","","","",""
"","S2","","html-keyboard-response","244","272052","0.0-1.0-337.0","0","0","83224","","null","","","null","37","","NaN","","","","","","","","","","","","","",""
"","response","","html-keyboard-response","245","272404","0.0-1.0-338.0-0.0","0","0","83224","","349","","","68","37","","","1","37","training","adjacent","ED","5","4","Q.jpg","R.jpg","1","0","0","",""
"","feedback","","html-keyboard-response","246","273409","0.0-1.0-339.0-0.0","0","0","83224","","null","","","null","37","","","","","","","","","","","","","","","",""
"","time_out","","html-keyboard-response","247","275413","0.0-1.0-341.0-0.0","0","0","83224","","null","","","null","37","","","","","","","","","","","","","","","",""
"","ITI","","html-keyboard-response","248","276415","0.0-1.0-342.0","0","0","83224","","null","","","null","37","","","","","","","","","","","","","","","NaN",""
"","S1","","html-keyboard-response","249","276669","0.0-1.0-344.0","0","0","83224","","null","","","null","38","","","","","","","","","","","","","","","",""
"","ISI","","html-keyboard-response","250","277672","0.0-1.0-345.0","0","0","83224","","null","","","null","38","NaN","","","","","","","","","","","","","","",""
"","S2","","html-keyboard-response","251","277926","0.0-1.0-346.0","0","0","83224","","null","","","null","38","","NaN","","","","","","","","","","","","","",""
"","response","","html-keyboard-response","252","278780","0.0-1.0-347.0-0.0","0","0","83224","","850","","","75","38","","","1","38","training","adjacent","EF","5","6","Q.jpg","N.jpg","0","1","0","",""
"","feedback","","html-keyboard-response","253","279783","0.0-1.0-348.0-0.0","0","0","83224","","null","","","null","38","","","","","","","","","","","","","","","",""
"","time_out","","html-keyboard-response","254","281788","0.0-1.0-350.0-0.0","0","0","83224","","null","","","null","38","","","","","","","","","","","","","","","",""
"","ITI","","html-keyboard-response","255","282790","0.0-1.0-351.0","0","0","83224","","null","","","null","38","","","","","","","","","","","","","","","NaN",""
"","S1","","html-keyboard-response","256","283044","0.0-1.0-353.0","0","0","83224","","null","","","null","39","","","","","","","","","","","","","","","",""
"","ISI","","html-keyboard-response","257","284048","0.0-1.0-354.0","0","0","83224","","null","","","null","39","NaN","","","","","","","","","","","","","","",""
"","S2","","html-keyboard-response","258","284301","0.0-1.0-355.0","0","0","83224","","null","","","null","39","","NaN","","","","","","","","","","","","","",""
"","response","","html-keyboard-response","259","284652","0.0-1.0-356.0-0.0","0","0","83224","","347","","","68","39","","","1","39","training","adjacent","DC","4","3","R.jpg","L.jpg","1","0","0","",""
"","feedback","","html-keyboard-response","260","285656","0.0-1.0-357.0-0.0","0","0","83224","","null","","","null","39","","","","","","","","","","","","","","","",""
"","time_out","","html-keyboard-response","261","287659","0.0-1.0-359.0-0.0","0","0","83224","","null","","","null","39","","","","","","","","","","","","","","","",""
"","ITI","","html-keyboard-response","262","288662","0.0-1.0-360.0","0","0","83224","","null","","","null","39","","","","","","","","","","","","","","","NaN",""
"","S1","","html-keyboard-response","263","288917","0.0-1.0-362.0","0","0","83224","","null","","","null","40","","","","","","","","","","","","","","","",""
"","ISI","","html-keyboard-response","264","289920","0.0-1.0-363.0","0","0","83224","","null","","","null","40","NaN","","","","","","","","","","","","","","",""
"","S2","","html-keyboard-response","265","290174","0.0-1.0-364.0","0","0","83224","","null","","","null","40","","NaN","","","","","","","","","","","","","",""
"","response","","html-keyboard-response","266","290476","0.0-1.0-365.0-0.0","0","0","83224","","300","","","75","40","","","1","40","training","adjacent","ED","5","4","Q.jpg","R.jpg","0","0","1","",""
"","feedback","","html-keyboard-response","267","291481","0.0-1.0-366.0-0.0","0","0","83224","","null","","","null","40","","","","","","","","","","","","","","","",""
"","ITI","","html-keyboard-response","268","292485","0.0-1.0-369.0","0","0","83224","","null","","","null","40","","","","","","","","","","","","","","","NaN",""
"","S1","","html-keyboard-response","269","292739","0.0-1.0-371.0","0","0","83224","","null","","","null","41","","","","","","","","","","","","","","","",""
"","ISI","","html-keyboard-response","270","293743","0.0-1.0-372.0","0","0","83224","","null","","","null","41","NaN","","","","","","","","","","","","","","",""
"","S2","","html-keyboard-response","271","293998","0.0-1.0-373.0","0","0","83224","","null","","","null","41","","NaN","","","","","","","","","","","","","",""
"","response","","html-keyboard-response","272","294264","0.0-1.0-374.0-0.0","0","0","83224","","264","","","75","41","","","1","41","training","adjacent","GF","7","6","P.jpg","N.jpg","0","0","1","",""
"","feedback","","html-keyboard-response","273","295268","0.0-1.0-375.0-0.0","0","0","83224","","null","","","null","41","","","","","","","","","","","","","","","",""
"","ITI","","html-keyboard-response","274","296273","0.0-1.0-378.0","0","0","83224","","null","","","null","41","","","","","","","","","","","","","","","NaN",""
"","S1","","html-keyboard-response","275","296526","0.0-1.0-380.0","0","0","83224","","null","","","null","42","","","","","","","","","","","","","","","",""
"","ISI","","html-keyboard-response","276","297530","0.0-1.0-381.0","0","0","83224","","null","","","null","42","NaN","","","","","","","","","","","","","","",""
"","S2","","html-keyboard-response","277","297784","0.0-1.0-382.0","0","0","83224","","null","","","null","42","","NaN","","","","","","","","","","","","","",""
"","response","","html-keyboard-response","278","298100","0.0-1.0-383.0-0.0","0","0","83224","","313","","","68","42","","","1","42","training","adjacent","AB","1","2","M.jpg","O.jpg","1","1","1","",""
"","feedback","","html-keyboard-response","279","299105","0.0-1.0-384.0-0.0","0","0","83224","","null","","","null","42","","","","","","","","","","","","","","","",""
"","ITI","","html-keyboard-response","280","300110","0.0-1.0-387.0","0","0","83224","","null","","","null","42","","","","","","","","","","","","","","","NaN",""
"","S1","","html-keyboard-response","281","300365","0.0-1.0-389.0","0","0","83224","","null","","","null","43","","","","","","","","","","","","","","","",""
"","ISI","","html-keyboard-response","282","301369","0.0-1.0-390.0","0","0","83224","","null","","","null","43","NaN","","","","","","","","","","","","","","",""
"","S2","","html-keyboard-response","283","301624","0.0-1.0-391.0","0","0","83224","","null","","","null","43","","NaN","","","","","","","","","","","","","",""
"","response","","html-keyboard-response","284","302009","0.0-1.0-392.0-0.0","0","0","83224","","383","","","75","43","","","1","43","training","adjacent","GF","7","6","P.jpg","N.jpg","0","0","1","",""
"","feedback","","html-keyboard-response","285","303013","0.0-1.0-393.0-0.0","0","0","83224","","null","","","null","43","","","","","","","","","","","","","","","",""
"","ITI","","html-keyboard-response","286","304017","0.0-1.0-396.0","0","0","83224","","null","","","null","43","","","","","","","","","","","","","","","NaN",""
"","S1","","html-keyboard-response","287","304271","0.0-1.0-398.0","0","0","83224","","null","","","null","44","","","","","","","","","","","","","","","",""
"","ISI","","html-keyboard-response","288","305275","0.0-1.0-399.0","0","0","83224","","null","","","null","44","NaN","","","","","","","","","","","","","","",""
"","S2","","html-keyboard-response","289","305529","0.0-1.0-400.0","0","0","83224","","null","","","null","44","","NaN","","","","","","","","","","","","","",""
"","response","","html-keyboard-response","290","305948","0.0-1.0-401.0-0.0","0","0","83224","","415","","","75","44","","","1","44","training","adjacent","CB","3","2","L.jpg","O.jpg","0","0","1","",""
"","feedback","","html-keyboard-response","291","306952","0.0-1.0-402.0-0.0","0","0","83224","","null","","","null","44","","","","","","","","","","","","","","","",""
"","ITI","","html-keyboard-response","292","307956","0.0-1.0-405.0","0","0","83224","","null","","","null","44","","","","","","","","","","","","","","","NaN",""
"","S1","","html-keyboard-response","293","308210","0.0-1.0-407.0","0","0","83224","","null","","","null","45","","","","","","","","","","","","","","","",""
"","ISI","","html-keyboard-response","294","309214","0.0-1.0-408.0","0","0","83224","","null","","","null","45","NaN","","","","","","","","","","","","","","",""
"","S2","","html-keyboard-response","295","309468","0.0-1.0-409.0","0","0","83224","","null","","","null","45","","NaN","","","","","","","","","","","","","",""
"","response","","html-keyboard-response","296","309977","0.0-1.0-410.0-0.0","0","0","83224","","508","","","68","45","","","1","45","training","adjacent","FG","6","7","N.jpg","P.jpg","1","1","1","",""
"","feedback","","html-keyboard-response","297","310981","0.0-1.0-411.0-0.0","0","0","83224","","null","","","null","45","","","","","","","","","","","","","","","",""
"","ITI","","html-keyboard-response","298","311985","0.0-1.0-414.0","0","0","83224","","null","","","null","45","","","","","","","","","","","","","","","NaN",""
"","S1","","html-keyboard-response","299","312239","0.0-1.0-416.0","0","0","83224","","null","","","null","46","","","","","","","","","","","","","","","",""
"","ISI","","html-keyboard-response","300","313242","0.0-1.0-417.0","0","0","83224","","null","","","null","46","NaN","","","","","","","","","","","","","","",""
"","S2","","html-keyboard-response","301","313496","0.0-1.0-418.0","0","0","83224","","null","","","null","46","","NaN","","","","","","","","","","","","","",""
"","response","","html-keyboard-response","302","313974","0.0-1.0-419.0-0.0","0","0","83224","","476","","","75","46","","","1","46","training","adjacent","BA","2","1","O.jpg","M.jpg","0","0","1","",""
"","feedback","","html-keyboard-response","303","314977","0.0-1.0-420.0-0.0","0","0","83224","","null","","","null","46","","","","","","","","","","","","","","","",""
"","ITI","","html-keyboard-response","304","315982","0.0-1.0-423.0","0","0","83224","","null","","","null","46","","","","","","","","","","","","","","","NaN",""
"","S1","","html-keyboard-response","305","316236","0.0-1.0-425.0","0","0","83224","","null","","","null","47","","","","","","","","","","","","","","","",""
"","ISI","","html-keyboard-response","306","317240","0.0-1.0-426.0","0","0","83224","","null","","","null","47","NaN","","","","","","","","","","","","","","",""
"","S2","","html-keyboard-response","307","317494","0.0-1.0-427.0","0","0","83224","","null","","","null","47","","NaN","","","","","","","","","","","","","",""
"","response","","html-keyboard-response","308","317676","0.0-1.0-428.0-0.0","0","0","83224","","178","","","75","47","","","1","47","training","adjacent","GF","7","6","P.jpg","N.jpg","0","0","1","",""
"","feedback","","html-keyboard-response","309","318679","0.0-1.0-429.0-0.0","0","0","83224","","null","","","null","47","","","","","","","","","","","","","","","",""
"","ITI","","html-keyboard-response","310","319683","0.0-1.0-432.0","0","0","83224","","null","","","null","47","","","","","","","","","","","","","","","NaN",""
"","block_over","","html-keyboard-response","311","332996","0.0-1.0-433.0-0.0","0","0","83224","","13308","","","32","47","","","","","","","","","","","","","","","",""
"","S1","","html-keyboard-response","312","333250","0.0-1.0-434.0","0","0","83224","","null","","","null","48","","","","","","","","","","","","","","","",""
"","ISI","","html-keyboard-response","313","334253","0.0-1.0-435.0","0","0","83224","","null","","","null","48","NaN","","","","","","","","","","","","","","",""
"","S2","","html-keyboard-response","314","334508","0.0-1.0-436.0","0","0","83224","","null","","","null","48","","NaN","","","","","","","","","","","","","",""
"","response","","html-keyboard-response","315","335756","0.0-1.0-437.0-0.0","0","0","83224","","1244","","","68","48","","","2","48","training","adjacent","DC","4","3","R.jpg","L.jpg","1","0","0","",""
"","feedback","","html-keyboard-response","316","336759","0.0-1.0-438.0-0.0","0","0","83224","","null","","","null","48","","","","","","","","","","","","","","","",""
"","time_out","","html-keyboard-response","317","338762","0.0-1.0-440.0-0.0","0","0","83224","","null","","","null","48","","","","","","","","","","","","","","","",""
"","ITI","","html-keyboard-response","318","339767","0.0-1.0-441.0","0","0","83224","","null","","","null","48","","","","","","","","","","","","","","","NaN",""
"","S1","","html-keyboard-response","319","340022","0.0-1.0-443.0","0","0","83224","","null","","","null","49","","","","","","","","","","","","","","","",""
"","ISI","","html-keyboard-response","320","341026","0.0-1.0-444.0","0","0","83224","","null","","","null","49","NaN","","","","","","","","","","","","","","",""
"","S2","","html-keyboard-response","321","341281","0.0-1.0-445.0","0","0","83224","","null","","","null","49","","NaN","","","","","","","","","","","","","",""
"","response","","html-keyboard-response","322","342140","0.0-1.0-446.0-0.0","0","0","83224","","855","","","75","49","","","2","49","training","adjacent","CD","3","4","L.jpg","R.jpg","0","1","0","",""
"","feedback","","html-keyboard-response","323","343144","0.0-1.0-447.0-0.0","0","0","83224","","null","","","null","49","","","","","","","","","","","","","","","",""
"","time_out","","html-keyboard-response","324","345148","0.0-1.0-449.0-0.0","0","0","83224","","null","","","null","49","","","","","","","","","","","","","","","",""
"","ITI","","html-keyboard-response","325","346152","0.0-1.0-450.0","0","0","83224","","null","","","null","49","","","","","","","","","","","","","","","NaN",""
"","S1","","html-keyboard-response","326","346405","0.0-1.0-452.0","0","0","83224","","null","","","null","50","","","","","","","","","","","","","","","",""
"","ISI","","html-keyboard-response","327","347412","0.0-1.0-453.0","0","0","83224","","null","","","null","50","NaN","","","","","","","","","","","","","","",""
"","S2","","html-keyboard-response","328","347666","0.0-1.0-454.0","0","0","83224","","null","","","null","50","","NaN","","","","","","","","","","","","","",""
"","response","","html-keyboard-response","329","348025","0.0-1.0-455.0-0.0","0","0","83224","","357","","","68","50","","","2","50","training","adjacent","FE","6","5","N.jpg","Q.jpg","1","0","0","",""
"","feedback","","html-keyboard-response","330","349030","0.0-1.0-456.0-0.0","0","0","83224","","null","","","null","50","","","","","","","","","","","","","","","",""
"","time_out","","html-keyboard-response","331","351033","0.0-1.0-458.0-0.0","0","0","83224","","null","","","null","50","","","","","","","","","","","","","","","",""
"","ITI","","html-keyboard-response","332","352038","0.0-1.0-459.0","0","0","83224","","null","","","null","50","","","","","","","","","","","","","","","NaN",""
"","S1","","html-keyboard-response","333","352292","0.0-1.0-461.0","0","0","83224","","null","","","null","51","","","","","","","","","","","","","","","",""
"","ISI","","html-keyboard-response","334","353296","0.0-1.0-462.0","0","0","83224","","null","","","null","51","NaN","","","","","","","","","","","","","","",""
"","S2","","html-keyboard-response","335","353551","0.0-1.0-463.0","0","0","83224","","null","","","null","51","","NaN","","","","","","","","","","","","","",""
"","response","","html-keyboard-response","336","353900","0.0-1.0-464.0-0.0","0","0","83224","","345","","","68","51","","","2","51","training","adjacent","DE","4","5","R.jpg","Q.jpg","1","1","1","",""
"","feedback","","html-keyboard-response","337","354905","0.0-1.0-465.0-0.0","0","0","83224","","null","","","null","51","","","","","","","","","","","","","","","",""
"","ITI","","html-keyboard-response","338","355909","0.0-1.0-468.0","0","0","83224","","null","","","null","51","","","","","","","","","","","","","","","NaN",""
"","S1","","html-keyboard-response","339","356163","0.0-1.0-470.0","0","0","83224","","null","","","null","52","","","","","","","","","","","","","","","",""
"","ISI","","html-keyboard-response","340","357168","0.0-1.0-471.0","0","0","83224","","null","","","null","52","NaN","","","","","","","","","","","","","","",""
"","S2","","html-keyboard-response","341","357423","0.0-1.0-472.0","0","0","83224","","null","","","null","52","","NaN","","","","","","","","","","","","","",""
"","response","","html-keyboard-response","342","357803","0.0-1.0-473.0-0.0","0","0","83224","","377","","","68","52","","","2","52","training","adjacent","AB","1","2","M.jpg","O.jpg","1","1","1","",""
"","feedback","","html-keyboard-response","343","358808","0.0-1.0-474.0-0.0","0","0","83224","","null","","","null","52","","","","","","","","","","","","","","","",""
"","ITI","","html-keyboard-response","344","359812","0.0-1.0-477.0","0","0","83224","","null","","","null","52","","","","","","","","","","","","","","","NaN",""
"","S1","","html-keyboard-response","345","360065","0.0-1.0-479.0","0","0","83224","","null","","","null","53","","","","","","","","","","","","","","","",""
"","ISI","","html-keyboard-response","346","361069","0.0-1.0-480.0","0","0","83224","","null","","","null","53","NaN","","","","","","","","","","","","","","",""
"","S2","","html-keyboard-response","347","361323","0.0-1.0-481.0","0","0","83224","","null","","","null","53","","NaN","","","","","","","","","","","","","",""
"","response","","html-keyboard-response","348","361836","0.0-1.0-482.0-0.0","0","0","83224","","509","","","75","53","","","2","53","training","adjacent","CD","3","4","L.jpg","R.jpg","0","1","0","",""
"","feedback","","html-keyboard-response","349","362840","0.0-1.0-483.0-0.0","0","0","83224","","null","","","null","53","","","","","","","","","","","","","","","",""
"","time_out","","html-keyboard-response","350","364844","0.0-1.0-485.0-0.0","0","0","83224","","null","","","null","53","","","","","","","","","","","","","","","",""
"","ITI","","html-keyboard-response","351","365849","0.0-1.0-486.0","0","0","83224","","null","","","null","53","","","","","","","","","","","","","","","NaN",""
"","S1","","html-keyboard-response","352","366104","0.0-1.0-488.0","0","0","83224","","null","","","null","54","","","","","","","","","","","","","","","",""
"","ISI","","html-keyboard-response","353","367107","0.0-1.0-489.0","0","0","83224","","null","","","null","54","NaN","","","","","","","","","","","","","","",""
"","S2","","html-keyboard-response","354","367363","0.0-1.0-490.0","0","0","83224","","null","","","null","54","","NaN","","","","","","","","","","","","","",""
"","response","","html-keyboard-response","355","367835","0.0-1.0-491.0-0.0","0","0","83224","","469","","","68","54","","","2","54","training","adjacent","FG","6","7","N.jpg","P.jpg","1","1","1","",""
"","feedback","","html-keyboard-response","356","368839","0.0-1.0-492.0-0.0","0","0","83224","","null","","","null","54","","","","","","","","","","","","","","","",""
"","ITI","","html-keyboard-response","357","369843","0.0-1.0-495.0","0","0","83224","","null","","","null","54","","","","","","","","","","","","","","","NaN",""
"","S1","","html-keyboard-response","358","370098","0.0-1.0-497.0","0","0","83224","","null","","","null","55","","","","","","","","","","","","","","","",""
"","ISI","","html-keyboard-response","359","371102","0.0-1.0-498.0","0","0","83224","","null","","","null","55","NaN","","","","","","","","","","","","","","",""
"","S2","","html-keyboard-response","360","371357","0.0-1.0-499.0","0","0","83224","","null","","","null","55","","NaN","","","","","","","","","","","","","",""
"","response","","html-keyboard-response","361","371885","0.0-1.0-500.0-0.0","0","0","83224","","525","","","68","55","","","2","55","training","adjacent","DC","4","3","R.jpg","L.jpg","1","0","0","",""
"","feedback","","html-keyboard-response","362","372888","0.0-1.0-501.0-0.0","0","0","83224","","null","","","null","55","","","","","","","","","","","","","","","",""
"","time_out","","html-keyboard-response","363","374893","0.0-1.0-503.0-0.0","0","0","83224","","null","","","null","55","","","","","","","","","","","","","","","",""
"","ITI","","html-keyboard-response","364","375896","0.0-1.0-504.0","0","0","83224","","null","","","null","55","","","","","","","","","","","","","","","NaN",""
"","S1","","html-keyboard-response","365","376150","0.0-1.0-506.0","0","0","83224","","null","","","null","56","","","","","","","","","","","","","","","",""
"","ISI","","html-keyboard-response","366","377155","0.0-1.0-507.0","0","0","83224","","null","","","null","56","NaN","","","","","","","","","","","","","","",""
"","S2","","html-keyboard-response","367","377410","0.0-1.0-508.0","0","0","83224","","null","","","null","56","","NaN","","","","","","","","","","","","","",""
"","response","","html-keyboard-response","368","377658","0.0-1.0-509.0-0.0","0","0","83224","","245","","","68","56","","","2","56","training","adjacent","FG","6","7","N.jpg","P.jpg","1","1","1","",""
"","feedback","","html-keyboard-response","369","378662","0.0-1.0-510.0-0.0","0","0","83224","","null","","","null","56","","","","","","","","","","","","","","","",""
"","ITI","","html-keyboard-response","370","379673","0.0-1.0-513.0","0","0","83224","","null","","","null","56","","","","","","","","","","","","","","","NaN",""
"","S1","","html-keyboard-response","371","379937","0.0-1.0-515.0","0","0","83224","","null","","","null","57","","","","","","","","","","","","","","","",""
"","ISI","","html-keyboard-response","372","380941","0.0-1.0-516.0","0","0","83224","","null","","","null","57","NaN","","","","","","","","","","","","","","",""
"","S2","","html-keyboard-response","373","381196","0.0-1.0-517.0","0","0","83224","","null","","","null","57","","NaN","","","","","","","","","","","","","",""
"","response","","html-keyboard-response","374","381789","0.0-1.0-518.0-0.0","0","0","83224","","589","","","68","57","","","2","57","training","adjacent","ED","5","4","Q.jpg","R.jpg","1","0","0","",""
"","feedback","","html-keyboard-response","375","382794","0.0-1.0-519.0-0.0","0","0","83224","","null","","","null","57","","","","","","","","","","","","","","","",""
"","time_out","","html-keyboard-response","376","384798","0.0-1.0-521.0-0.0","0","0","83224","","null","","","null","57","","","","","","","","","","","","","","","",""
"","ITI","","html-keyboard-response","377","385802","0.0-1.0-522.0","0","0","83224","","null","","","null","57","","","","","","","","","","","","","","","NaN",""
"","S1","","html-keyboard-response","378","386058","0.0-1.0-524.0","0","0","83224","","null","","","null","58","","","","","","","","","","","","","","","",""
"","ISI","","html-keyboard-response","379","387061","0.0-1.0-525.0","0","0","83224","","null","","","null","58","NaN","","","","","","","","","","","","","","",""
"","S2","","html-keyboard-response","380","387315","0.0-1.0-526.0","0","0","83224","","null","","","null","58","","NaN","","","","","","","","","","","","","",""
"","response","","html-keyboard-response","381","387804","0.0-1.0-527.0-0.0","0","0","83224","","485","","","75","58","","","2","58","training","adjacent","CD","3","4","L.jpg","R.jpg","0","1","0","",""
"","feedback","","html-keyboard-response","382","388808","0.0-1.0-528.0-0.0","0","0","83224","","null","","","null","58","","","","","","","","","","","","","","","",""
"","time_out","","html-keyboard-response","383","390811","0.0-1.0-530.0-0.0","0","0","83224","","null","","","null","58","","","","","","","","","","","","","","","",""
"","ITI","","html-keyboard-response","384","391815","0.0-1.0-531.0","0","0","83224","","null","","","null","58","","","","","","","","","","","","","","","NaN",""
"","S1","","html-keyboard-response","385","392068","0.0-1.0-533.0","0","0","83224","","null","","","null","59","","","","","","","","","","","","","","","",""
"","ISI","","html-keyboard-response","386","393070","0.0-1.0-534.0","0","0","83224","","null","","","null","59","NaN","","","","","","","","","","","","","","",""
"","S2","","html-keyboard-response","387","393324","0.0-1.0-535.0","0","0","83224","","null","","","null","59","","NaN","","","","","","","","","","","","","",""
"","response","","html-keyboard-response","388","393528","0.0-1.0-536.0-0.0","0","0","83224","","202","","","75","59","","","2","59","training","adjacent","BC","2","3","O.jpg","L.jpg","0","1","0","",""
"","feedback","","html-keyboard-response","389","394537","0.0-1.0-537.0-0.0","0","0","83224","","null","","","null","59","","","","","","","","","","","","","","","",""
"","time_out","","html-keyboard-response","390","396542","0.0-1.0-539.0-0.0","0","0","83224","","null","","","null","59","","","","","","","","","","","","","","","",""
"","ITI","","html-keyboard-response","391","397545","0.0-1.0-540.0","0","0","83224","","null","","","null","59","","","","","","","","","","","","","","","NaN",""
"","S1","","html-keyboard-response","392","397800","0.0-1.0-542.0","0","0","83224","","null","","","null","60","","","","","","","","","","","","","","","",""
"","ISI","","html-keyboard-response","393","398803","0.0-1.0-543.0","0","0","83224","","null","","","null","60","NaN","","","","","","","","","","","","","","",""
"","S2","","html-keyboard-response","394","399057","0.0-1.0-544.0","0","0","83224","","null","","","null","60","","NaN","","","","","","","","","","","","","",""
"","response","","html-keyboard-response","395","399452","0.0-1.0-545.0-0.0","0","0","83224","","391","","","68","60","","","2","60","training","adjacent","CB","3","2","L.jpg","O.jpg","1","0","0","",""
"","feedback","","html-keyboard-response","396","400457","0.0-1.0-546.0-0.0","0","0","83224","","null","","","null","60","","","","","","","","","","","","","","","",""
"","time_out","","html-keyboard-response","397","402462","0.0-1.0-548.0-0.0","0","0","83224","","null","","","null","60","","","","","","","","","","","","","","","",""
"","ITI","","html-keyboard-response","398","403466","0.0-1.0-549.0","0","0","83224","","null","","","null","60","","","","","","","","","","","","","","","NaN",""
"","S1","","html-keyboard-response","399","403720","0.0-1.0-551.0","0","0","83224","","null","","","null","61","","","","","","","","","","","","","","","",""
"","ISI","","html-keyboard-response","400","404723","0.0-1.0-552.0","0","0","83224","","null","","","null","61","NaN","","","","","","","","","","","","","","",""
"","S2","","html-keyboard-response","401","404978","0.0-1.0-553.0","0","0","83224","","null","","","null","61","","NaN","","","","","","","","","","","","","",""
"","response","","html-keyboard-response","402","406059","0.0-1.0-554.0-0.0","0","0","83224","","1078","","","68","61","","","2","61","training","adjacent","BC","2","3","O.jpg","L.jpg","1","1","1","",""
"","feedback","","html-keyboard-response","403","407064","0.0-1.0-555.0-0.0","0","0","83224","","null","","","null","61","","","","","","","","","","","","","","","",""
"","ITI","","html-keyboard-response","404","408068","0.0-1.0-558.0","0","0","83224","","null","","","null","61","","","","","","","","","","","","","","","NaN",""
"","S1","","html-keyboard-response","405","408323","0.0-1.0-560.0","0","0","83224","","null","","","null","62","","","","","","","","","","","","","","","",""
"","ISI","","html-keyboard-response","406","409327","0.0-1.0-561.0","0","0","83224","","null","","","null","62","NaN","","","","","","","","","","","","","","",""
"","S2","","html-keyboard-response","407","409580","0.0-1.0-562.0","0","0","83224","","null","","","null","62","","NaN","","","","","","","","","","","","","",""
"","response","","html-keyboard-response","408","409916","0.0-1.0-563.0-0.0","0","0","83224","","332","","","68","62","","","2","62","training","adjacent","FE","6","5","N.jpg","Q.jpg","1","0","0","",""
"","feedback","","html-keyboard-response","409","410919","0.0-1.0-564.0-0.0","0","0","83224","","null","","","null","62","","","","","","","","","","","","","","","",""
"","time_out","","html-keyboard-response","410","412923","0.0-1.0-566.0-0.0","0","0","83224","","null","","","null","62","","","","","","","","","","","","","","","",""
"","ITI","","html-keyboard-response","411","413927","0.0-1.0-567.0","0","0","83224","","null","","","null","62","","","","","","","","","","","","","","","NaN",""
"","S1","","html-keyboard-response","412","414181","0.0-1.0-569.0","0","0","83224","","null","","","null","63","","","","","","","","","","","","","","","",""
"","ISI","","html-keyboard-response","413","415185","0.0-1.0-570.0","0","0","83224","","null","","","null","63","NaN","","","","","","","","","","","","","","",""
"","S2","","html-keyboard-response","414","415441","0.0-1.0-571.0","0","0","83224","","null","","","null","63","","NaN","","","","","","","","","","","","","",""
"","response","","html-keyboard-response","415","415468","0.0-1.0-572.0-0.0","0","0","83224","","23","","","75","63","","","2","63","training","adjacent","GF","7","6","P.jpg","N.jpg","0","0","1","",""
"","feedback","","html-keyboard-response","416","416473","0.0-1.0-573.0-0.0","0","0","83224","","null","","","null","63","","","","","","","","","","","","","","","",""
"","ITI","","html-keyboard-response","417","417478","0.0-1.0-576.0","0","0","83224","","null","","","null","63","","","","","","","","","","","","","","","NaN",""
"","S1","","html-keyboard-response","418","417733","0.0-1.0-578.0","0","0","83224","","null","","","null","64","","","","","","","","","","","","","","","",""
"","ISI","","html-keyboard-response","419","418737","0.0-1.0-579.0","0","0","83224","","null","","","null","64","NaN","","","","","","","","","","","","","","",""
"","S2","","html-keyboard-response","420","418991","0.0-1.0-580.0","0","0","83224","","null","","","null","64","","NaN","","","","","","","","","","","","","",""
"","response","","html-keyboard-response","421","419243","0.0-1.0-581.0-0.0","0","0","83224","","249","","","68","64","","","2","64","training","adjacent","EF","5","6","Q.jpg","N.jpg","1","1","1","",""
"","feedback","","html-keyboard-response","422","420247","0.0-1.0-582.0-0.0","0","0","83224","","null","","","null","64","","","","","","","","","","","","","","","",""
"","ITI","","html-keyboard-response","423","421251","0.0-1.0-585.0","0","0","83224","","null","","","null","64","","","","","","","","","","","","","","","NaN",""
"","S1","","html-keyboard-response","424","421504","0.0-1.0-587.0","0","0","83224","","null","","","null","65","","","","","","","","","","","","","","","",""
"","ISI","","html-keyboard-response","425","422507","0.0-1.0-588.0","0","0","83224","","null","","","null","65","NaN","","","","","","","","","","","","","","",""
"","S2","","html-keyboard-response","426","422763","0.0-1.0-589.0","0","0","83224","","null","","","null","65","","NaN","","","","","","","","","","","","","",""
"","response","","html-keyboard-response","427","422957","0.0-1.0-590.0-0.0","0","0","83224","","190","","","75","65","","","2","65","training","adjacent","GF","7","6","P.jpg","N.jpg","0","0","1","",""
"","feedback","","html-keyboard-response","428","423962","0.0-1.0-591.0-0.0","0","0","83224","","null","","","null","65","","","","","","","","","","","","","","","",""
"","ITI","","html-keyboard-response","429","424966","0.0-1.0-594.0","0","0","83224","","null","","","null","65","","","","","","","","","","","","","","","NaN",""
"","S1","","html-keyboard-response","430","425221","0.0-1.0-596.0","0","0","83224","","null","","","null","66","","","","","","","","","","","","","","","",""
"","ISI","","html-keyboard-response","431","426226","0.0-1.0-597.0","0","0","83224","","null","","","null","66","NaN","","","","","","","","","","","","","","",""
"","S2","","html-keyboard-response","432","426480","0.0-1.0-598.0","0","0","83224","","null","","","null","66","","NaN","","","","","","","","","","","","","",""
"","response","","html-keyboard-response","433","426775","0.0-1.0-599.0-0.0","0","0","83224","","293","","","68","66","","","2","66","training","adjacent","AB","1","2","M.jpg","O.jpg","1","1","1","",""
"","feedback","","html-keyboard-response","434","427779","0.0-1.0-600.0-0.0","0","0","83224","","null","","","null","66","","","","","","","","","","","","","","","",""
"","ITI","","html-keyboard-response","435","428783","0.0-1.0-603.0","0","0","83224","","null","","","null","66","","","","","","","","","","","","","","","NaN",""
"","S1","","html-keyboard-response","436","429042","0.0-1.0-605.0","0","0","83224","","null","","","null","67","","","","","","","","","","","","","","","",""
"","ISI","","html-keyboard-response","437","430046","0.0-1.0-606.0","0","0","83224","","null","","","null","67","NaN","","","","","","","","","","","","","","",""
"","S2","","html-keyboard-response","438","430301","0.0-1.0-607.0","0","0","83224","","null","","","null","67","","NaN","","","","","","","","","","","","","",""
"","response","","html-keyboard-response","439","430923","0.0-1.0-608.0-0.0","0","0","83224","","619","","","68","67","","","2","67","training","adjacent","DC","4","3","R.jpg","L.jpg","1","0","0","",""
"","feedback","","html-keyboard-response","440","431928","0.0-1.0-609.0-0.0","0","0","83224","","null","","","null","67","","","","","","","","","","","","","","","",""
"","time_out","","html-keyboard-response","441","433931","0.0-1.0-611.0-0.0","0","0","83224","","null","","","null","67","","","","","","","","","","","","","","","",""
"","ITI","","html-keyboard-response","442","434935","0.0-1.0-612.0","0","0","83224","","null","","","null","67","","","","","","","","","","","","","","","NaN",""
"","S1","","html-keyboard-response","443","435189","0.0-1.0-614.0","0","0","83224","","null","","","null","68","","","","","","","","","","","","","","","",""
"","ISI","","html-keyboard-response","444","436193","0.0-1.0-615.0","0","0","83224","","null","","","null","68","NaN","","","","","","","","","","","","","","",""
"","S2","","html-keyboard-response","445","436454","0.0-1.0-616.0","0","0","83224","","null","","","null","68","","NaN","","","","","","","","","","","","","",""
"","response","","html-keyboard-response","446","436707","0.0-1.0-617.0-0.0","0","0","83224","","250","","","75","68","","","2","68","training","adjacent","CD","3","4","L.jpg","R.jpg","0","1","0","",""
"","feedback","","html-keyboard-response","447","437713","0.0-1.0-618.0-0.0","0","0","83224","","null","","","null","68","","","","","","","","","","","","","","","",""
"","time_out","","html-keyboard-response","448","439718","0.0-1.0-620.0-0.0","0","0","83224","","null","","","null","68","","","","","","","","","","","","","","","",""
"","ITI","","html-keyboard-response","449","440722","0.0-1.0-621.0","0","0","83224","","null","","","null","68","","","","","","","","","","","","","","","NaN",""
"","S1","","html-keyboard-response","450","440975","0.0-1.0-623.0","0","0","83224","","null","","","null","69","","","","","","","","","","","","","","","",""
"","ISI","","html-keyboard-response","451","441979","0.0-1.0-624.0","0","0","83224","","553","","","75","69","k","","","","","","","","","","","","","","",""
"","S2","","html-keyboard-response","452","442235","0.0-1.0-625.0","0","0","83224","","null","","","null","69","","NaN","","","","","","","","","","","","","",""
"","response","","html-keyboard-response","453","442827","0.0-1.0-626.0-0.0","0","0","83224","","589","","","75","69","","","2","69","training","adjacent","DC","4","3","R.jpg","L.jpg","0","0","1","",""
"","feedback","","html-keyboard-response","454","443832","0.0-1.0-627.0-0.0","0","0","83224","","null","","","null","69","","","","","","","","","","","","","","","",""
"","ITI","","html-keyboard-response","455","444848","0.0-1.0-630.0","0","0","83224","","null","","","null","69","","","","","","","","","","","","","","","NaN",""
"","S1","","html-keyboard-response","456","445101","0.0-1.0-632.0","0","0","83224","","null","","","null","70","","","","","","","","","","","","","","","",""
"","ISI","","html-keyboard-response","457","446105","0.0-1.0-633.0","0","0","83224","","null","","","null","70","NaN","","","","","","","","","","","","","","",""
"","S2","","html-keyboard-response","458","446361","0.0-1.0-634.0","0","0","83224","","null","","","null","70","","NaN","","","","","","","","","","","","","",""
"","response","","html-keyboard-response","459","446828","0.0-1.0-635.0-0.0","0","0","83224","","463","","","68","70","","","2","70","training","adjacent","DE","4","5","R.jpg","Q.jpg","1","1","1","",""
"","feedback","","html-keyboard-response","460","447831","0.0-1.0-636.0-0.0","0","0","83224","","null","","","null","70","","","","","","","","","","","","","","","",""
"","ITI","","html-keyboard-response","461","448834","0.0-1.0-639.0","0","0","83224","","null","","","null","70","","","","","","","","","","","","","","","NaN",""
"","S1","","html-keyboard-response","462","449088","0.0-1.0-641.0","0","0","83224","","null","","","null","71","","","","","","","","","","","","","","","",""
"","ISI","","html-keyboard-response","463","450091","0.0-1.0-642.0","0","0","83224","","null","","","null","71","NaN","","","","","","","","","","","","","","",""
"","S2","","html-keyboard-response","464","450345","0.0-1.0-643.0","0","0","83224","","null","","","null","71","","NaN","","","","","","","","","","","","","",""
"","response","","html-keyboard-response","465","450732","0.0-1.0-644.0-0.0","0","0","83224","","384","","","75","71","","","2","71","training","adjacent","BA","2","1","O.jpg","M.jpg","0","0","1","",""
"","feedback","","html-keyboard-response","466","451736","0.0-1.0-645.0-0.0","0","0","83224","","null","","","null","71","","","","","","","","","","","","","","","",""
"","ITI","","html-keyboard-response","467","452741","0.0-1.0-648.0","0","0","83224","","null","","","null","71","","","","","","","","","","","","","","","NaN",""
"","S1","","html-keyboard-response","468","452994","0.0-1.0-650.0","0","0","83224","","null","","","null","72","","","","","","","","","","","","","","","",""
"","ISI","","html-keyboard-response","469","453997","0.0-1.0-651.0","0","0","83224","","null","","","null","72","NaN","","","","","","","","","","","","","","",""
"","S2","","html-keyboard-response","470","454250","0.0-1.0-652.0","0","0","83224","","null","","","null","72","","NaN","","","","","","","","","","","","","",""
"","response","","html-keyboard-response","471","454747","0.0-1.0-653.0-0.0","0","0","83224","","495","","","75","72","","","2","72","training","adjacent","BA","2","1","O.jpg","M.jpg","0","0","1","",""
"","feedback","","html-keyboard-response","472","455752","0.0-1.0-654.0-0.0","0","0","83224","","null","","","null","72","","","","","","","","","","","","","","","",""
"","ITI","","html-keyboard-response","473","456757","0.0-1.0-657.0","0","0","83224","","null","","","null","72","","","","","","","","","","","","","","","NaN",""
"","S1","","html-keyboard-response","474","457011","0.0-1.0-659.0","0","0","83224","","null","","","null","73","","","","","","","","","","","","","","","",""
"","ISI","","html-keyboard-response","475","458015","0.0-1.0-660.0","0","0","83224","","null","","","null","73","NaN","","","","","","","","","","","","","","",""
"","S2","","html-keyboard-response","476","458270","0.0-1.0-661.0","0","0","83224","","null","","","null","73","","NaN","","","","","","","","","","","","","",""
"","response","","html-keyboard-response","477","458787","0.0-1.0-662.0-0.0","0","0","83224","","515","","","75","73","","","2","73","training","adjacent","EF","5","6","Q.jpg","N.jpg","0","1","0","",""
"","feedback","","html-keyboard-response","478","459792","0.0-1.0-663.0-0.0","0","0","83224","","null","","","null","73","","","","","","","","","","","","","","","",""
"","time_out","","html-keyboard-response","479","461796","0.0-1.0-665.0-0.0","0","0","83224","","null","","","null","73","","","","","","","","","","","","","","","",""
"","ITI","","html-keyboard-response","480","462800","0.0-1.0-666.0","0","0","83224","","null","","","null","73","","","","","","","","","","","","","","","NaN",""
"","S1","","html-keyboard-response","481","463055","0.0-1.0-668.0","0","0","83224","","null","","","null","74","","","","","","","","","","","","","","","",""
"","ISI","","html-keyboard-response","482","464058","0.0-1.0-669.0","0","0","83224","","null","","","null","74","NaN","","","","","","","","","","","","","","",""
"","S2","","html-keyboard-response","483","464313","0.0-1.0-670.0","0","0","83224","","null","","","null","74","","NaN","","","","","","","","","","","","","",""
"","response","","html-keyboard-response","484","465051","0.0-1.0-671.0-0.0","0","0","83224","","734","","","68","74","","","2","74","training","adjacent","CB","3","2","L.jpg","O.jpg","1","0","0","",""
"","feedback","","html-keyboard-response","485","466055","0.0-1.0-672.0-0.0","0","0","83224","","null","","","null","74","","","","","","","","","","","","","","","",""
"","time_out","","html-keyboard-response","486","468060","0.0-1.0-674.0-0.0","0","0","83224","","null","","","null","74","","","","","","","","","","","","","","","",""
"","ITI","","html-keyboard-response","487","469066","0.0-1.0-675.0","0","0","83224","","null","","","null","74","","","","","","","","","","","","","","","NaN",""
"","S1","","html-keyboard-response","488","469320","0.0-1.0-677.0","0","0","83224","","null","","","null","75","","","","","","","","","","","","","","","",""
"","ISI","","html-keyboard-response","489","470324","0.0-1.0-678.0","0","0","83224","","null","","","null","75","NaN","","","","","","","","","","","","","","",""
"","S2","","html-keyboard-response","490","470579","0.0-1.0-679.0","0","0","83224","","null","","","null","75","","NaN","","","","","","","","","","","","","",""
"","response","","html-keyboard-response","491","471027","0.0-1.0-680.0-0.0","0","0","83224","","445","","","75","75","","","2","75","training","adjacent","ED","5","4","Q.jpg","R.jpg","0","0","1","",""
"","feedback","","html-keyboard-response","492","472032","0.0-1.0-681.0-0.0","0","0","83224","","null","","","null","75","","","","","","","","","","","","","","","",""
"","ITI","","html-keyboard-response","493","473038","0.0-1.0-684.0","0","0","83224","","null","","","null","75","","","","","","","","","","","","","","","NaN",""
"","S1","","html-keyboard-response","494","473292","0.0-1.0-686.0","0","0","83224","","null","","","null","76","","","","","","","","","","","","","","","",""
"","ISI","","html-keyboard-response","495","474296","0.0-1.0-687.0","0","0","83224","","null","","","null","76","NaN","","","","","","","","","","","","","","",""
"","S2","","html-keyboard-response","496","474551","0.0-1.0-688.0","0","0","83224","","null","","","null","76","","NaN","","","","","","","","","","","","","",""
"","response","","html-keyboard-response","497","475075","0.0-1.0-689.0-0.0","0","0","83224","","521","","","68","76","","","2","76","training","adjacent","DE","4","5","R.jpg","Q.jpg","1","1","1","",""
"","feedback","","html-keyboard-response","498","476080","0.0-1.0-690.0-0.0","0","0","83224","","null","","","null","76","","","","","","","","","","","","","","","",""
"","ITI","","html-keyboard-response","499","477084","0.0-1.0-693.0","0","0","83224","","null","","","null","76","","","","","","","","","","","","","","","NaN",""
"","S1","","html-keyboard-response","500","477353","0.0-1.0-695.0","0","0","83224","","null","","","null","77","","","","","","","","","","","","","","","",""
"","ISI","","html-keyboard-response","501","478356","0.0-1.0-696.0","0","0","83224","","null","","","null","77","NaN","","","","","","","","","","","","","","",""
"","S2","","html-keyboard-response","502","478611","0.0-1.0-697.0","0","0","83224","","null","","","null","77","","NaN","","","","","","","","","","","","","",""
"","response","","html-keyboard-response","503","478986","0.0-1.0-698.0-0.0","0","0","83224","","373","","","68","77","","","2","77","training","adjacent","AB","1","2","M.jpg","O.jpg","1","1","1","",""
"","feedback","","html-keyboard-response","504","479989","0.0-1.0-699.0-0.0","0","0","83224","","null","","","null","77","","","","","","","","","","","","","","","",""
"","ITI","","html-keyboard-response","505","480993","0.0-1.0-702.0","0","0","83224","","null","","","null","77","","","","","","","","","","","","","","","NaN",""
"","S1","","html-keyboard-response","506","481248","0.0-1.0-704.0","0","0","83224","","null","","","null","78","","","","","","","","","","","","","","","",""
"","ISI","","html-keyboard-response","507","482252","0.0-1.0-705.0","0","0","83224","","null","","","null","78","NaN","","","","","","","","","","","","","","",""
"","S2","","html-keyboard-response","508","482506","0.0-1.0-706.0","0","0","83224","","null","","","null","78","","NaN","","","","","","","","","","","","","",""
"","response","","html-keyboard-response","509","482992","0.0-1.0-707.0-0.0","0","0","83224","","484","","","75","78","","","2","78","training","adjacent","BA","2","1","O.jpg","M.jpg","0","0","1","",""
"","feedback","","html-keyboard-response","510","483996","0.0-1.0-708.0-0.0","0","0","83224","","null","","","null","78","","","","","","","","","","","","","","","",""
"","ITI","","html-keyboard-response","511","485000","0.0-1.0-711.0","0","0","83224","","null","","","null","78","","","","","","","","","","","","","","","NaN",""
"","S1","","html-keyboard-response","512","485254","0.0-1.0-713.0","0","0","83224","","null","","","null","79","","","","","","","","","","","","","","","",""
"","ISI","","html-keyboard-response","513","486259","0.0-1.0-714.0","0","0","83224","","null","","","null","79","NaN","","","","","","","","","","","","","","",""
"","S2","","html-keyboard-response","514","486514","0.0-1.0-715.0","0","0","83224","","null","","","null","79","","NaN","","","","","","","","","","","","","",""
"","response","","html-keyboard-response","515","487011","0.0-1.0-716.0-0.0","0","0","83224","","494","","","75","79","","","2","79","training","adjacent","ED","5","4","Q.jpg","R.jpg","0","0","1","",""
"","feedback","","html-keyboard-response","516","488015","0.0-1.0-717.0-0.0","0","0","83224","","null","","","null","79","","","","","","","","","","","","","","","",""
"","ITI","","html-keyboard-response","517","489020","0.0-1.0-720.0","0","0","83224","","null","","","null","79","","","","","","","","","","","","","","","NaN",""
"","S1","","html-keyboard-response","518","489275","0.0-1.0-722.0","0","0","83224","","null","","","null","80","","","","","","","","","","","","","","","",""
"","ISI","","html-keyboard-response","519","490279","0.0-1.0-723.0","0","0","83224","","null","","","null","80","NaN","","","","","","","","","","","","","","",""
"","S2","","html-keyboard-response","520","490533","0.0-1.0-724.0","0","0","83224","","null","","","null","80","","NaN","","","","","","","","","","","","","",""
"","response","","html-keyboard-response","521","491010","0.0-1.0-725.0-0.0","0","0","83224","","475","","","68","80","","","2","80","training","adjacent","FG","6","7","N.jpg","P.jpg","1","1","1","",""
"","feedback","","html-keyboard-response","522","492014","0.0-1.0-726.0-0.0","0","0","83224","","null","","","null","80","","","","","","","","","","","","","","","",""
"","ITI","","html-keyboard-response","523","493019","0.0-1.0-729.0","0","0","83224","","null","","","null","80","","","","","","","","","","","","","","","NaN",""
"","S1","","html-keyboard-response","524","493273","0.0-1.0-731.0","0","0","83224","","null","","","null","81","","","","","","","","","","","","","","","",""
"","ISI","","html-keyboard-response","525","494277","0.0-1.0-732.0","0","0","83224","","null","","","null","81","NaN","","","","","","","","","","","","","","",""
"","S2","","html-keyboard-response","526","494531","0.0-1.0-733.0","0","0","83224","","null","","","null","81","","NaN","","","","","","","","","","","","","",""
"","response","","html-keyboard-response","527","495267","0.0-1.0-734.0-0.0","0","0","83224","","733","","","68","81","","","2","81","training","adjacent","BC","2","3","O.jpg","L.jpg","1","1","1","",""
"","feedback","","html-keyboard-response","528","496275","0.0-1.0-735.0-0.0","0","0","83224","","null","","","null","81","","","","","","","","","","","","","","","",""
"","ITI","","html-keyboard-response","529","497279","0.0-1.0-738.0","0","0","83224","","null","","","null","81","","","","","","","","","","","","","","","NaN",""
"","S1","","html-keyboard-response","530","497533","0.0-1.0-740.0","0","0","83224","","null","","","null","82","","","","","","","","","","","","","","","",""
"","ISI","","html-keyboard-response","531","498536","0.0-1.0-741.0","0","0","83224","","null","","","null","82","NaN","","","","","","","","","","","","","","",""
"","S2","","html-keyboard-response","532","498790","0.0-1.0-742.0","0","0","83224","","null","","","null","82","","NaN","","","","","","","","","","","","","",""
"","response","","html-keyboard-response","533","499346","0.0-1.0-743.0-0.0","0","0","83224","","553","","","75","82","","","2","82","training","adjacent","EF","5","6","Q.jpg","N.jpg","0","1","0","",""
"","feedback","","html-keyboard-response","534","500350","0.0-1.0-744.0-0.0","0","0","83224","","null","","","null","82","","","","","","","","","","","","","","","",""
"","time_out","","html-keyboard-response","535","502353","0.0-1.0-746.0-0.0","0","0","83224","","null","","","null","82","","","","","","","","","","","","","","","",""
"","ITI","","html-keyboard-response","536","503357","0.0-1.0-747.0","0","0","83224","","null","","","null","82","","","","","","","","","","","","","","","NaN",""
"","S1","","html-keyboard-response","537","503611","0.0-1.0-749.0","0","0","83224","","null","","","null","83","","","","","","","","","","","","","","","",""
"","ISI","","html-keyboard-response","538","504615","0.0-1.0-750.0","0","0","83224","","null","","","null","83","NaN","","","","","","","","","","","","","","",""
"","S2","","html-keyboard-response","539","504869","0.0-1.0-751.0","0","0","83224","","null","","","null","83","","NaN","","","","","","","","","","","","","",""
"","response","","html-keyboard-response","540","505600","0.0-1.0-752.0-0.0","0","0","83224","","729","","","68","83","","","2","83","training","adjacent","CB","3","2","L.jpg","O.jpg","1","0","0","",""
"","feedback","","html-keyboard-response","541","506605","0.0-1.0-753.0-0.0","0","0","83224","","null","","","null","83","","","","","","","","","","","","","","","",""
"","time_out","","html-keyboard-response","542","508610","0.0-1.0-755.0-0.0","0","0","83224","","null","","","null","83","","","","","","","","","","","","","","","",""
"","ITI","","html-keyboard-response","543","509614","0.0-1.0-756.0","0","0","83224","","null","","","null","83","","","","","","","","","","","","","","","NaN",""
"","S1","","html-keyboard-response","544","509881","0.0-1.0-758.0","0","0","83224","","null","","","null","84","","","","","","","","","","","","","","","",""
"","ISI","","html-keyboard-response","545","510884","0.0-1.0-759.0","0","0","83224","","null","","","null","84","NaN","","","","","","","","","","","","","","",""
"","S2","","html-keyboard-response","546","511138","0.0-1.0-760.0","0","0","83224","","null","","","null","84","","NaN","","","","","","","","","","","","","",""
"","response","","html-keyboard-response","547","511491","0.0-1.0-761.0-0.0","0","0","83224","","350","","","68","84","","","2","84","training","adjacent","DE","4","5","R.jpg","Q.jpg","1","1","1","",""
"","feedback","","html-keyboard-response","548","512496","0.0-1.0-762.0-0.0","0","0","83224","","null","","","null","84","","","","","","","","","","","","","","","",""
"","ITI","","html-keyboard-response","549","513502","0.0-1.0-765.0","0","0","83224","","null","","","null","84","","","","","","","","","","","","","","","NaN",""
"","S1","","html-keyboard-response","550","513756","0.0-1.0-767.0","0","0","83224","","null","","","null","85","","","","","","","","","","","","","","","",""
"","ISI","","html-keyboard-response","551","514760","0.0-1.0-768.0","0","0","83224","","null","","","null","85","NaN","","","","","","","","","","","","","","",""
"","S2","","html-keyboard-response","552","515015","0.0-1.0-769.0","0","0","83224","","null","","","null","85","","NaN","","","","","","","","","","","","","",""
"","response","","html-keyboard-response","553","515755","0.0-1.0-770.0-0.0","0","0","83224","","737","","","75","85","","","2","85","training","adjacent","ED","5","4","Q.jpg","R.jpg","0","0","1","",""
"","feedback","","html-keyboard-response","554","516761","0.0-1.0-771.0-0.0","0","0","83224","","null","","","null","85","","","","","","","","","","","","","","","",""
"","ITI","","html-keyboard-response","555","517767","0.0-1.0-774.0","0","0","83224","","null","","","null","85","","","","","","","","","","","","","","","NaN",""
"","S1","","html-keyboard-response","556","518021","0.0-1.0-776.0","0","0","83224","","null","","","null","86","","","","","","","","","","","","","","","",""
"","ISI","","html-keyboard-response","557","519026","0.0-1.0-777.0","0","0","83224","","null","","","null","86","NaN","","","","","","","","","","","","","","",""
"","S2","","html-keyboard-response","558","519281","0.0-1.0-778.0","0","0","83224","","null","","","null","86","","NaN","","","","","","","","","","","","","",""
"","response","","html-keyboard-response","559","519603","0.0-1.0-779.0-0.0","0","0","83224","","319","","","75","86","","","2","86","training","adjacent","CB","3","2","L.jpg","O.jpg","0","0","1","",""
"","feedback","","html-keyboard-response","560","520606","0.0-1.0-780.0-0.0","0","0","83224","","null","","","null","86","","","","","","","","","","","","","","","",""
"","ITI","","html-keyboard-response","561","521611","0.0-1.0-783.0","0","0","83224","","null","","","null","86","","","","","","","","","","","","","","","NaN",""
"","S1","","html-keyboard-response","562","521865","0.0-1.0-785.0","0","0","83224","","null","","","null","87","","","","","","","","","","","","","","","",""
"","ISI","","html-keyboard-response","563","522870","0.0-1.0-786.0","0","0","83224","","null","","","null","87","NaN","","","","","","","","","","","","","","",""
"","S2","","html-keyboard-response","564","523125","0.0-1.0-787.0","0","0","83224","","null","","","null","87","","NaN","","","","","","","","","","","","","",""
"","response","","html-keyboard-response","565","523683","0.0-1.0-788.0-0.0","0","0","83224","","555","","","68","87","","","2","87","training","adjacent","FE","6","5","N.jpg","Q.jpg","1","0","0","",""
"","feedback","","html-keyboard-response","566","524687","0.0-1.0-789.0-0.0","0","0","83224","","null","","","null","87","","","","","","","","","","","","","","","",""
"","time_out","","html-keyboard-response","567","526693","0.0-1.0-791.0-0.0","0","0","83224","","null","","","null","87","","","","","","","","","","","","","","","",""
"","ITI","","html-keyboard-response","568","527696","0.0-1.0-792.0","0","0","83224","","null","","","null","87","","","","","","","","","","","","","","","NaN",""
"","S1","","html-keyboard-response","569","527952","0.0-1.0-794.0","0","0","83224","","null","","","null","88","","","","","","","","","","","","","","","",""
"","ISI","","html-keyboard-response","570","528957","0.0-1.0-795.0","0","0","83224","","null","","","null","88","NaN","","","","","","","","","","","","","","",""
"","S2","","html-keyboard-response","571","529211","0.0-1.0-796.0","0","0","83224","","null","","","null","88","","NaN","","","","","","","","","","","","","",""
"","response","","html-keyboard-response","572","529763","0.0-1.0-797.0-0.0","0","0","83224","","549","","","68","88","","","2","88","training","adjacent","AB","1","2","M.jpg","O.jpg","1","1","1","",""
"","feedback","","html-keyboard-response","573","530768","0.0-1.0-798.0-0.0","0","0","83224","","null","","","null","88","","","","","","","","","","","","","","","",""
"","ITI","","html-keyboard-response","574","531771","0.0-1.0-801.0","0","0","83224","","null","","","null","88","","","","","","","","","","","","","","","NaN",""
"","S1","","html-keyboard-response","575","532025","0.0-1.0-803.0","0","0","83224","","null","","","null","89","","","","","","","","","","","","","","","",""
"","ISI","","html-keyboard-response","576","533029","0.0-1.0-804.0","0","0","83224","","null","","","null","89","NaN","","","","","","","","","","","","","","",""
"","S2","","html-keyboard-response","577","533284","0.0-1.0-805.0","0","0","83224","","null","","","null","89","","NaN","","","","","","","","","","","","","",""
"","response","","html-keyboard-response","578","533812","0.0-1.0-806.0-0.0","0","0","83224","","526","","","75","89","","","2","89","training","adjacent","FE","6","5","N.jpg","Q.jpg","0","0","1","",""
"","feedback","","html-keyboard-response","579","534815","0.0-1.0-807.0-0.0","0","0","83224","","null","","","null","89","","","","","","","","","","","","","","","",""
"","ITI","","html-keyboard-response","580","535819","0.0-1.0-810.0","0","0","83224","","null","","","null","89","","","","","","","","","","","","","","","NaN",""
"","S1","","html-keyboard-response","581","536073","0.0-1.0-812.0","0","0","83224","","null","","","null","90","","","","","","","","","","","","","","","",""
"","ISI","","html-keyboard-response","582","537077","0.0-1.0-813.0","0","0","83224","","null","","","null","90","NaN","","","","","","","","","","","","","","",""
