"success","ttype","start_time","trial_type","trial_index","time_elapsed","internal_node_id","warning","missed_checkup","PID","view_history","rt","responses","repeat_instructions","key_press","index","keypress_isi","keypress_S2","block","trial_num","phase","group_type","pair_type","S1_stim","S2_stim","S1_img","S2_img","S1_chosen","S1_higher","accuracy","keypress_iti","total_bonus_tally"
"true","full_screen","d04142023hr0158","fullscreen","0","5326","0.0-0.0","0","0","77485","","","","","","","","","","","","","","","","","","","","","",""
"","instructions","","instructions","1","28533","0.0-1.0-0.0-0.0","0","0","77485","[{""page_index"":0,""viewing_time"":3048},{""page_index"":1,""viewing_time"":13491},{""page_index"":2,""viewing_time"":5017},{""page_index"":3,""viewing_time"":1648}]","23205","","","","","","","","","","","","","","","","","","","",""
"","comprehension_check","","survey-multi-choice","2","46941","0.0-1.0-0.0-1.0","0","0","77485","","18400","{""Q0"":""True"",""Q1"":""D"",""Q2"":""Only when the screen 'MAKE A CHOICE' is shown"",""Q3"":""Green mark"",""Q4"":""either D or K""}","1","","","","","","","","","","","","","","","","","",""
"","missed_instruction_checkup","","html-keyboard-response","3","49501","0.0-1.0-0.0-2.0-0.0","0","1","77485","","2556","","","32","","","","","","","","","","","","","","","","",""
"","instructions","","instructions","4","70841","0.0-1.0-0.1-0.1","0","0","77485","[{""page_index"":0,""viewing_time"":3827},{""page_index"":1,""viewing_time"":13732},{""page_index"":2,""viewing_time"":2831},{""page_index"":3,""viewing_time"":947}]","21338","","","","","","","","","","","","","","","","","","","",""
"","comprehension_check","","survey-multi-choice","5","97493","0.0-1.0-0.1-1.1","0","0","77485","","26645","{""Q0"":""True"",""Q1"":""K"",""Q2"":""Once the second image appears and while the screen 'MAKE A CHOICE' is shown"",""Q3"":""Green mark"",""Q4"":""either D or K""}","0","","","","","","","","","","","","","","","","","",""
"","start_exp","","html-keyboard-response","6","99022","0.0-1.0-1.0","0","0","77485","","1526","","","32","","","","","","","","","","","","","","","","",""
"","S1","","html-keyboard-response","7","99279","0.0-1.0-2.0","0","0","77485","","null","","","null","0","","","","","","","","","","","","","","","",""
"","ISI","","html-keyboard-response","8","100286","0.0-1.0-3.0","0","0","77485","","857","","","75","0","k","","","","","","","","","","","","","","",""
"","S2","","html-keyboard-response","9","100547","0.0-1.0-4.0","0","0","77485","","null","","","null","0","","NaN","","","","","","","","","","","","","",""
"","response","","html-keyboard-response","10","100715","0.0-1.0-5.0-0.0","0","0","77485","","166","","","68","0","","","1","0","training","adjacent","GF","7","6","M.jpg","O.jpg","0","0","1","",""
"","feedback","","html-keyboard-response","11","101722","0.0-1.0-6.0-0.0","0","0","77485","","null","","","null","0","","","","","","","","","","","","","","","",""
"","ITI","","html-keyboard-response","12","102725","0.0-1.0-9.0","0","0","77485","","null","","","null","0","","","","","","","","","","","","","","","NaN",""
"","S1","","html-keyboard-response","13","102991","0.0-1.0-11.0","0","0","77485","","null","","","null","1","","","","","","","","","","","","","","","",""
"","ISI","","html-keyboard-response","14","104007","0.0-1.0-12.0","0","0","77485","","null","","","null","1","NaN","","","","","","","","","","","","","","",""
"","S2","","html-keyboard-response","15","104267","0.0-1.0-13.0","0","0","77485","","null","","","null","1","","NaN","","","","","","","","","","","","","",""
"","response","","html-keyboard-response","16","105078","0.0-1.0-14.0-0.0","0","0","77485","","809","","","68","1","","","1","1","training","adjacent","CB","3","2","N.jpg","L.jpg","0","0","1","",""
"","feedback","","html-keyboard-response","17","106082","0.0-1.0-15.0-0.0","0","0","77485","","null","","","null","1","","","","","","","","","","","","","","","",""
"","ITI","","html-keyboard-response","18","107093","0.0-1.0-18.0","0","0","77485","","null","","","null","1","","","","","","","","","","","","","","","NaN",""
"","S1","","html-keyboard-response","19","107352","0.0-1.0-20.0","0","0","77485","","null","","","null","2","","","","","","","","","","","","","","","",""
"","ISI","","html-keyboard-response","20","108358","0.0-1.0-21.0","0","0","77485","","null","","","null","2","NaN","","","","","","","","","","","","","","",""
"","S2","","html-keyboard-response","21","108613","0.0-1.0-22.0","0","0","77485","","null","","","null","2","","NaN","","","","","","","","","","","","","",""
"","response","","html-keyboard-response","22","108726","0.0-1.0-23.0-0.0","0","0","77485","","111","","","75","2","","","1","2","training","adjacent","DC","4","3","P.jpg","N.jpg","1","0","0","",""
"","feedback","","html-keyboard-response","23","109735","0.0-1.0-24.0-0.0","0","0","77485","","null","","","null","2","","","","","","","","","","","","","","","",""
"","time_out","","html-keyboard-response","24","111742","0.0-1.0-26.0-0.0","0","0","77485","","null","","","null","2","","","","","","","","","","","","","","","",""
"","ITI","","html-keyboard-response","25","112750","0.0-1.0-27.0","0","0","77485","","null","","","null","2","","","","","","","","","","","","","","","NaN",""
"","S1","","html-keyboard-response","26","113010","0.0-1.0-29.0","0","0","77485","","null","","","null","3","","","","","","","","","","","","","","","",""
"","ISI","","html-keyboard-response","27","114019","0.0-1.0-30.0","0","0","77485","","null","","","null","3","NaN","","","","","","","","","","","","","","",""
"","S2","","html-keyboard-response","28","114272","0.0-1.0-31.0","0","0","77485","","null","","","null","3","","NaN","","","","","","","","","","","","","",""
"","response","","html-keyboard-response","29","114798","0.0-1.0-32.0-0.0","0","0","77485","","523","","","68","3","","","1","3","training","adjacent","BA","2","1","L.jpg","R.jpg","0","0","1","",""
"","feedback","","html-keyboard-response","30","115802","0.0-1.0-33.0-0.0","0","0","77485","","null","","","null","3","","","","","","","","","","","","","","","",""
"","ITI","","html-keyboard-response","31","116811","0.0-1.0-36.0","0","0","77485","","null","","","null","3","","","","","","","","","","","","","","","NaN",""
"","S1","","html-keyboard-response","32","117073","0.0-1.0-38.0","0","0","77485","","null","","","null","4","","","","","","","","","","","","","","","",""
"","ISI","","html-keyboard-response","33","118080","0.0-1.0-39.0","0","0","77485","","null","","","null","4","NaN","","","","","","","","","","","","","","",""
"","S2","","html-keyboard-response","34","118340","0.0-1.0-40.0","0","0","77485","","null","","","null","4","","NaN","","","","","","","","","","","","","",""
"","response","","html-keyboard-response","35","118424","0.0-1.0-41.0-0.0","0","0","77485","","82","","","68","4","","","1","4","training","adjacent","FE","6","5","O.jpg","Q.jpg","0","0","1","",""
"","feedback","","html-keyboard-response","36","119434","0.0-1.0-42.0-0.0","0","0","77485","","null","","","null","4","","","","","","","","","","","","","","","",""
"","ITI","","html-keyboard-response","37","120442","0.0-1.0-45.0","0","0","77485","","null","","","null","4","","","","","","","","","","","","","","","NaN",""
"","S1","","html-keyboard-response","38","120703","0.0-1.0-47.0","0","0","77485","","null","","","null","5","","","","","","","","","","","","","","","",""
"","ISI","","html-keyboard-response","39","121707","0.0-1.0-48.0","0","0","77485","","null","","","null","5","NaN","","","","","","","","","","","","","","",""
"","S2","","html-keyboard-response","40","121968","0.0-1.0-49.0","0","0","77485","","null","","","null","5","","NaN","","","","","","","","","","","","","",""
"","response","","html-keyboard-response","41","121982","0.0-1.0-50.0-0.0","0","0","77485","","13","","","68","5","","","1","5","training","adjacent","FG","6","7","O.jpg","M.jpg","0","1","0","",""
"","feedback","","html-keyboard-response","42","122987","0.0-1.0-51.0-0.0","0","0","77485","","null","","","null","5","","","","","","","","","","","","","","","",""
"","time_out","","html-keyboard-response","43","124991","0.0-1.0-53.0-0.0","0","0","77485","","null","","","null","5","","","","","","","","","","","","","","","",""
"","ITI","","html-keyboard-response","44","125995","0.0-1.0-54.0","0","0","77485","","null","","","null","5","","","","","","","","","","","","","","","NaN",""
"","S1","","html-keyboard-response","45","126252","0.0-1.0-56.0","0","0","77485","","null","","","null","6","","","","","","","","","","","","","","","",""
"","ISI","","html-keyboard-response","46","127264","0.0-1.0-57.0","0","0","77485","","null","","","null","6","NaN","","","","","","","","","","","","","","",""
"","S2","","html-keyboard-response","47","127522","0.0-1.0-58.0","0","0","77485","","null","","","null","6","","NaN","","","","","","","","","","","","","",""
"","response","","html-keyboard-response","48","128177","0.0-1.0-59.0-0.0","0","0","77485","","653","","","75","6","","","1","6","training","adjacent","CB","3","2","N.jpg","L.jpg","1","0","0","",""
"","feedback","","html-keyboard-response","49","129181","0.0-1.0-60.0-0.0","0","0","77485","","null","","","null","6","","","","","","","","","","","","","","","",""
"","time_out","","html-keyboard-response","50","131192","0.0-1.0-62.0-0.0","0","0","77485","","null","","","null","6","","","","","","","","","","","","","","","",""
"","ITI","","html-keyboard-response","51","132201","0.0-1.0-63.0","0","0","77485","","null","","","null","6","","","","","","","","","","","","","","","NaN",""
"","S1","","html-keyboard-response","52","132455","0.0-1.0-65.0","0","0","77485","","null","","","null","7","","","","","","","","","","","","","","","",""
"","ISI","","html-keyboard-response","53","133458","0.0-1.0-66.0","0","0","77485","","null","","","null","7","NaN","","","","","","","","","","","","","","",""
"","S2","","html-keyboard-response","54","133713","0.0-1.0-67.0","0","0","77485","","null","","","null","7","","NaN","","","","","","","","","","","","","",""
"","response","","html-keyboard-response","55","134429","0.0-1.0-68.0-0.0","0","0","77485","","714","","","68","7","","","1","7","training","adjacent","BA","2","1","L.jpg","R.jpg","0","0","1","",""
"","feedback","","html-keyboard-response","56","135434","0.0-1.0-69.0-0.0","0","0","77485","","null","","","null","7","","","","","","","","","","","","","","","",""
"","ITI","","html-keyboard-response","57","136437","0.0-1.0-72.0","0","0","77485","","null","","","null","7","","","","","","","","","","","","","","","NaN",""
"","S1","","html-keyboard-response","58","136704","0.0-1.0-74.0","0","0","77485","","null","","","null","8","","","","","","","","","","","","","","","",""
"","ISI","","html-keyboard-response","59","137719","0.0-1.0-75.0","0","0","77485","","null","","","null","8","NaN","","","","","","","","","","","","","","",""
"","S2","","html-keyboard-response","60","137979","0.0-1.0-76.0","0","0","77485","","null","","","null","8","","NaN","","","","","","","","","","","","","",""
"","response","","html-keyboard-response","61","138600","0.0-1.0-77.0-0.0","0","0","77485","","619","","","68","8","","","1","8","training","adjacent","DE","4","5","P.jpg","Q.jpg","0","1","0","",""
"","feedback","","html-keyboard-response","62","139603","0.0-1.0-78.0-0.0","0","0","77485","","null","","","null","8","","","","","","","","","","","","","","","",""
"","time_out","","html-keyboard-response","63","141616","0.0-1.0-80.0-0.0","0","0","77485","","null","","","null","8","","","","","","","","","","","","","","","",""
"","ITI","","html-keyboard-response","64","142619","0.0-1.0-81.0","0","0","77485","","null","","","null","8","","","","","","","","","","","","","","","NaN",""
"","S1","","html-keyboard-response","65","142879","0.0-1.0-83.0","0","0","77485","","null","","","null","9","","","","","","","","","","","","","","","",""
"","ISI","","html-keyboard-response","66","143886","0.0-1.0-84.0","0","0","77485","","null","","","null","9","NaN","","","","","","","","","","","","","","",""
"","S2","","html-keyboard-response","67","144144","0.0-1.0-85.0","0","0","77485","","null","","","null","9","","NaN","","","","","","","","","","","","","",""
"","response","","html-keyboard-response","68","144694","0.0-1.0-86.0-0.0","0","0","77485","","549","","","75","9","","","1","9","training","adjacent","CD","3","4","N.jpg","P.jpg","1","1","1","",""
"","feedback","","html-keyboard-response","69","145701","0.0-1.0-87.0-0.0","0","0","77485","","null","","","null","9","","","","","","","","","","","","","","","",""
"","ITI","","html-keyboard-response","70","146705","0.0-1.0-90.0","0","0","77485","","null","","","null","9","","","","","","","","","","","","","","","NaN",""
"","S1","","html-keyboard-response","71","146963","0.0-1.0-92.0","0","0","77485","","null","","","null","10","","","","","","","","","","","","","","","",""
"","ISI","","html-keyboard-response","72","147968","0.0-1.0-93.0","0","0","77485","","null","","","null","10","NaN","","","","","","","","","","","","","","",""
"","S2","","html-keyboard-response","73","148227","0.0-1.0-94.0","0","0","77485","","null","","","null","10","","NaN","","","","","","","","","","","","","",""
"","response","","html-keyboard-response","74","148830","0.0-1.0-95.0-0.0","0","0","77485","","601","","","75","10","","","1","10","training","adjacent","EF","5","6","Q.jpg","O.jpg","1","1","1","",""
"","feedback","","html-keyboard-response","75","149841","0.0-1.0-96.0-0.0","0","0","77485","","null","","","null","10","","","","","","","","","","","","","","","",""
"","ITI","","html-keyboard-response","76","150852","0.0-1.0-99.0","0","0","77485","","null","","","null","10","","","","","","","","","","","","","","","NaN",""
"","S1","","html-keyboard-response","77","151113","0.0-1.0-101.0","0","0","77485","","null","","","null","11","","","","","","","","","","","","","","","",""
"","ISI","","html-keyboard-response","78","152117","0.0-1.0-102.0","0","0","77485","","null","","","null","11","NaN","","","","","","","","","","","","","","",""
"","S2","","html-keyboard-response","79","152375","0.0-1.0-103.0","0","0","77485","","null","","","null","11","","NaN","","","","","","","","","","","","","",""
"","response","","html-keyboard-response","80","153172","0.0-1.0-104.0-0.0","0","0","77485","","796","","","75","11","","","1","11","training","adjacent","DC","4","3","P.jpg","N.jpg","1","0","0","",""
"","feedback","","html-keyboard-response","81","154176","0.0-1.0-105.0-0.0","0","0","77485","","null","","","null","11","","","","","","","","","","","","","","","",""
"","time_out","","html-keyboard-response","82","156185","0.0-1.0-107.0-0.0","0","0","77485","","null","","","null","11","","","","","","","","","","","","","","","",""
"","ITI","","html-keyboard-response","83","157192","0.0-1.0-108.0","0","0","77485","","null","","","null","11","","","","","","","","","","","","","","","NaN",""
"","S1","","html-keyboard-response","84","157450","0.0-1.0-110.0","0","0","77485","","null","","","null","12","","","","","","","","","","","","","","","",""
"","ISI","","html-keyboard-response","85","158462","0.0-1.0-111.0","0","0","77485","","null","","","null","12","NaN","","","","","","","","","","","","","","",""
"","S2","","html-keyboard-response","86","158730","0.0-1.0-112.0","0","0","77485","","null","","","null","12","","NaN","","","","","","","","","","","","","",""
"","response","","html-keyboard-response","87","159577","0.0-1.0-113.0-0.0","0","0","77485","","845","","","68","12","","","1","12","training","adjacent","GF","7","6","M.jpg","O.jpg","0","0","1","",""
"","feedback","","html-keyboard-response","88","160589","0.0-1.0-114.0-0.0","0","0","77485","","null","","","null","12","","","","","","","","","","","","","","","",""
"","ITI","","html-keyboard-response","89","161597","0.0-1.0-117.0","0","0","77485","","null","","","null","12","","","","","","","","","","","","","","","NaN",""
"","S1","","html-keyboard-response","90","161864","0.0-1.0-119.0","0","0","77485","","null","","","null","13","","","","","","","","","","","","","","","",""
"","ISI","","html-keyboard-response","91","162867","0.0-1.0-120.0","0","0","77485","","null","","","null","13","NaN","","","","","","","","","","","","","","",""
"","S2","","html-keyboard-response","92","163120","0.0-1.0-121.0","0","0","77485","","null","","","null","13","","NaN","","","","","","","","","","","","","",""
"","response","","html-keyboard-response","93","163516","0.0-1.0-122.0-0.0","0","0","77485","","394","","","68","13","","","1","13","training","adjacent","BC","2","3","L.jpg","N.jpg","0","1","0","",""
"","feedback","","html-keyboard-response","94","164523","0.0-1.0-123.0-0.0","0","0","77485","","null","","","null","13","","","","","","","","","","","","","","","",""
"","time_out","","html-keyboard-response","95","166532","0.0-1.0-125.0-0.0","0","0","77485","","null","","","null","13","","","","","","","","","","","","","","","",""
"","ITI","","html-keyboard-response","96","167540","0.0-1.0-126.0","0","0","77485","","null","","","null","13","","","","","","","","","","","","","","","NaN",""
"","S1","","html-keyboard-response","97","167796","0.0-1.0-128.0","0","0","77485","","null","","","null","14","","","","","","","","","","","","","","","",""
"","ISI","","html-keyboard-response","98","168801","0.0-1.0-129.0","0","0","77485","","null","","","null","14","NaN","","","","","","","","","","","","","","",""
"","S2","","html-keyboard-response","99","169064","0.0-1.0-130.0","0","0","77485","","null","","","null","14","","NaN","","","","","","","","","","","","","",""
"","response","","html-keyboard-response","100","169671","0.0-1.0-131.0-0.0","0","0","77485","","605","","","75","14","","","1","14","training","adjacent","DE","4","5","P.jpg","Q.jpg","1","1","1","",""
"","feedback","","html-keyboard-response","101","170677","0.0-1.0-132.0-0.0","0","0","77485","","null","","","null","14","","","","","","","","","","","","","","","",""
"","ITI","","html-keyboard-response","102","171685","0.0-1.0-135.0","0","0","77485","","null","","","null","14","","","","","","","","","","","","","","","NaN",""
"","S1","","html-keyboard-response","103","171948","0.0-1.0-137.0","0","0","77485","","null","","","null","15","","","","","","","","","","","","","","","",""
"","ISI","","html-keyboard-response","104","172953","0.0-1.0-138.0","0","0","77485","","null","","","null","15","NaN","","","","","","","","","","","","","","",""
"","S2","","html-keyboard-response","105","173214","0.0-1.0-139.0","0","0","77485","","null","","","null","15","","NaN","","","","","","","","","","","","","",""
"","response","","html-keyboard-response","106","174241","0.0-1.0-140.0-0.0","0","0","77485","","1026","","","75","15","","","1","15","training","adjacent","FG","6","7","O.jpg","M.jpg","1","1","1","",""
"","feedback","","html-keyboard-response","107","175246","0.0-1.0-141.0-0.0","0","0","77485","","null","","","null","15","","","","","","","","","","","","","","","",""
"","ITI","","html-keyboard-response","108","176257","0.0-1.0-144.0","0","0","77485","","null","","","null","15","","","","","","","","","","","","","","","NaN",""
"","S1","","html-keyboard-response","109","176517","0.0-1.0-146.0","0","0","77485","","null","","","null","16","","","","","","","","","","","","","","","",""
"","ISI","","html-keyboard-response","110","177523","0.0-1.0-147.0","0","0","77485","","null","","","null","16","NaN","","","","","","","","","","","","","","",""
"","S2","","html-keyboard-response","111","177780","0.0-1.0-148.0","0","0","77485","","null","","","null","16","","NaN","","","","","","","","","","","","","",""
"","response","","html-keyboard-response","112","178837","0.0-1.0-149.0-0.0","0","0","77485","","1055","","","68","16","","","1","16","training","adjacent","DE","4","5","P.jpg","Q.jpg","0","1","0","",""
"","feedback","","html-keyboard-response","113","179840","0.0-1.0-150.0-0.0","0","0","77485","","null","","","null","16","","","","","","","","","","","","","","","",""
"","time_out","","html-keyboard-response","114","181850","0.0-1.0-152.0-0.0","0","0","77485","","null","","","null","16","","","","","","","","","","","","","","","",""
"","ITI","","html-keyboard-response","115","182855","0.0-1.0-153.0","0","0","77485","","null","","","null","16","","","","","","","","","","","","","","","NaN",""
"","S1","","html-keyboard-response","116","183113","0.0-1.0-155.0","0","0","77485","","null","","","null","17","","","","","","","","","","","","","","","",""
"","ISI","","html-keyboard-response","117","184120","0.0-1.0-156.0","0","0","77485","","null","","","null","17","NaN","","","","","","","","","","","","","","",""
"","S2","","html-keyboard-response","118","184380","0.0-1.0-157.0","0","0","77485","","null","","","null","17","","NaN","","","","","","","","","","","","","",""
"","response","","html-keyboard-response","119","184961","0.0-1.0-158.0-0.0","0","0","77485","","578","","","75","17","","","1","17","training","adjacent","DC","4","3","P.jpg","N.jpg","1","0","0","",""
"","feedback","","html-keyboard-response","120","185971","0.0-1.0-159.0-0.0","0","0","77485","","null","","","null","17","","","","","","","","","","","","","","","",""
"","time_out","","html-keyboard-response","121","187978","0.0-1.0-161.0-0.0","0","0","77485","","null","","","null","17","","","","","","","","","","","","","","","",""
"","ITI","","html-keyboard-response","122","188984","0.0-1.0-162.0","0","0","77485","","null","","","null","17","","","","","","","","","","","","","","","NaN",""
"","S1","","html-keyboard-response","123","189241","0.0-1.0-164.0","0","0","77485","","null","","","null","18","","","","","","","","","","","","","","","",""
"","ISI","","html-keyboard-response","124","190260","0.0-1.0-165.0","0","0","77485","","null","","","null","18","NaN","","","","","","","","","","","","","","",""
"","S2","","html-keyboard-response","125","190519","0.0-1.0-166.0","0","0","77485","","null","","","null","18","","NaN","","","","","","","","","","","","","",""
"","response","","html-keyboard-response","126","191226","0.0-1.0-167.0-0.0","0","0","77485","","706","","","68","18","","","1","18","training","adjacent","CD","3","4","N.jpg","P.jpg","0","1","0","",""
"","feedback","","html-keyboard-response","127","192244","0.0-1.0-168.0-0.0","0","0","77485","","null","","","null","18","","","","","","","","","","","","","","","",""
"","time_out","","html-keyboard-response","128","194251","0.0-1.0-170.0-0.0","0","0","77485","","null","","","null","18","","","","","","","","","","","","","","","",""
"","ITI","","html-keyboard-response","129","195254","0.0-1.0-171.0","0","0","77485","","null","","","null","18","","","","","","","","","","","","","","","NaN",""
"","S1","","html-keyboard-response","130","195508","0.0-1.0-173.0","0","0","77485","","null","","","null","19","","","","","","","","","","","","","","","",""
"","ISI","","html-keyboard-response","131","196517","0.0-1.0-174.0","0","0","77485","","null","","","null","19","NaN","","","","","","","","","","","","","","",""
"","S2","","html-keyboard-response","132","196776","0.0-1.0-175.0","0","0","77485","","null","","","null","19","","NaN","","","","","","","","","","","","","",""
"","response","","html-keyboard-response","133","197360","0.0-1.0-176.0-0.0","0","0","77485","","583","","","68","19","","","1","19","training","adjacent","BC","2","3","L.jpg","N.jpg","0","1","0","",""
"","feedback","","html-keyboard-response","134","198375","0.0-1.0-177.0-0.0","0","0","77485","","null","","","null","19","","","","","","","","","","","","","","","",""
"","time_out","","html-keyboard-response","135","200380","0.0-1.0-179.0-0.0","0","0","77485","","null","","","null","19","","","","","","","","","","","","","","","",""
"","ITI","","html-keyboard-response","136","201392","0.0-1.0-180.0","0","0","77485","","null","","","null","19","","","","","","","","","","","","","","","NaN",""
"","S1","","html-keyboard-response","137","201648","0.0-1.0-182.0","0","0","77485","","null","","","null","20","","","","","","","","","","","","","","","",""
"","ISI","","html-keyboard-response","138","202655","0.0-1.0-183.0","0","0","77485","","null","","","null","20","NaN","","","","","","","","","","","","","","",""
"","S2","","html-keyboard-response","139","202917","0.0-1.0-184.0","0","0","77485","","null","","","null","20","","NaN","","","","","","","","","","","","","",""
"","response","","html-keyboard-response","140","204030","0.0-1.0-185.0-0.0","0","0","77485","","1111","","","68","20","","","1","20","training","adjacent","EF","5","6","Q.jpg","O.jpg","0","1","0","",""
"","feedback","","html-keyboard-response","141","205035","0.0-1.0-186.0-0.0","0","0","77485","","null","","","null","20","","","","","","","","","","","","","","","",""
"","time_out","","html-keyboard-response","142","207043","0.0-1.0-188.0-0.0","0","0","77485","","null","","","null","20","","","","","","","","","","","","","","","",""
"","ITI","","html-keyboard-response","143","208046","0.0-1.0-189.0","0","0","77485","","null","","","null","20","","","","","","","","","","","","","","","NaN",""
"","S1","","html-keyboard-response","144","208299","0.0-1.0-191.0","0","0","77485","","null","","","null","21","","","","","","","","","","","","","","","",""
"","ISI","","html-keyboard-response","145","209306","0.0-1.0-192.0","0","0","77485","","null","","","null","21","NaN","","","","","","","","","","","","","","",""
"","S2","","html-keyboard-response","146","209565","0.0-1.0-193.0","0","0","77485","","null","","","null","21","","NaN","","","","","","","","","","","","","",""
"","response","","html-keyboard-response","147","210617","0.0-1.0-194.0-0.0","0","0","77485","","1049","","","68","21","","","1","21","training","adjacent","CD","3","4","N.jpg","P.jpg","0","1","0","",""
"","feedback","","html-keyboard-response","148","211628","0.0-1.0-195.0-0.0","0","0","77485","","null","","","null","21","","","","","","","","","","","","","","","",""
"","time_out","","html-keyboard-response","149","213638","0.0-1.0-197.0-0.0","0","0","77485","","null","","","null","21","","","","","","","","","","","","","","","",""
"","ITI","","html-keyboard-response","150","214648","0.0-1.0-198.0","0","0","77485","","null","","","null","21","","","","","","","","","","","","","","","NaN",""
"","S1","","html-keyboard-response","151","214903","0.0-1.0-200.0","0","0","77485","","null","","","null","22","","","","","","","","","","","","","","","",""
"","ISI","","html-keyboard-response","152","215913","0.0-1.0-201.0","0","0","77485","","null","","","null","22","NaN","","","","","","","","","","","","","","",""
"","S2","","html-keyboard-response","153","216167","0.0-1.0-202.0","0","0","77485","","null","","","null","22","","NaN","","","","","","","","","","","","","",""
"","response","","html-keyboard-response","154","216852","0.0-1.0-203.0-0.0","0","0","77485","","683","","","75","22","","","1","22","training","adjacent","FE","6","5","O.jpg","Q.jpg","1","0","0","",""
"","feedback","","html-keyboard-response","155","217855","0.0-1.0-204.0-0.0","0","0","77485","","null","","","null","22","","","","","","","","","","","","","","","",""
"","time_out","","html-keyboard-response","156","219865","0.0-1.0-206.0-0.0","0","0","77485","","null","","","null","22","","","","","","","","","","","","","","","",""
"","ITI","","html-keyboard-response","157","220871","0.0-1.0-207.0","0","0","77485","","null","","","null","22","","","","","","","","","","","","","","","NaN",""
"","S1","","html-keyboard-response","158","221129","0.0-1.0-209.0","0","0","77485","","null","","","null","23","","","","","","","","","","","","","","","",""
"","ISI","","html-keyboard-response","159","222136","0.0-1.0-210.0","0","0","77485","","null","","","null","23","NaN","","","","","","","","","","","","","","",""
"","S2","","html-keyboard-response","160","222397","0.0-1.0-211.0","0","0","77485","","null","","","null","23","","NaN","","","","","","","","","","","","","",""
"","response","","html-keyboard-response","161","223283","0.0-1.0-212.0-0.0","0","0","77485","","883","","","75","23","","","1","23","training","adjacent","GF","7","6","M.jpg","O.jpg","1","0","0","",""
"","feedback","","html-keyboard-response","162","224289","0.0-1.0-213.0-0.0","0","0","77485","","null","","","null","23","","","","","","","","","","","","","","","",""
"","time_out","","html-keyboard-response","163","226296","0.0-1.0-215.0-0.0","0","0","77485","","null","","","null","23","","","","","","","","","","","","","","","",""
"","ITI","","html-keyboard-response","164","227305","0.0-1.0-216.0","0","0","77485","","null","","","null","23","","","","","","","","","","","","","","","NaN",""
"","S1","","html-keyboard-response","165","227563","0.0-1.0-218.0","0","0","77485","","null","","","null","24","","","","","","","","","","","","","","","",""
"","ISI","","html-keyboard-response","166","228572","0.0-1.0-219.0","0","0","77485","","null","","","null","24","NaN","","","","","","","","","","","","","","",""
"","S2","","html-keyboard-response","167","228825","0.0-1.0-220.0","0","0","77485","","null","","","null","24","","NaN","","","","","","","","","","","","","",""
"","response","","html-keyboard-response","168","229447","0.0-1.0-221.0-0.0","0","0","77485","","619","","","75","24","","","1","24","training","adjacent","ED","5","4","Q.jpg","P.jpg","1","0","0","",""
"","feedback","","html-keyboard-response","169","230451","0.0-1.0-222.0-0.0","0","0","77485","","null","","","null","24","","","","","","","","","","","","","","","",""
"","time_out","","html-keyboard-response","170","232461","0.0-1.0-224.0-0.0","0","0","77485","","null","","","null","24","","","","","","","","","","","","","","","",""
"","ITI","","html-keyboard-response","171","233470","0.0-1.0-225.0","0","0","77485","","null","","","null","24","","","","","","","","","","","","","","","NaN",""
"","S1","","html-keyboard-response","172","233732","0.0-1.0-227.0","0","0","77485","","null","","","null","25","","","","","","","","","","","","","","","",""
"","ISI","","html-keyboard-response","173","234740","0.0-1.0-228.0","0","0","77485","","null","","","null","25","NaN","","","","","","","","","","","","","","",""
"","S2","","html-keyboard-response","174","234998","0.0-1.0-229.0","0","0","77485","","null","","","null","25","","NaN","","","","","","","","","","","","","",""
"","response","","html-keyboard-response","175","235622","0.0-1.0-230.0-0.0","0","0","77485","","621","","","68","25","","","1","25","training","adjacent","CB","3","2","N.jpg","L.jpg","0","0","1","",""
"","feedback","","html-keyboard-response","176","236627","0.0-1.0-231.0-0.0","0","0","77485","","null","","","null","25","","","","","","","","","","","","","","","",""
"","ITI","","html-keyboard-response","177","237638","0.0-1.0-234.0","0","0","77485","","573","","","68","25","","","","","","","","","","","","","","","d",""
"","S1","","html-keyboard-response","178","237895","0.0-1.0-236.0","0","0","77485","","null","","","null","26","","","","","","","","","","","","","","","",""
"","ISI","","html-keyboard-response","179","238904","0.0-1.0-237.0","0","0","77485","","null","","","null","26","NaN","","","","","","","","","","","","","","",""
"","S2","","html-keyboard-response","180","239164","0.0-1.0-238.0","0","0","77485","","null","","","null","26","","NaN","","","","","","","","","","","","","",""
"","response","","html-keyboard-response","181","239705","0.0-1.0-239.0-0.0","0","0","77485","","539","","","68","26","","","1","26","training","adjacent","GF","7","6","M.jpg","O.jpg","0","0","1","",""
"","feedback","","html-keyboard-response","182","240724","0.0-1.0-240.0-0.0","0","0","77485","","null","","","null","26","","","","","","","","","","","","","","","",""
"","ITI","","html-keyboard-response","183","241735","0.0-1.0-243.0","0","0","77485","","null","","","null","26","","","","","","","","","","","","","","","NaN",""
"","S1","","html-keyboard-response","184","241991","0.0-1.0-245.0","0","0","77485","","null","","","null","27","","","","","","","","","","","","","","","",""
"","ISI","","html-keyboard-response","185","243003","0.0-1.0-246.0","0","0","77485","","null","","","null","27","NaN","","","","","","","","","","","","","","",""
"","S2","","html-keyboard-response","186","243258","0.0-1.0-247.0","0","0","77485","","null","","","null","27","","NaN","","","","","","","","","","","","","",""
"","response","","html-keyboard-response","187","243968","0.0-1.0-248.0-0.0","0","0","77485","","707","","","68","27","","","1","27","training","adjacent","FG","6","7","O.jpg","M.jpg","0","1","0","",""
"","feedback","","html-keyboard-response","188","244973","0.0-1.0-249.0-0.0","0","0","77485","","null","","","null","27","","","","","","","","","","","","","","","",""
"","time_out","","html-keyboard-response","189","246984","0.0-1.0-251.0-0.0","0","0","77485","","null","","","null","27","","","","","","","","","","","","","","","",""
"","ITI","","html-keyboard-response","190","247988","0.0-1.0-252.0","0","0","77485","","null","","","null","27","","","","","","","","","","","","","","","NaN",""
"","S1","","html-keyboard-response","191","248245","0.0-1.0-254.0","0","0","77485","","null","","","null","28","","","","","","","","","","","","","","","",""
"","ISI","","html-keyboard-response","192","249253","0.0-1.0-255.0","0","0","77485","","395","","","68","28","d","","","","","","","","","","","","","","",""
"","S2","","html-keyboard-response","193","249518","0.0-1.0-256.0","0","0","77485","","null","","","null","28","","NaN","","","","","","","","","","","","","",""
"","response","","html-keyboard-response","194","250130","0.0-1.0-257.0-0.0","0","0","77485","","609","","","68","28","","","1","28","training","adjacent","FG","6","7","O.jpg","M.jpg","0","1","0","",""
"","feedback","","html-keyboard-response","195","251136","0.0-1.0-258.0-0.0","0","0","77485","","null","","","null","28","","","","","","","","","","","","","","","",""
"","time_out","","html-keyboard-response","196","253146","0.0-1.0-260.0-0.0","0","0","77485","","null","","","null","28","","","","","","","","","","","","","","","",""
"","ITI","","html-keyboard-response","197","254153","0.0-1.0-261.0","0","0","77485","","null","","","null","28","","","","","","","","","","","","","","","NaN",""
"","S1","","html-keyboard-response","198","254417","0.0-1.0-263.0","0","0","77485","","null","","","null","29","","","","","","","","","","","","","","","",""
"","ISI","","html-keyboard-response","199","255423","0.0-1.0-264.0","0","0","77485","","null","","","null","29","NaN","","","","","","","","","","","","","","",""
"","S2","","html-keyboard-response","200","255679","0.0-1.0-265.0","0","0","77485","","null","","","null","29","","NaN","","","","","","","","","","","","","",""
"","response","","html-keyboard-response","201","256199","0.0-1.0-266.0-0.0","0","0","77485","","518","","","75","29","","","1","29","training","adjacent","EF","5","6","Q.jpg","O.jpg","1","1","1","",""
"","feedback","","html-keyboard-response","202","257211","0.0-1.0-267.0-0.0","0","0","77485","","null","","","null","29","","","","","","","","","","","","","","","",""
"","ITI","","html-keyboard-response","203","258221","0.0-1.0-270.0","0","0","77485","","null","","","null","29","","","","","","","","","","","","","","","NaN",""
"","S1","","html-keyboard-response","204","258474","0.0-1.0-272.0","0","0","77485","","null","","","null","30","","","","","","","","","","","","","","","",""
"","ISI","","html-keyboard-response","205","259484","0.0-1.0-273.0","0","0","77485","","null","","","null","30","NaN","","","","","","","","","","","","","","",""
"","S2","","html-keyboard-response","206","259738","0.0-1.0-274.0","0","0","77485","","null","","","null","30","","NaN","","","","","","","","","","","","","",""
"","response","","html-keyboard-response","207","260402","0.0-1.0-275.0-0.0","0","0","77485","","662","","","75","30","","","1","30","training","adjacent","BC","2","3","L.jpg","N.jpg","1","1","1","",""
"","feedback","","html-keyboard-response","208","261414","0.0-1.0-276.0-0.0","0","0","77485","","null","","","null","30","","","","","","","","","","","","","","","",""
"","ITI","","html-keyboard-response","209","262423","0.0-1.0-279.0","0","0","77485","","null","","","null","30","","","","","","","","","","","","","","","NaN",""
"","S1","","html-keyboard-response","210","262684","0.0-1.0-281.0","0","0","77485","","null","","","null","31","","","","","","","","","","","","","","","",""
"","ISI","","html-keyboard-response","211","263689","0.0-1.0-282.0","0","0","77485","","null","","","null","31","NaN","","","","","","","","","","","","","","",""
"","S2","","html-keyboard-response","212","263948","0.0-1.0-283.0","0","0","77485","","null","","","null","31","","NaN","","","","","","","","","","","","","",""
"","response","","html-keyboard-response","213","264472","0.0-1.0-284.0-0.0","0","0","77485","","521","","","75","31","","","1","31","training","adjacent","FE","6","5","O.jpg","Q.jpg","1","0","0","",""
"","feedback","","html-keyboard-response","214","265477","0.0-1.0-285.0-0.0","0","0","77485","","null","","","null","31","","","","","","","","","","","","","","","",""
"","time_out","","html-keyboard-response","215","267480","0.0-1.0-287.0-0.0","0","0","77485","","null","","","null","31","","","","","","","","","","","","","","","",""
"","ITI","","html-keyboard-response","216","268484","0.0-1.0-288.0","0","0","77485","","null","","","null","31","","","","","","","","","","","","","","","NaN",""
"","S1","","html-keyboard-response","217","268749","0.0-1.0-290.0","0","0","77485","","null","","","null","32","","","","","","","","","","","","","","","",""
"","ISI","","html-keyboard-response","218","269754","0.0-1.0-291.0","0","0","77485","","null","","","null","32","NaN","","","","","","","","","","","","","","",""
"","S2","","html-keyboard-response","219","270017","0.0-1.0-292.0","0","0","77485","","null","","","null","32","","NaN","","","","","","","","","","","","","",""
"","response","","html-keyboard-response","220","271243","0.0-1.0-293.0-0.0","0","0","77485","","1224","","","68","32","","","1","32","training","adjacent","ED","5","4","Q.jpg","P.jpg","0","0","1","",""
"","feedback","","html-keyboard-response","221","272247","0.0-1.0-294.0-0.0","0","0","77485","","null","","","null","32","","","","","","","","","","","","","","","",""
"","ITI","","html-keyboard-response","222","273262","0.0-1.0-297.0","0","0","77485","","null","","","null","32","","","","","","","","","","","","","","","NaN",""
"","S1","","html-keyboard-response","223","273522","0.0-1.0-299.0","0","0","77485","","null","","","null","33","","","","","","","","","","","","","","","",""
"","ISI","","html-keyboard-response","224","274528","0.0-1.0-300.0","0","0","77485","","null","","","null","33","NaN","","","","","","","","","","","","","","",""
"","S2","","html-keyboard-response","225","274785","0.0-1.0-301.0","0","0","77485","","null","","","null","33","","NaN","","","","","","","","","","","","","",""
"","response","","html-keyboard-response","226","275699","0.0-1.0-302.0-0.0","0","0","77485","","911","","","68","33","","","1","33","training","adjacent","AB","1","2","R.jpg","L.jpg","0","1","0","",""
"","feedback","","html-keyboard-response","227","276707","0.0-1.0-303.0-0.0","0","0","77485","","null","","","null","33","","","","","","","","","","","","","","","",""
"","time_out","","html-keyboard-response","228","278713","0.0-1.0-305.0-0.0","0","0","77485","","null","","","null","33","","","","","","","","","","","","","","","",""
"","ITI","","html-keyboard-response","229","279723","0.0-1.0-306.0","0","0","77485","","null","","","null","33","","","","","","","","","","","","","","","NaN",""
"","S1","","html-keyboard-response","230","279982","0.0-1.0-308.0","0","0","77485","","null","","","null","34","","","","","","","","","","","","","","","",""
"","ISI","","html-keyboard-response","231","280991","0.0-1.0-309.0","0","0","77485","","null","","","null","34","NaN","","","","","","","","","","","","","","",""
"","S2","","html-keyboard-response","232","281249","0.0-1.0-310.0","0","0","77485","","null","","","null","34","","NaN","","","","","","","","","","","","","",""
"","response","","html-keyboard-response","233","282163","0.0-1.0-311.0-0.0","0","0","77485","","912","","","68","34","","","1","34","training","adjacent","CB","3","2","N.jpg","L.jpg","0","0","1","",""
"","feedback","","html-keyboard-response","234","283171","0.0-1.0-312.0-0.0","0","0","77485","","null","","","null","34","","","","","","","","","","","","","","","",""
"","ITI","","html-keyboard-response","235","284178","0.0-1.0-315.0","0","0","77485","","null","","","null","34","","","","","","","","","","","","","","","NaN",""
"","S1","","html-keyboard-response","236","284434","0.0-1.0-317.0","0","0","77485","","null","","","null","35","","","","","","","","","","","","","","","",""
"","ISI","","html-keyboard-response","237","285438","0.0-1.0-318.0","0","0","77485","","null","","","null","35","NaN","","","","","","","","","","","","","","",""
"","S2","","html-keyboard-response","238","285699","0.0-1.0-319.0","0","0","77485","","null","","","null","35","","NaN","","","","","","","","","","","","","",""
"","response","","html-keyboard-response","239","286556","0.0-1.0-320.0-0.0","0","0","77485","","854","","","68","35","","","1","35","training","adjacent","BA","2","1","L.jpg","R.jpg","0","0","1","",""
"","feedback","","html-keyboard-response","240","287561","0.0-1.0-321.0-0.0","0","0","77485","","null","","","null","35","","","","","","","","","","","","","","","",""
"","ITI","","html-keyboard-response","241","288565","0.0-1.0-324.0","0","0","77485","","null","","","null","35","","","","","","","","","","","","","","","NaN",""
"","S1","","html-keyboard-response","242","288826","0.0-1.0-326.0","0","0","77485","","null","","","null","36","","","","","","","","","","","","","","","",""
"","ISI","","html-keyboard-response","243","289829","0.0-1.0-327.0","0","0","77485","","null","","","null","36","NaN","","","","","","","","","","","","","","",""
"","S2","","html-keyboard-response","244","290098","0.0-1.0-328.0","0","0","77485","","null","","","null","36","","NaN","","","","","","","","","","","","","",""
"","response","","html-keyboard-response","245","290758","0.0-1.0-329.0-0.0","0","0","77485","","658","","","68","36","","","1","36","training","adjacent","DE","4","5","P.jpg","Q.jpg","0","1","0","",""
"","feedback","","html-keyboard-response","246","291775","0.0-1.0-330.0-0.0","0","0","77485","","null","","","null","36","","","","","","","","","","","","","","","",""
"","time_out","","html-keyboard-response","247","293787","0.0-1.0-332.0-0.0","0","0","77485","","null","","","null","36","","","","","","","","","","","","","","","",""
"","ITI","","html-keyboard-response","248","294802","0.0-1.0-333.0","0","0","77485","","null","","","null","36","","","","","","","","","","","","","","","NaN",""
"","S1","","html-keyboard-response","249","295059","0.0-1.0-335.0","0","0","77485","","null","","","null","37","","","","","","","","","","","","","","","",""
"","ISI","","html-keyboard-response","250","296064","0.0-1.0-336.0","0","0","77485","","null","","","null","37","NaN","","","","","","","","","","","","","","",""
"","S2","","html-keyboard-response","251","296332","0.0-1.0-337.0","0","0","77485","","null","","","null","37","","NaN","","","","","","","","","","","","","",""
"","response","","html-keyboard-response","252","297357","0.0-1.0-338.0-0.0","0","0","77485","","1023","","","75","37","","","1","37","training","adjacent","DC","4","3","P.jpg","N.jpg","1","0","0","",""
"","feedback","","html-keyboard-response","253","298369","0.0-1.0-339.0-0.0","0","0","77485","","null","","","null","37","","","","","","","","","","","","","","","",""
"","time_out","","html-keyboard-response","254","300378","0.0-1.0-341.0-0.0","0","0","77485","","null","","","null","37","","","","","","","","","","","","","","","",""
"","ITI","","html-keyboard-response","255","301389","0.0-1.0-342.0","0","0","77485","","null","","","null","37","","","","","","","","","","","","","","","NaN",""
"","S1","","html-keyboard-response","256","301646","0.0-1.0-344.0","0","0","77485","","null","","","null","38","","","","","","","","","","","","","","","",""
"","ISI","","html-keyboard-response","257","302655","0.0-1.0-345.0","0","0","77485","","null","","","null","38","NaN","","","","","","","","","","","","","","",""
"","S2","","html-keyboard-response","258","302918","0.0-1.0-346.0","0","0","77485","","null","","","null","38","","NaN","","","","","","","","","","","","","",""
"","response","","html-keyboard-response","259","303541","0.0-1.0-347.0-0.0","0","0","77485","","621","","","68","38","","","1","38","training","adjacent","FE","6","5","O.jpg","Q.jpg","0","0","1","",""
"","feedback","","html-keyboard-response","260","304552","0.0-1.0-348.0-0.0","0","0","77485","","null","","","null","38","","","","","","","","","","","","","","","",""
"","ITI","","html-keyboard-response","261","305563","0.0-1.0-351.0","0","0","77485","","null","","","null","38","","","","","","","","","","","","","","","NaN",""
"","S1","","html-keyboard-response","262","305819","0.0-1.0-353.0","0","0","77485","","null","","","null","39","","","","","","","","","","","","","","","",""
"","ISI","","html-keyboard-response","263","306822","0.0-1.0-354.0","0","0","77485","","null","","","null","39","NaN","","","","","","","","","","","","","","",""
"","S2","","html-keyboard-response","264","307082","0.0-1.0-355.0","0","0","77485","","null","","","null","39","","NaN","","","","","","","","","","","","","",""
"","response","","html-keyboard-response","265","307526","0.0-1.0-356.0-0.0","0","0","77485","","442","","","68","39","","","1","39","training","adjacent","AB","1","2","R.jpg","L.jpg","0","1","0","",""
"","feedback","","html-keyboard-response","266","308529","0.0-1.0-357.0-0.0","0","0","77485","","null","","","null","39","","","","","","","","","","","","","","","",""
"","time_out","","html-keyboard-response","267","310533","0.0-1.0-359.0-0.0","0","0","77485","","null","","","null","39","","","","","","","","","","","","","","","",""
"","ITI","","html-keyboard-response","268","311544","0.0-1.0-360.0","0","0","77485","","null","","","null","39","","","","","","","","","","","","","","","NaN",""
"","S1","","html-keyboard-response","269","311797","0.0-1.0-362.0","0","0","77485","","null","","","null","40","","","","","","","","","","","","","","","",""
"","ISI","","html-keyboard-response","270","312808","0.0-1.0-363.0","0","0","77485","","null","","","null","40","NaN","","","","","","","","","","","","","","",""
"","S2","","html-keyboard-response","271","313062","0.0-1.0-364.0","0","0","77485","","null","","","null","40","","NaN","","","","","","","","","","","","","",""
"","response","","html-keyboard-response","272","313211","0.0-1.0-365.0-0.0","0","0","77485","","148","","","68","40","","","1","40","training","adjacent","EF","5","6","Q.jpg","O.jpg","0","1","0","",""
"","feedback","","html-keyboard-response","273","314223","0.0-1.0-366.0-0.0","0","0","77485","","null","","","null","40","","","","","","","","","","","","","","","",""
"","time_out","","html-keyboard-response","274","316227","0.0-1.0-368.0-0.0","0","0","77485","","null","","","null","40","","","","","","","","","","","","","","","",""
"","ITI","","html-keyboard-response","275","317237","0.0-1.0-369.0","0","0","77485","","null","","","null","40","","","","","","","","","","","","","","","NaN",""
"","S1","","html-keyboard-response","276","317496","0.0-1.0-371.0","0","0","77485","","null","","","null","41","","","","","","","","","","","","","","","",""
"","ISI","","html-keyboard-response","277","318502","0.0-1.0-372.0","0","0","77485","","null","","","null","41","NaN","","","","","","","","","","","","","","",""
"","S2","","html-keyboard-response","278","318756","0.0-1.0-373.0","0","0","77485","","null","","","null","41","","NaN","","","","","","","","","","","","","",""
"","response","","html-keyboard-response","279","319412","0.0-1.0-374.0-0.0","0","0","77485","","653","","","75","41","","","1","41","training","adjacent","AB","1","2","R.jpg","L.jpg","1","1","1","",""
"","feedback","","html-keyboard-response","280","320423","0.0-1.0-375.0-0.0","0","0","77485","","null","","","null","41","","","","","","","","","","","","","","","",""
"","ITI","","html-keyboard-response","281","321430","0.0-1.0-378.0","0","0","77485","","null","","","null","41","","","","","","","","","","","","","","","NaN",""
"","S1","","html-keyboard-response","282","321690","0.0-1.0-380.0","0","0","77485","","null","","","null","42","","","","","","","","","","","","","","","",""
"","ISI","","html-keyboard-response","283","322700","0.0-1.0-381.0","0","0","77485","","null","","","null","42","NaN","","","","","","","","","","","","","","",""
"","S2","","html-keyboard-response","284","322959","0.0-1.0-382.0","0","0","77485","","null","","","null","42","","NaN","","","","","","","","","","","","","",""
"","response","","html-keyboard-response","285","323683","0.0-1.0-383.0-0.0","0","0","77485","","722","","","75","42","","","1","42","training","adjacent","BA","2","1","L.jpg","R.jpg","1","0","0","",""
"","feedback","","html-keyboard-response","286","324692","0.0-1.0-384.0-0.0","0","0","77485","","null","","","null","42","","","","","","","","","","","","","","","",""
"","time_out","","html-keyboard-response","287","326698","0.0-1.0-386.0-0.0","0","0","77485","","null","","","null","42","","","","","","","","","","","","","","","",""
"","ITI","","html-keyboard-response","288","327705","0.0-1.0-387.0","0","0","77485","","null","","","null","42","","","","","","","","","","","","","","","NaN",""
"","S1","","html-keyboard-response","289","327962","0.0-1.0-389.0","0","0","77485","","null","","","null","43","","","","","","","","","","","","","","","",""
"","ISI","","html-keyboard-response","290","328973","0.0-1.0-390.0","0","0","77485","","null","","","null","43","NaN","","","","","","","","","","","","","","",""
"","S2","","html-keyboard-response","291","329240","0.0-1.0-391.0","0","0","77485","","null","","","null","43","","NaN","","","","","","","","","","","","","",""
"","response","","html-keyboard-response","292","330011","0.0-1.0-392.0-0.0","0","0","77485","","769","","","68","43","","","1","43","training","adjacent","ED","5","4","Q.jpg","P.jpg","0","0","1","",""
"","feedback","","html-keyboard-response","293","331017","0.0-1.0-393.0-0.0","0","0","77485","","null","","","null","43","","","","","","","","","","","","","","","",""
"","ITI","","html-keyboard-response","294","332028","0.0-1.0-396.0","0","0","77485","","null","","","null","43","","","","","","","","","","","","","","","NaN",""
"","S1","","html-keyboard-response","295","332287","0.0-1.0-398.0","0","0","77485","","null","","","null","44","","","","","","","","","","","","","","","",""
"","ISI","","html-keyboard-response","296","333290","0.0-1.0-399.0","0","0","77485","","null","","","null","44","NaN","","","","","","","","","","","","","","",""
"","S2","","html-keyboard-response","297","333550","0.0-1.0-400.0","0","0","77485","","null","","","null","44","","NaN","","","","","","","","","","","","","",""
"","response","","html-keyboard-response","298","334348","0.0-1.0-401.0-0.0","0","0","77485","","796","","","68","44","","","1","44","training","adjacent","BC","2","3","L.jpg","N.jpg","0","1","0","",""
"","feedback","","html-keyboard-response","299","335354","0.0-1.0-402.0-0.0","0","0","77485","","null","","","null","44","","","","","","","","","","","","","","","",""
"","time_out","","html-keyboard-response","300","337357","0.0-1.0-404.0-0.0","0","0","77485","","null","","","null","44","","","","","","","","","","","","","","","",""
"","ITI","","html-keyboard-response","301","338362","0.0-1.0-405.0","0","0","77485","","null","","","null","44","","","","","","","","","","","","","","","NaN",""
"","S1","","html-keyboard-response","302","338621","0.0-1.0-407.0","0","0","77485","","null","","","null","45","","","","","","","","","","","","","","","",""
"","ISI","","html-keyboard-response","303","339632","0.0-1.0-408.0","0","0","77485","","null","","","null","45","NaN","","","","","","","","","","","","","","",""
"","S2","","html-keyboard-response","304","339886","0.0-1.0-409.0","0","0","77485","","null","","","null","45","","NaN","","","","","","","","","","","","","",""
"","response","","html-keyboard-response","305","340628","0.0-1.0-410.0-0.0","0","0","77485","","739","","","68","45","","","1","45","training","adjacent","AB","1","2","R.jpg","L.jpg","0","1","0","",""
"","feedback","","html-keyboard-response","306","341631","0.0-1.0-411.0-0.0","0","0","77485","","null","","","null","45","","","","","","","","","","","","","","","",""
"","time_out","","html-keyboard-response","307","343634","0.0-1.0-413.0-0.0","0","0","77485","","null","","","null","45","","","","","","","","","","","","","","","",""
"","ITI","","html-keyboard-response","308","344653","0.0-1.0-414.0","0","0","77485","","null","","","null","45","","","","","","","","","","","","","","","NaN",""
"","S1","","html-keyboard-response","309","344913","0.0-1.0-416.0","0","0","77485","","null","","","null","46","","","","","","","","","","","","","","","",""
"","ISI","","html-keyboard-response","310","345921","0.0-1.0-417.0","0","0","77485","","null","","","null","46","NaN","","","","","","","","","","","","","","",""
"","S2","","html-keyboard-response","311","346183","0.0-1.0-418.0","0","0","77485","","null","","","null","46","","NaN","","","","","","","","","","","","","",""
"","response","","html-keyboard-response","312","347210","0.0-1.0-419.0-0.0","0","0","77485","","1024","","","75","46","","","1","46","training","adjacent","CD","3","4","N.jpg","P.jpg","1","1","1","",""
"","feedback","","html-keyboard-response","313","348222","0.0-1.0-420.0-0.0","0","0","77485","","null","","","null","46","","","","","","","","","","","","","","","",""
"","ITI","","html-keyboard-response","314","349229","0.0-1.0-423.0","0","0","77485","","null","","","null","46","","","","","","","","","","","","","","","NaN",""
"","S1","","html-keyboard-response","315","349499","0.0-1.0-425.0","0","0","77485","","null","","","null","47","","","","","","","","","","","","","","","",""
"","ISI","","html-keyboard-response","316","350510","0.0-1.0-426.0","0","0","77485","","null","","","null","47","NaN","","","","","","","","","","","","","","",""
"","S2","","html-keyboard-response","317","350769","0.0-1.0-427.0","0","0","77485","","null","","","null","47","","NaN","","","","","","","","","","","","","",""
"","response","","html-keyboard-response","318","351795","0.0-1.0-428.0-0.0","0","0","77485","","1023","","","75","47","","","1","47","training","adjacent","ED","5","4","Q.jpg","P.jpg","1","0","0","",""
"","feedback","","html-keyboard-response","319","352801","0.0-1.0-429.0-0.0","0","0","77485","","null","","","null","47","","","","","","","","","","","","","","","",""
"","time_out","","html-keyboard-response","320","354807","0.0-1.0-431.0-0.0","0","0","77485","","null","","","null","47","","","","","","","","","","","","","","","",""
"","ITI","","html-keyboard-response","321","355818","0.0-1.0-432.0","0","0","77485","","null","","","null","47","","","","","","","","","","","","","","","NaN",""
"","block_over","","html-keyboard-response","322","401848","0.0-1.0-433.0-0.0","0","0","77485","","46026","","","32","47","","","","","","","","","","","","","","","",""
"","S1","","html-keyboard-response","323","402109","0.0-1.0-434.0","0","0","77485","","null","","","null","48","","","","","","","","","","","","","","","",""
"","ISI","","html-keyboard-response","324","403113","0.0-1.0-435.0","0","0","77485","","null","","","null","48","NaN","","","","","","","","","","","","","","",""
"","S2","","html-keyboard-response","325","403370","0.0-1.0-436.0","0","0","77485","","null","","","null","48","","NaN","","","","","","","","","","","","","",""
"","response","","html-keyboard-response","326","403982","0.0-1.0-437.0-0.0","0","0","77485","","610","","","75","48","","","2","48","training","adjacent","AB","1","2","R.jpg","L.jpg","1","1","1","",""
"","feedback","","html-keyboard-response","327","404988","0.0-1.0-438.0-0.0","0","0","77485","","null","","","null","48","","","","","","","","","","","","","","","",""
"","ITI","","html-keyboard-response","328","405999","0.0-1.0-441.0","0","0","77485","","null","","","null","48","","","","","","","","","","","","","","","NaN",""
"","S1","","html-keyboard-response","329","406261","0.0-1.0-443.0","0","0","77485","","null","","","null","49","","","","","","","","","","","","","","","",""
"","ISI","","html-keyboard-response","330","407266","0.0-1.0-444.0","0","0","77485","","null","","","null","49","NaN","","","","","","","","","","","","","","",""
"","S2","","html-keyboard-response","331","407521","0.0-1.0-445.0","0","0","77485","","252","","","75","49","","k","2","49","training","adjacent","DE","4","5","P.jpg","Q.jpg","1","1","1","",""
"","feedback","","html-keyboard-response","332","408527","0.0-1.0-447.0-0.0","0","0","77485","","null","","","null","49","","","","","","","","","","","","","","","",""
"","ITI","","html-keyboard-response","333","409535","0.0-1.0-450.0","0","0","77485","","null","","","null","49","","","","","","","","","","","","","","","NaN",""
"","S1","","html-keyboard-response","334","409796","0.0-1.0-452.0","0","0","77485","","null","","","null","50","","","","","","","","","","","","","","","",""
"","ISI","","html-keyboard-response","335","410802","0.0-1.0-453.0","0","0","77485","","null","","","null","50","NaN","","","","","","","","","","","","","","",""
"","S2","","html-keyboard-response","336","411062","0.0-1.0-454.0","0","0","77485","","null","","","null","50","","NaN","","","","","","","","","","","","","",""
"","response","","html-keyboard-response","337","411522","0.0-1.0-455.0-0.0","0","0","77485","","458","","","68","50","","","2","50","training","adjacent","FG","6","7","O.jpg","M.jpg","0","1","0","",""
"","feedback","","html-keyboard-response","338","412531","0.0-1.0-456.0-0.0","0","0","77485","","null","","","null","50","","","","","","","","","","","","","","","",""
"","time_out","","html-keyboard-response","339","414540","0.0-1.0-458.0-0.0","0","0","77485","","null","","","null","50","","","","","","","","","","","","","","","",""
"","ITI","","html-keyboard-response","340","415551","0.0-1.0-459.0","0","0","77485","","null","","","null","50","","","","","","","","","","","","","","","NaN",""
"","S1","","html-keyboard-response","341","415814","0.0-1.0-461.0","0","0","77485","","null","","","null","51","","","","","","","","","","","","","","","",""
"","ISI","","html-keyboard-response","342","416817","0.0-1.0-462.0","0","0","77485","","null","","","null","51","NaN","","","","","","","","","","","","","","",""
"","S2","","html-keyboard-response","343","417077","0.0-1.0-463.0","0","0","77485","","null","","","null","51","","NaN","","","","","","","","","","","","","",""
"","response","","html-keyboard-response","344","417611","0.0-1.0-464.0-0.0","0","0","77485","","533","","","75","51","","","2","51","training","adjacent","FE","6","5","O.jpg","Q.jpg","1","0","0","",""
"","feedback","","html-keyboard-response","345","418620","0.0-1.0-465.0-0.0","0","0","77485","","null","","","null","51","","","","","","","","","","","","","","","",""
"","time_out","","html-keyboard-response","346","420630","0.0-1.0-467.0-0.0","0","0","77485","","null","","","null","51","","","","","","","","","","","","","","","",""
"","ITI","","html-keyboard-response","347","421647","0.0-1.0-468.0","0","0","77485","","null","","","null","51","","","","","","","","","","","","","","","NaN",""
"","S1","","html-keyboard-response","348","421906","0.0-1.0-470.0","0","0","77485","","null","","","null","52","","","","","","","","","","","","","","","",""
"","ISI","","html-keyboard-response","349","422910","0.0-1.0-471.0","0","0","77485","","null","","","null","52","NaN","","","","","","","","","","","","","","",""
"","S2","","html-keyboard-response","350","423172","0.0-1.0-472.0","0","0","77485","","null","","","null","52","","NaN","","","","","","","","","","","","","",""
"","response","","html-keyboard-response","351","423212","0.0-1.0-473.0-0.0","0","0","77485","","37","","","68","52","","","2","52","training","adjacent","CD","3","4","N.jpg","P.jpg","0","1","0","",""
"","feedback","","html-keyboard-response","352","424218","0.0-1.0-474.0-0.0","0","0","77485","","null","","","null","52","","","","","","","","","","","","","","","",""
"","time_out","","html-keyboard-response","353","426228","0.0-1.0-476.0-0.0","0","0","77485","","null","","","null","52","","","","","","","","","","","","","","","",""
"","ITI","","html-keyboard-response","354","427231","0.0-1.0-477.0","0","0","77485","","null","","","null","52","","","","","","","","","","","","","","","NaN",""
"","S1","","html-keyboard-response","355","427497","0.0-1.0-479.0","0","0","77485","","null","","","null","53","","","","","","","","","","","","","","","",""
"","ISI","","html-keyboard-response","356","428509","0.0-1.0-480.0","0","0","77485","","null","","","null","53","NaN","","","","","","","","","","","","","","",""
"","S2","","html-keyboard-response","357","428769","0.0-1.0-481.0","0","0","77485","","null","","","null","53","","NaN","","","","","","","","","","","","","",""
"","response","","html-keyboard-response","358","429271","0.0-1.0-482.0-0.0","0","0","77485","","499","","","75","53","","","2","53","training","adjacent","EF","5","6","Q.jpg","O.jpg","1","1","1","",""
"","feedback","","html-keyboard-response","359","430277","0.0-1.0-483.0-0.0","0","0","77485","","null","","","null","53","","","","","","","","","","","","","","","",""
"","ITI","","html-keyboard-response","360","431294","0.0-1.0-486.0","0","0","77485","","426","","","68","53","","","","","","","","","","","","","","","d",""
"","S1","","html-keyboard-response","361","431553","0.0-1.0-488.0","0","0","77485","","null","","","null","54","","","","","","","","","","","","","","","",""
"","ISI","","html-keyboard-response","362","432556","0.0-1.0-489.0","0","0","77485","","null","","","null","54","NaN","","","","","","","","","","","","","","",""
"","S2","","html-keyboard-response","363","432816","0.0-1.0-490.0","0","0","77485","","null","","","null","54","","NaN","","","","","","","","","","","","","",""
"","response","","html-keyboard-response","364","433310","0.0-1.0-491.0-0.0","0","0","77485","","491","","","75","54","","","2","54","training","adjacent","ED","5","4","Q.jpg","P.jpg","1","0","0","",""
"","feedback","","html-keyboard-response","365","434317","0.0-1.0-492.0-0.0","0","0","77485","","null","","","null","54","","","","","","","","","","","","","","","",""
"","time_out","","html-keyboard-response","366","436329","0.0-1.0-494.0-0.0","0","0","77485","","null","","","null","54","","","","","","","","","","","","","","","",""
"","ITI","","html-keyboard-response","367","437334","0.0-1.0-495.0","0","0","77485","","null","","","null","54","","","","","","","","","","","","","","","NaN",""
"","S1","","html-keyboard-response","368","437593","0.0-1.0-497.0","0","0","77485","","null","","","null","55","","","","","","","","","","","","","","","",""
"","ISI","","html-keyboard-response","369","438597","0.0-1.0-498.0","0","0","77485","","null","","","null","55","NaN","","","","","","","","","","","","","","",""
"","S2","","html-keyboard-response","370","438859","0.0-1.0-499.0","0","0","77485","","null","","","null","55","","NaN","","","","","","","","","","","","","",""
"","response","","html-keyboard-response","371","439324","0.0-1.0-500.0-0.0","0","0","77485","","462","","","75","55","","","2","55","training","adjacent","DE","4","5","P.jpg","Q.jpg","1","1","1","",""
"","feedback","","html-keyboard-response","372","440338","0.0-1.0-501.0-0.0","0","0","77485","","null","","","null","55","","","","","","","","","","","","","","","",""
"","ITI","","html-keyboard-response","373","441348","0.0-1.0-504.0","0","0","77485","","null","","","null","55","","","","","","","","","","","","","","","NaN",""
"","S1","","html-keyboard-response","374","441601","0.0-1.0-506.0","0","0","77485","","null","","","null","56","","","","","","","","","","","","","","","",""
"","ISI","","html-keyboard-response","375","442620","0.0-1.0-507.0","0","0","77485","","null","","","null","56","NaN","","","","","","","","","","","","","","",""
"","S2","","html-keyboard-response","376","442878","0.0-1.0-508.0","0","0","77485","","null","","","null","56","","NaN","","","","","","","","","","","","","",""
"","response","","html-keyboard-response","377","443452","0.0-1.0-509.0-0.0","0","0","77485","","571","","","75","56","","","2","56","training","adjacent","DC","4","3","P.jpg","N.jpg","1","0","0","",""
"","feedback","","html-keyboard-response","378","444462","0.0-1.0-510.0-0.0","0","0","77485","","null","","","null","56","","","","","","","","","","","","","","","",""
"","time_out","","html-keyboard-response","379","446470","0.0-1.0-512.0-0.0","0","0","77485","","null","","","null","56","","","","","","","","","","","","","","","",""
"","ITI","","html-keyboard-response","380","447480","0.0-1.0-513.0","0","0","77485","","null","","","null","56","","","","","","","","","","","","","","","NaN",""
"","S1","","html-keyboard-response","381","447741","0.0-1.0-515.0","0","0","77485","","null","","","null","57","","","","","","","","","","","","","","","",""
"","ISI","","html-keyboard-response","382","448752","0.0-1.0-516.0","0","0","77485","","null","","","null","57","NaN","","","","","","","","","","","","","","",""
"","S2","","html-keyboard-response","383","449014","0.0-1.0-517.0","0","0","77485","","null","","","null","57","","NaN","","","","","","","","","","","","","",""
"","response","","html-keyboard-response","384","449506","0.0-1.0-518.0-0.0","0","0","77485","","490","","","68","57","","","2","57","training","adjacent","FG","6","7","O.jpg","M.jpg","0","1","0","",""
"","feedback","","html-keyboard-response","385","450514","0.0-1.0-519.0-0.0","0","0","77485","","null","","","null","57","","","","","","","","","","","","","","","",""
"","time_out","","html-keyboard-response","386","452517","0.0-1.0-521.0-0.0","0","0","77485","","null","","","null","57","","","","","","","","","","","","","","","",""
"","ITI","","html-keyboard-response","387","453524","0.0-1.0-522.0","0","0","77485","","null","","","null","57","","","","","","","","","","","","","","","NaN",""
"","S1","","html-keyboard-response","388","453780","0.0-1.0-524.0","0","0","77485","","null","","","null","58","","","","","","","","","","","","","","","",""
"","ISI","","html-keyboard-response","389","454788","0.0-1.0-525.0","0","0","77485","","null","","","null","58","NaN","","","","","","","","","","","","","","",""
"","S2","","html-keyboard-response","390","455045","0.0-1.0-526.0","0","0","77485","","null","","","null","58","","NaN","","","","","","","","","","","","","",""
"","response","","html-keyboard-response","391","455485","0.0-1.0-527.0-0.0","0","0","77485","","438","","","75","58","","","2","58","training","adjacent","GF","7","6","M.jpg","O.jpg","1","0","0","",""
"","feedback","","html-keyboard-response","392","456493","0.0-1.0-528.0-0.0","0","0","77485","","null","","","null","58","","","","","","","","","","","","","","","",""
"","time_out","","html-keyboard-response","393","458498","0.0-1.0-530.0-0.0","0","0","77485","","null","","","null","58","","","","","","","","","","","","","","","",""
"","ITI","","html-keyboard-response","394","459507","0.0-1.0-531.0","0","0","77485","","null","","","null","58","","","","","","","","","","","","","","","NaN",""
"","S1","","html-keyboard-response","395","459764","0.0-1.0-533.0","0","0","77485","","null","","","null","59","","","","","","","","","","","","","","","",""
"","ISI","","html-keyboard-response","396","460775","0.0-1.0-534.0","0","0","77485","","null","","","null","59","NaN","","","","","","","","","","","","","","",""
"","S2","","html-keyboard-response","397","461044","0.0-1.0-535.0","0","0","77485","","null","","","null","59","","NaN","","","","","","","","","","","","","",""
"","response","","html-keyboard-response","398","461526","0.0-1.0-536.0-0.0","0","0","77485","","480","","","68","59","","","2","59","training","adjacent","GF","7","6","M.jpg","O.jpg","0","0","1","",""
"","feedback","","html-keyboard-response","399","462535","0.0-1.0-537.0-0.0","0","0","77485","","null","","","null","59","","","","","","","","","","","","","","","",""
"","ITI","","html-keyboard-response","400","463543","0.0-1.0-540.0","0","0","77485","","null","","","null","59","","","","","","","","","","","","","","","NaN",""
"","S1","","html-keyboard-response","401","463804","0.0-1.0-542.0","0","0","77485","","null","","","null","60","","","","","","","","","","","","","","","",""
"","ISI","","html-keyboard-response","402","464807","0.0-1.0-543.0","0","0","77485","","null","","","null","60","NaN","","","","","","","","","","","","","","",""
"","S2","","html-keyboard-response","403","465064","0.0-1.0-544.0","0","0","77485","","null","","","null","60","","NaN","","","","","","","","","","","","","",""
"","response","","html-keyboard-response","404","465738","0.0-1.0-545.0-0.0","0","0","77485","","672","","","68","60","","","2","60","training","adjacent","GF","7","6","M.jpg","O.jpg","0","0","1","",""
"","feedback","","html-keyboard-response","405","466747","0.0-1.0-546.0-0.0","0","0","77485","","null","","","null","60","","","","","","","","","","","","","","","",""
"","ITI","","html-keyboard-response","406","467760","0.0-1.0-549.0","0","0","77485","","null","","","null","60","","","","","","","","","","","","","","","NaN",""
"","S1","","html-keyboard-response","407","468022","0.0-1.0-551.0","0","0","77485","","null","","","null","61","","","","","","","","","","","","","","","",""
"","ISI","","html-keyboard-response","408","469030","0.0-1.0-552.0","0","0","77485","","null","","","null","61","NaN","","","","","","","","","","","","","","",""
"","S2","","html-keyboard-response","409","469288","0.0-1.0-553.0","0","0","77485","","null","","","null","61","","NaN","","","","","","","","","","","","","",""
"","response","","html-keyboard-response","410","470282","0.0-1.0-554.0-0.0","0","0","77485","","991","","","68","61","","","2","61","training","adjacent","AB","1","2","R.jpg","L.jpg","0","1","0","",""
"","feedback","","html-keyboard-response","411","471291","0.0-1.0-555.0-0.0","0","0","77485","","null","","","null","61","","","","","","","","","","","","","","","",""
"","time_out","","html-keyboard-response","412","473295","0.0-1.0-557.0-0.0","0","0","77485","","null","","","null","61","","","","","","","","","","","","","","","",""
"","ITI","","html-keyboard-response","413","474300","0.0-1.0-558.0","0","0","77485","","null","","","null","61","","","","","","","","","","","","","","","NaN",""
"","S1","","html-keyboard-response","414","474560","0.0-1.0-560.0","0","0","77485","","null","","","null","62","","","","","","","","","","","","","","","",""
"","ISI","","html-keyboard-response","415","475569","0.0-1.0-561.0","0","0","77485","","null","","","null","62","NaN","","","","","","","","","","","","","","",""
"","S2","","html-keyboard-response","416","475829","0.0-1.0-562.0","0","0","77485","","null","","","null","62","","NaN","","","","","","","","","","","","","",""
"","response","","html-keyboard-response","417","476491","0.0-1.0-563.0-0.0","0","0","77485","","660","","","75","62","","","2","62","training","adjacent","FG","6","7","O.jpg","M.jpg","1","1","1","",""
"","feedback","","html-keyboard-response","418","477506","0.0-1.0-564.0-0.0","0","0","77485","","null","","","null","62","","","","","","","","","","","","","","","",""
"","ITI","","html-keyboard-response","419","478517","0.0-1.0-567.0","0","0","77485","","null","","","null","62","","","","","","","","","","","","","","","NaN",""
"","S1","","html-keyboard-response","420","478777","0.0-1.0-569.0","0","0","77485","","null","","","null","63","","","","","","","","","","","","","","","",""
"","ISI","","html-keyboard-response","421","479781","0.0-1.0-570.0","0","0","77485","","null","","","null","63","NaN","","","","","","","","","","","","","","",""
"","S2","","html-keyboard-response","422","480039","0.0-1.0-571.0","0","0","77485","","null","","","null","63","","NaN","","","","","","","","","","","","","",""
"","response","","html-keyboard-response","423","481353","0.0-1.0-572.0-0.0","0","0","77485","","1312","","","75","63","","","2","63","training","adjacent","FE","6","5","O.jpg","Q.jpg","1","0","0","",""
"","feedback","","html-keyboard-response","424","482363","0.0-1.0-573.0-0.0","0","0","77485","","null","","","null","63","","","","","","","","","","","","","","","",""
"","time_out","","html-keyboard-response","425","484371","0.0-1.0-575.0-0.0","0","0","77485","","null","","","null","63","","","","","","","","","","","","","","","",""
"","ITI","","html-keyboard-response","426","485382","0.0-1.0-576.0","0","0","77485","","null","","","null","63","","","","","","","","","","","","","","","NaN",""
"","S1","","html-keyboard-response","427","485648","0.0-1.0-578.0","0","0","77485","","null","","","null","64","","","","","","","","","","","","","","","",""
"","ISI","","html-keyboard-response","428","486659","0.0-1.0-579.0","0","0","77485","","null","","","null","64","NaN","","","","","","","","","","","","","","",""
"","S2","","html-keyboard-response","429","486913","0.0-1.0-580.0","0","0","77485","","null","","","null","64","","NaN","","","","","","","","","","","","","",""
"","response","","html-keyboard-response","430","487536","0.0-1.0-581.0-0.0","0","0","77485","","621","","","68","64","","","2","64","training","adjacent","BC","2","3","L.jpg","N.jpg","0","1","0","",""
"","feedback","","html-keyboard-response","431","488547","0.0-1.0-582.0-0.0","0","0","77485","","null","","","null","64","","","","","","","","","","","","","","","",""
"","time_out","","html-keyboard-response","432","490555","0.0-1.0-584.0-0.0","0","0","77485","","null","","","null","64","","","","","","","","","","","","","","","",""
"","ITI","","html-keyboard-response","433","491563","0.0-1.0-585.0","0","0","77485","","null","","","null","64","","","","","","","","","","","","","","","NaN",""
"","S1","","html-keyboard-response","434","491822","0.0-1.0-587.0","0","0","77485","","null","","","null","65","","","","","","","","","","","","","","","",""
"","ISI","","html-keyboard-response","435","492832","0.0-1.0-588.0","0","0","77485","","null","","","null","65","NaN","","","","","","","","","","","","","","",""
"","S2","","html-keyboard-response","436","493092","0.0-1.0-589.0","0","0","77485","","null","","","null","65","","NaN","","","","","","","","","","","","","",""
"","response","","html-keyboard-response","437","493666","0.0-1.0-590.0-0.0","0","0","77485","","572","","","75","65","","","2","65","training","adjacent","DC","4","3","P.jpg","N.jpg","1","0","0","",""
"","feedback","","html-keyboard-response","438","494680","0.0-1.0-591.0-0.0","0","0","77485","","null","","","null","65","","","","","","","","","","","","","","","",""
"","time_out","","html-keyboard-response","439","496687","0.0-1.0-593.0-0.0","0","0","77485","","null","","","null","65","","","","","","","","","","","","","","","",""
"","ITI","","html-keyboard-response","440","497696","0.0-1.0-594.0","0","0","77485","","null","","","null","65","","","","","","","","","","","","","","","NaN",""
"","S1","","html-keyboard-response","441","497950","0.0-1.0-596.0","0","0","77485","","null","","","null","66","","","","","","","","","","","","","","","",""
"","ISI","","html-keyboard-response","442","498961","0.0-1.0-597.0","0","0","77485","","null","","","null","66","NaN","","","","","","","","","","","","","","",""
"","S2","","html-keyboard-response","443","499220","0.0-1.0-598.0","0","0","77485","","null","","","null","66","","NaN","","","","","","","","","","","","","",""
"","response","","html-keyboard-response","444","499258","0.0-1.0-599.0-0.0","0","0","77485","","36","","","75","66","","","2","66","training","adjacent","EF","5","6","Q.jpg","O.jpg","1","1","1","",""
"","feedback","","html-keyboard-response","445","500270","0.0-1.0-600.0-0.0","0","0","77485","","null","","","null","66","","","","","","","","","","","","","","","",""
"","ITI","","html-keyboard-response","446","501281","0.0-1.0-603.0","0","0","77485","","null","","","null","66","","","","","","","","","","","","","","","NaN",""
"","S1","","html-keyboard-response","447","501542","0.0-1.0-605.0","0","0","77485","","null","","","null","67","","","","","","","","","","","","","","","",""
"","ISI","","html-keyboard-response","448","502546","0.0-1.0-606.0","0","0","77485","","null","","","null","67","NaN","","","","","","","","","","","","","","",""
"","S2","","html-keyboard-response","449","502814","0.0-1.0-607.0","0","0","77485","","null","","","null","67","","NaN","","","","","","","","","","","","","",""
"","response","","html-keyboard-response","450","503413","0.0-1.0-608.0-0.0","0","0","77485","","596","","","75","67","","","2","67","training","adjacent","BA","2","1","L.jpg","R.jpg","1","0","0","",""
"","feedback","","html-keyboard-response","451","504417","0.0-1.0-609.0-0.0","0","0","77485","","null","","","null","67","","","","","","","","","","","","","","","",""
"","time_out","","html-keyboard-response","452","506435","0.0-1.0-611.0-0.0","0","0","77485","","null","","","null","67","","","","","","","","","","","","","","","",""
"","ITI","","html-keyboard-response","453","507438","0.0-1.0-612.0","0","0","77485","","null","","","null","67","","","","","","","","","","","","","","","NaN",""
"","S1","","html-keyboard-response","454","507698","0.0-1.0-614.0","0","0","77485","","null","","","null","68","","","","","","","","","","","","","","","",""
"","ISI","","html-keyboard-response","455","508702","0.0-1.0-615.0","0","0","77485","","null","","","null","68","NaN","","","","","","","","","","","","","","",""
"","S2","","html-keyboard-response","456","508955","0.0-1.0-616.0","0","0","77485","","null","","","null","68","","NaN","","","","","","","","","","","","","",""
"","response","","html-keyboard-response","457","509025","0.0-1.0-617.0-0.0","0","0","77485","","68","","","68","68","","","2","68","training","adjacent","DE","4","5","P.jpg","Q.jpg","0","1","0","",""
"","feedback","","html-keyboard-response","458","510035","0.0-1.0-618.0-0.0","0","0","77485","","null","","","null","68","","","","","","","","","","","","","","","",""
"","time_out","","html-keyboard-response","459","512040","0.0-1.0-620.0-0.0","0","0","77485","","null","","","null","68","","","","","","","","","","","","","","","",""
"","ITI","","html-keyboard-response","460","513047","0.0-1.0-621.0","0","0","77485","","null","","","null","68","","","","","","","","","","","","","","","NaN",""
"","S1","","html-keyboard-response","461","513309","0.0-1.0-623.0","0","0","77485","","null","","","null","69","","","","","","","","","","","","","","","",""
"","ISI","","html-keyboard-response","462","514316","0.0-1.0-624.0","0","0","77485","","null","","","null","69","NaN","","","","","","","","","","","","","","",""
"","S2","","html-keyboard-response","463","514577","0.0-1.0-625.0","0","0","77485","","null","","","null","69","","NaN","","","","","","","","","","","","","",""
"","response","","html-keyboard-response","464","515070","0.0-1.0-626.0-0.0","0","0","77485","","491","","","68","69","","","2","69","training","adjacent","BA","2","1","L.jpg","R.jpg","0","0","1","",""
"","feedback","","html-keyboard-response","465","516075","0.0-1.0-627.0-0.0","0","0","77485","","null","","","null","69","","","","","","","","","","","","","","","",""
"","ITI","","html-keyboard-response","466","517081","0.0-1.0-630.0","0","0","77485","","null","","","null","69","","","","","","","","","","","","","","","NaN",""
"","S1","","html-keyboard-response","467","517334","0.0-1.0-632.0","0","0","77485","","null","","","null","70","","","","","","","","","","","","","","","",""
"","ISI","","html-keyboard-response","468","518337","0.0-1.0-633.0","0","0","77485","","null","","","null","70","NaN","","","","","","","","","","","","","","",""
"","S2","","html-keyboard-response","469","518596","0.0-1.0-634.0","0","0","77485","","null","","","null","70","","NaN","","","","","","","","","","","","","",""
"","response","","html-keyboard-response","470","519290","0.0-1.0-635.0-0.0","0","0","77485","","692","","","75","70","","","2","70","training","adjacent","ED","5","4","Q.jpg","P.jpg","1","0","0","",""
"","feedback","","html-keyboard-response","471","520302","0.0-1.0-636.0-0.0","0","0","77485","","null","","","null","70","","","","","","","","","","","","","","","",""
"","time_out","","html-keyboard-response","472","522306","0.0-1.0-638.0-0.0","0","0","77485","","null","","","null","70","","","","","","","","","","","","","","","",""
"","ITI","","html-keyboard-response","473","523311","0.0-1.0-639.0","0","0","77485","","null","","","null","70","","","","","","","","","","","","","","","NaN",""
"","S1","","html-keyboard-response","474","523563","0.0-1.0-641.0","0","0","77485","","null","","","null","71","","","","","","","","","","","","","","","",""
"","ISI","","html-keyboard-response","475","524568","0.0-1.0-642.0","0","0","77485","","null","","","null","71","NaN","","","","","","","","","","","","","","",""
"","S2","","html-keyboard-response","476","524820","0.0-1.0-643.0","0","0","77485","","null","","","null","71","","NaN","","","","","","","","","","","","","",""
"","response","","html-keyboard-response","477","525159","0.0-1.0-644.0-0.0","0","0","77485","","338","","","68","71","","","2","71","training","adjacent","AB","1","2","R.jpg","L.jpg","0","1","0","",""
"","feedback","","html-keyboard-response","478","526164","0.0-1.0-645.0-0.0","0","0","77485","","null","","","null","71","","","","","","","","","","","","","","","",""
"","time_out","","html-keyboard-response","479","528169","0.0-1.0-647.0-0.0","0","0","77485","","null","","","null","71","","","","","","","","","","","","","","","",""
"","ITI","","html-keyboard-response","480","529177","0.0-1.0-648.0","0","0","77485","","null","","","null","71","","","","","","","","","","","","","","","NaN",""
"","S1","","html-keyboard-response","481","529438","0.0-1.0-650.0","0","0","77485","","null","","","null","72","","","","","","","","","","","","","","","",""
"","ISI","","html-keyboard-response","482","530447","0.0-1.0-651.0","0","0","77485","","null","","","null","72","NaN","","","","","","","","","","","","","","",""
"","S2","","html-keyboard-response","483","530700","0.0-1.0-652.0","0","0","77485","","null","","","null","72","","NaN","","","","","","","","","","","","","",""
"","response","","html-keyboard-response","484","530722","0.0-1.0-653.0-0.0","0","0","77485","","19","","","75","72","","","2","72","training","adjacent","EF","5","6","Q.jpg","O.jpg","1","1","1","",""
"","feedback","","html-keyboard-response","485","531729","0.0-1.0-654.0-0.0","0","0","77485","","null","","","null","72","","","","","","","","","","","","","","","",""
"","ITI","","html-keyboard-response","486","532738","0.0-1.0-657.0","0","0","77485","","null","","","null","72","","","","","","","","","","","","","","","NaN",""
"","S1","","html-keyboard-response","487","532993","0.0-1.0-659.0","0","0","77485","","null","","","null","73","","","","","","","","","","","","","","","",""
"","ISI","","html-keyboard-response","488","533996","0.0-1.0-660.0","0","0","77485","","null","","","null","73","NaN","","","","","","","","","","","","","","",""
"","S2","","html-keyboard-response","489","534257","0.0-1.0-661.0","0","0","77485","","null","","","null","73","","NaN","","","","","","","","","","","","","",""
"","response","","html-keyboard-response","490","535792","0.0-1.0-662.0-0.0","0","0","77485","","1533","","","75","73","","","2","73","training","adjacent","CB","3","2","N.jpg","L.jpg","1","0","0","",""
"","feedback","","html-keyboard-response","491","536798","0.0-1.0-663.0-0.0","0","0","77485","","null","","","null","73","","","","","","","","","","","","","","","",""
"","time_out","","html-keyboard-response","492","538812","0.0-1.0-665.0-0.0","0","0","77485","","null","","","null","73","","","","","","","","","","","","","","","",""
"","ITI","","html-keyboard-response","493","539820","0.0-1.0-666.0","0","0","77485","","null","","","null","73","","","","","","","","","","","","","","","NaN",""
"","S1","","html-keyboard-response","494","540079","0.0-1.0-668.0","0","0","77485","","null","","","null","74","","","","","","","","","","","","","","","",""
"","ISI","","html-keyboard-response","495","541098","0.0-1.0-669.0","0","0","77485","","null","","","null","74","NaN","","","","","","","","","","","","","","",""
"","S2","","html-keyboard-response","496","541356","0.0-1.0-670.0","0","0","77485","","null","","","null","74","","NaN","","","","","","","","","","","","","",""
"","response","","html-keyboard-response","497","542120","0.0-1.0-671.0-0.0","0","0","77485","","763","","","68","74","","","2","74","training","adjacent","EF","5","6","Q.jpg","O.jpg","0","1","0","",""
"","feedback","","html-keyboard-response","498","543124","0.0-1.0-672.0-0.0","0","0","77485","","null","","","null","74","","","","","","","","","","","","","","","",""
"","time_out","","html-keyboard-response","499","545129","0.0-1.0-674.0-0.0","0","0","77485","","null","","","null","74","","","","","","","","","","","","","","","",""
"","ITI","","html-keyboard-response","500","546139","0.0-1.0-675.0","0","0","77485","","null","","","null","74","","","","","","","","","","","","","","","NaN",""
"","S1","","html-keyboard-response","501","546396","0.0-1.0-677.0","0","0","77485","","null","","","null","75","","","","","","","","","","","","","","","",""
"","ISI","","html-keyboard-response","502","547406","0.0-1.0-678.0","0","0","77485","","null","","","null","75","NaN","","","","","","","","","","","","","","",""
"","S2","","html-keyboard-response","503","547421","0.0-1.0-679.0","0","0","77485","","13","","","75","75","","k","2","75","training","adjacent","CD","3","4","N.jpg","P.jpg","1","1","1","",""
"","feedback","","html-keyboard-response","504","548427","0.0-1.0-681.0-0.0","0","0","77485","","null","","","null","75","","","","","","","","","","","","","","","",""
"","ITI","","html-keyboard-response","505","549431","0.0-1.0-684.0","0","0","77485","","null","","","null","75","","","","","","","","","","","","","","","NaN",""
"","S1","","html-keyboard-response","506","549693","0.0-1.0-686.0","0","0","77485","","null","","","null","76","","","","","","","","","","","","","","","",""
"","ISI","","html-keyboard-response","507","550696","0.0-1.0-687.0","0","0","77485","","null","","","null","76","NaN","","","","","","","","","","","","","","",""
"","S2","","html-keyboard-response","508","550950","0.0-1.0-688.0","0","0","77485","","null","","","null","76","","NaN","","","","","","","","","","","","","",""
"","response","","html-keyboard-response","509","552447","0.0-1.0-689.0-0.0","0","0","77485","","1494","","","75","76","","","2","76","training","adjacent","CB","3","2","N.jpg","L.jpg","1","0","0","",""
"","feedback","","html-keyboard-response","510","553461","0.0-1.0-690.0-0.0","0","0","77485","","null","","","null","76","","","","","","","","","","","","","","","",""
"","time_out","","html-keyboard-response","511","555471","0.0-1.0-692.0-0.0","0","0","77485","","null","","","null","76","","","","","","","","","","","","","","","",""
"","ITI","","html-keyboard-response","512","556484","0.0-1.0-693.0","0","0","77485","","null","","","null","76","","","","","","","","","","","","","","","NaN",""
"","S1","","html-keyboard-response","513","556738","0.0-1.0-695.0","0","0","77485","","null","","","null","77","","","","","","","","","","","","","","","",""
"","ISI","","html-keyboard-response","514","557747","0.0-1.0-696.0","0","0","77485","","null","","","null","77","NaN","","","","","","","","","","","","","","",""
"","S2","","html-keyboard-response","515","558001","0.0-1.0-697.0","0","0","77485","","null","","","null","77","","NaN","","","","","","","","","","","","","",""
"","response","","html-keyboard-response","516","558425","0.0-1.0-698.0-0.0","0","0","77485","","422","","","68","77","","","2","77","training","adjacent","DC","4","3","P.jpg","N.jpg","0","0","1","",""
"","feedback","","html-keyboard-response","517","559431","0.0-1.0-699.0-0.0","0","0","77485","","null","","","null","77","","","","","","","","","","","","","","","",""
"","ITI","","html-keyboard-response","518","560442","0.0-1.0-702.0","0","0","77485","","null","","","null","77","","","","","","","","","","","","","","","NaN",""
"","S1","","html-keyboard-response","519","560703","0.0-1.0-704.0","0","0","77485","","null","","","null","78","","","","","","","","","","","","","","","",""
"","ISI","","html-keyboard-response","520","561712","0.0-1.0-705.0","0","0","77485","","null","","","null","78","NaN","","","","","","","","","","","","","","",""
"","S2","","html-keyboard-response","521","561968","0.0-1.0-706.0","0","0","77485","","null","","","null","78","","NaN","","","","","","","","","","","","","",""
"","response","","html-keyboard-response","522","562735","0.0-1.0-707.0-0.0","0","0","77485","","765","","","75","78","","","2","78","training","adjacent","FE","6","5","O.jpg","Q.jpg","1","0","0","",""
"","feedback","","html-keyboard-response","523","563740","0.0-1.0-708.0-0.0","0","0","77485","","null","","","null","78","","","","","","","","","","","","","","","",""
"","time_out","","html-keyboard-response","524","565744","0.0-1.0-710.0-0.0","0","0","77485","","null","","","null","78","","","","","","","","","","","","","","","",""
"","ITI","","html-keyboard-response","525","566755","0.0-1.0-711.0","0","0","77485","","null","","","null","78","","","","","","","","","","","","","","","NaN",""
"","S1","","html-keyboard-response","526","567009","0.0-1.0-713.0","0","0","77485","","null","","","null","79","","","","","","","","","","","","","","","",""
"","ISI","","html-keyboard-response","527","568018","0.0-1.0-714.0","0","0","77485","","null","","","null","79","NaN","","","","","","","","","","","","","","",""
"","S2","","html-keyboard-response","528","568284","0.0-1.0-715.0","0","0","77485","","null","","","null","79","","NaN","","","","","","","","","","","","","",""
"","response","","html-keyboard-response","529","569004","0.0-1.0-716.0-0.0","0","0","77485","","718","","","68","79","","","2","79","training","adjacent","ED","5","4","Q.jpg","P.jpg","0","0","1","",""
"","feedback","","html-keyboard-response","530","570020","0.0-1.0-717.0-0.0","0","0","77485","","null","","","null","79","","","","","","","","","","","","","","","",""
"","ITI","","html-keyboard-response","531","571024","0.0-1.0-720.0","0","0","77485","","null","","","null","79","","","","","","","","","","","","","","","NaN",""
"","S1","","html-keyboard-response","532","571285","0.0-1.0-722.0","0","0","77485","","null","","","null","80","","","","","","","","","","","","","","","",""
"","ISI","","html-keyboard-response","533","572292","0.0-1.0-723.0","0","0","77485","","null","","","null","80","NaN","","","","","","","","","","","","","","",""
"","S2","","html-keyboard-response","534","572549","0.0-1.0-724.0","0","0","77485","","null","","","null","80","","NaN","","","","","","","","","","","","","",""
"","response","","html-keyboard-response","535","573191","0.0-1.0-725.0-0.0","0","0","77485","","641","","","68","80","","","2","80","training","adjacent","BA","2","1","L.jpg","R.jpg","0","0","1","",""
"","feedback","","html-keyboard-response","536","574200","0.0-1.0-726.0-0.0","0","0","77485","","null","","","null","80","","","","","","","","","","","","","","","",""
"","ITI","","html-keyboard-response","537","575217","0.0-1.0-729.0","0","0","77485","","null","","","null","80","","","","","","","","","","","","","","","NaN",""
"","S1","","html-keyboard-response","538","575477","0.0-1.0-731.0","0","0","77485","","null","","","null","81","","","","","","","","","","","","","","","",""
"","ISI","","html-keyboard-response","539","576484","0.0-1.0-732.0","0","0","77485","","null","","","null","81","NaN","","","","","","","","","","","","","","",""
"","S2","","html-keyboard-response","540","576743","0.0-1.0-733.0","0","0","77485","","null","","","null","81","","NaN","","","","","","","","","","","","","",""
"","response","","html-keyboard-response","541","577340","0.0-1.0-734.0-0.0","0","0","77485","","594","","","68","81","","","2","81","training","adjacent","BC","2","3","L.jpg","N.jpg","0","1","0","",""
"","feedback","","html-keyboard-response","542","578355","0.0-1.0-735.0-0.0","0","0","77485","","null","","","null","81","","","","","","","","","","","","","","","",""
"","time_out","","html-keyboard-response","543","580359","0.0-1.0-737.0-0.0","0","0","77485","","null","","","null","81","","","","","","","","","","","","","","","",""
"","ITI","","html-keyboard-response","544","581369","0.0-1.0-738.0","0","0","77485","","null","","","null","81","","","","","","","","","","","","","","","NaN",""
"","S1","","html-keyboard-response","545","581625","0.0-1.0-740.0","0","0","77485","","null","","","null","82","","","","","","","","","","","","","","","",""
"","ISI","","html-keyboard-response","546","582636","0.0-1.0-741.0","0","0","77485","","null","","","null","82","NaN","","","","","","","","","","","","","","",""
"","S2","","html-keyboard-response","547","582890","0.0-1.0-742.0","0","0","77485","","null","","","null","82","","NaN","","","","","","","","","","","","","",""
"","response","","html-keyboard-response","548","583124","0.0-1.0-743.0-0.0","0","0","77485","","232","","","68","82","","","2","82","training","adjacent","DC","4","3","P.jpg","N.jpg","0","0","1","",""
"","feedback","","html-keyboard-response","549","584136","0.0-1.0-744.0-0.0","0","0","77485","","null","","","null","82","","","","","","","","","","","","","","","",""
"","ITI","","html-keyboard-response","550","585154","0.0-1.0-747.0","0","0","77485","","null","","","null","82","","","","","","","","","","","","","","","NaN",""
"","S1","","html-keyboard-response","551","585407","0.0-1.0-749.0","0","0","77485","","null","","","null","83","","","","","","","","","","","","","","","",""
"","ISI","","html-keyboard-response","552","586417","0.0-1.0-750.0","0","0","77485","","null","","","null","83","NaN","","","","","","","","","","","","","","",""
"","S2","","html-keyboard-response","553","586683","0.0-1.0-751.0","0","0","77485","","null","","","null","83","","NaN","","","","","","","","","","","","","",""
"","response","","html-keyboard-response","554","587379","0.0-1.0-752.0-0.0","0","0","77485","","694","","","68","83","","","2","83","training","adjacent","AB","1","2","R.jpg","L.jpg","0","1","0","",""
"","feedback","","html-keyboard-response","555","588390","0.0-1.0-753.0-0.0","0","0","77485","","null","","","null","83","","","","","","","","","","","","","","","",""
"","time_out","","html-keyboard-response","556","590395","0.0-1.0-755.0-0.0","0","0","77485","","null","","","null","83","","","","","","","","","","","","","","","",""
"","ITI","","html-keyboard-response","557","591401","0.0-1.0-756.0","0","0","77485","","null","","","null","83","","","","","","","","","","","","","","","NaN",""
"","S1","","html-keyboard-response","558","591662","0.0-1.0-758.0","0","0","77485","","null","","","null","84","","","","","","","","","","","","","","","",""
"","ISI","","html-keyboard-response","559","592674","0.0-1.0-759.0","0","0","77485","","null","","","null","84","NaN","","","","","","","","","","","","","","",""
"","S2","","html-keyboard-response","560","592929","0.0-1.0-760.0","0","0","77485","","null","","","null","84","","NaN","","","","","","","","","","","","","",""
"","response","","html-keyboard-response","561","592967","0.0-1.0-761.0-0.0","0","0","77485","","37","","","68","84","","","2","84","training","adjacent","FE","6","5","O.jpg","Q.jpg","0","0","1","",""
"","feedback","","html-keyboard-response","562","593973","0.0-1.0-762.0-0.0","0","0","77485","","null","","","null","84","","","","","","","","","","","","","","","",""
"","ITI","","html-keyboard-response","563","594977","0.0-1.0-765.0","0","0","77485","","null","","","null","84","","","","","","","","","","","","","","","NaN",""
"","S1","","html-keyboard-response","564","595234","0.0-1.0-767.0","0","0","77485","","null","","","null","85","","","","","","","","","","","","","","","",""
"","ISI","","html-keyboard-response","565","596239","0.0-1.0-768.0","0","0","77485","","null","","","null","85","NaN","","","","","","","","","","","","","","",""
"","S2","","html-keyboard-response","566","596506","0.0-1.0-769.0","0","0","77485","","null","","","null","85","","NaN","","","","","","","","","","","","","",""
"","response","","html-keyboard-response","567","597152","0.0-1.0-770.0-0.0","0","0","77485","","644","","","75","85","","","2","85","training","adjacent","CD","3","4","N.jpg","P.jpg","1","1","1","",""
"","feedback","","html-keyboard-response","568","598160","0.0-1.0-771.0-0.0","0","0","77485","","null","","","null","85","","","","","","","","","","","","","","","",""
"","ITI","","html-keyboard-response","569","599166","0.0-1.0-774.0","0","0","77485","","null","","","null","85","","","","","","","","","","","","","","","NaN",""
"","S1","","html-keyboard-response","570","599432","0.0-1.0-776.0","0","0","77485","","null","","","null","86","","","","","","","","","","","","","","","",""
"","ISI","","html-keyboard-response","571","600436","0.0-1.0-777.0","0","0","77485","","null","","","null","86","NaN","","","","","","","","","","","","","","",""
"","S2","","html-keyboard-response","572","600689","0.0-1.0-778.0","0","0","77485","","null","","","null","86","","NaN","","","","","","","","","","","","","",""
"","response","","html-keyboard-response","573","601081","0.0-1.0-779.0-0.0","0","0","77485","","389","","","75","86","","","2","86","training","adjacent","CD","3","4","N.jpg","P.jpg","1","1","1","",""
"","feedback","","html-keyboard-response","574","602096","0.0-1.0-780.0-0.0","0","0","77485","","null","","","null","86","","","","","","","","","","","","","","","",""
"","ITI","","html-keyboard-response","575","603105","0.0-1.0-783.0","0","0","77485","","null","","","null","86","","","","","","","","","","","","","","","NaN",""
"","S1","","html-keyboard-response","576","603372","0.0-1.0-785.0","0","0","77485","","null","","","null","87","","","","","","","","","","","","","","","",""
"","ISI","","html-keyboard-response","577","604382","0.0-1.0-786.0","0","0","77485","","null","","","null","87","NaN","","","","","","","","","","","","","","",""
"","S2","","html-keyboard-response","578","604639","0.0-1.0-787.0","0","0","77485","","null","","","null","87","","NaN","","","","","","","","","","","","","",""
"","response","","html-keyboard-response","579","604675","0.0-1.0-788.0-0.0","0","0","77485","","34","","","75","87","","","2","87","training","adjacent","CB","3","2","N.jpg","L.jpg","1","0","0","",""
"","feedback","","html-keyboard-response","580","605684","0.0-1.0-789.0-0.0","0","0","77485","","null","","","null","87","","","","","","","","","","","","","","","",""
