"success","ttype","start_time","trial_type","trial_index","time_elapsed","internal_node_id","warning","missed_checkup","PID","view_history","rt","responses","repeat_instructions","key_press","index","keypress_isi","keypress_S2","block","trial_num","phase","group_type","pair_type","S1_stim","S2_stim","S1_img","S2_img","S1_chosen","S1_higher","accuracy","keypress_iti","total_bonus_tally"
"true","full_screen","d04072023hr0024","fullscreen","0","24454","0.0-0.0","0","0","55178","","","","","","","","","","","","","","","","","","","","","",""
"","instructions","","instructions","1","86893","0.0-1.0-0.0-0.0","0","0","55178","[{""page_index"":0,""viewing_time"":12650},{""page_index"":1,""viewing_time"":37469},{""page_index"":2,""viewing_time"":10340},{""page_index"":3,""viewing_time"":1966}]","62430","","","","","","","","","","","","","","","","","","","",""
"","comprehension_check","","survey-multi-choice","2","113018","0.0-1.0-0.0-1.0","0","0","55178","","26102","{""Q0"":""True"",""Q1"":""D"",""Q2"":""Once the second image appears and while the screen 'MAKE A CHOICE' is shown"",""Q3"":""Green mark"",""Q4"":""either D or K""}","0","","","","","","","","","","","","","","","","","",""
"","start_exp","","html-keyboard-response","3","115242","0.0-1.0-1.0","0","0","55178","","2209","","","32","","","","","","","","","","","","","","","","",""
"","S1","","html-keyboard-response","4","115402","0.0-1.0-2.0","0","0","55178","","null","","","null","0","","","","","","","","","","","","","","","",""
"","ISI","","html-keyboard-response","5","117412","0.0-1.0-3.0","0","0","55178","","null","","","null","0","NaN","","","","","","","","","","","","","","",""
"","S2","","html-keyboard-response","6","117568","0.0-1.0-4.0","0","0","55178","","null","","","null","0","","NaN","","","","","","","","","","","","","",""
"","response","","html-keyboard-response","7","118577","0.0-1.0-5.0-0.0","0","0","55178","","1004","","","68","0","","","1","0","training","adjacent","ED","5","4","P.jpg","N.jpg","1","0","0","",""
"","feedback","","html-keyboard-response","8","119593","0.0-1.0-6.0-0.0","0","0","55178","","null","","","null","0","","","","","","","","","","","","","","","",""
"","time_out","","html-keyboard-response","9","121605","0.0-1.0-8.0-0.0","0","0","55178","","null","","","null","0","","","","","","","","","","","","","","","",""
"","ITI","","html-keyboard-response","10","122612","0.0-1.0-9.0","0","0","55178","","null","","","null","0","","","","","","","","","","","","","","","NaN",""
"","S1","","html-keyboard-response","11","122773","0.0-1.0-11.0","0","0","55178","","null","","","null","1","","","","","","","","","","","","","","","",""
"","ISI","","html-keyboard-response","12","124783","0.0-1.0-12.0","0","0","55178","","530","","","75","1","k","","","","","","","","","","","","","","",""
"","S2","","html-keyboard-response","13","124953","0.0-1.0-13.0","0","0","55178","","null","","","null","1","","NaN","","","","","","","","","","","","","",""
"","response","","html-keyboard-response","14","125575","0.0-1.0-14.0-0.0","0","0","55178","","615","","","75","1","","","1","1","training","adjacent","FE","6","5","L.jpg","P.jpg","0","0","1","",""
"","feedback","","html-keyboard-response","15","126592","0.0-1.0-15.0-0.0","0","0","55178","","null","","","null","1","","","","","","","","","","","","","","","",""
"","ITI","","html-keyboard-response","16","127602","0.0-1.0-18.0","0","0","55178","","null","","","null","1","","","","","","","","","","","","","","","NaN",""
"","S1","","html-keyboard-response","17","127762","0.0-1.0-20.0","0","0","55178","","null","","","null","2","","","","","","","","","","","","","","","",""
"","ISI","","html-keyboard-response","18","129772","0.0-1.0-21.0","0","0","55178","","null","","","null","2","NaN","","","","","","","","","","","","","","",""
"","S2","","html-keyboard-response","19","129929","0.0-1.0-22.0","0","0","55178","","null","","","null","2","","NaN","","","","","","","","","","","","","",""
"","response","","html-keyboard-response","20","130672","0.0-1.0-23.0-0.0","0","0","55178","","737","","","68","2","","","1","2","training","adjacent","BC","2","3","M.jpg","O.jpg","1","1","1","",""
"","feedback","","html-keyboard-response","21","131682","0.0-1.0-24.0-0.0","0","0","55178","","null","","","null","2","","","","","","","","","","","","","","","",""
"","ITI","","html-keyboard-response","22","132699","0.0-1.0-27.0","0","0","55178","","null","","","null","2","","","","","","","","","","","","","","","NaN",""
"","S1","","html-keyboard-response","23","132862","0.0-1.0-29.0","0","0","55178","","null","","","null","3","","","","","","","","","","","","","","","",""
"","ISI","","html-keyboard-response","24","134872","0.0-1.0-30.0","0","0","55178","","null","","","null","3","NaN","","","","","","","","","","","","","","",""
"","S2","","html-keyboard-response","25","135031","0.0-1.0-31.0","0","0","55178","","null","","","null","3","","NaN","","","","","","","","","","","","","",""
"","response","","html-keyboard-response","26","135538","0.0-1.0-32.0-0.0","0","0","55178","","501","","","75","3","","","1","3","training","adjacent","FG","6","7","L.jpg","R.jpg","0","1","0","",""
"","feedback","","html-keyboard-response","27","136553","0.0-1.0-33.0-0.0","0","0","55178","","null","","","null","3","","","","","","","","","","","","","","","",""
"","time_out","","html-keyboard-response","28","138562","0.0-1.0-35.0-0.0","0","0","55178","","null","","","null","3","","","","","","","","","","","","","","","",""
"","ITI","","html-keyboard-response","29","139572","0.0-1.0-36.0","0","0","55178","","null","","","null","3","","","","","","","","","","","","","","","NaN",""
"","S1","","html-keyboard-response","30","139732","0.0-1.0-38.0","0","0","55178","","null","","","null","4","","","","","","","","","","","","","","","",""
"","ISI","","html-keyboard-response","31","141744","0.0-1.0-39.0","0","0","55178","","null","","","null","4","NaN","","","","","","","","","","","","","","",""
"","S2","","html-keyboard-response","32","141903","0.0-1.0-40.0","0","0","55178","","null","","","null","4","","NaN","","","","","","","","","","","","","",""
"","response","","html-keyboard-response","33","142444","0.0-1.0-41.0-0.0","0","0","55178","","536","","","68","4","","","1","4","training","adjacent","ED","5","4","P.jpg","N.jpg","1","0","0","",""
"","feedback","","html-keyboard-response","34","143452","0.0-1.0-42.0-0.0","0","0","55178","","null","","","null","4","","","","","","","","","","","","","","","",""
"","time_out","","html-keyboard-response","35","145462","0.0-1.0-44.0-0.0","0","0","55178","","null","","","null","4","","","","","","","","","","","","","","","",""
"","ITI","","html-keyboard-response","36","146473","0.0-1.0-45.0","0","0","55178","","null","","","null","4","","","","","","","","","","","","","","","NaN",""
"","S1","","html-keyboard-response","37","146632","0.0-1.0-47.0","0","0","55178","","null","","","null","5","","","","","","","","","","","","","","","",""
"","ISI","","html-keyboard-response","38","148642","0.0-1.0-48.0","0","0","55178","","null","","","null","5","NaN","","","","","","","","","","","","","","",""
"","S2","","html-keyboard-response","39","148802","0.0-1.0-49.0","0","0","55178","","null","","","null","5","","NaN","","","","","","","","","","","","","",""
"","response","","html-keyboard-response","40","149005","0.0-1.0-50.0-0.0","0","0","55178","","196","","","68","5","","","1","5","training","adjacent","GF","7","6","R.jpg","L.jpg","1","0","0","",""
"","feedback","","html-keyboard-response","41","150012","0.0-1.0-51.0-0.0","0","0","55178","","null","","","null","5","","","","","","","","","","","","","","","",""
"","time_out","","html-keyboard-response","42","152022","0.0-1.0-53.0-0.0","0","0","55178","","null","","","null","5","","","","","","","","","","","","","","","",""
"","ITI","","html-keyboard-response","43","153032","0.0-1.0-54.0","0","0","55178","","null","","","null","5","","","","","","","","","","","","","","","NaN",""
"","S1","","html-keyboard-response","44","153192","0.0-1.0-56.0","0","0","55178","","null","","","null","6","","","","","","","","","","","","","","","",""
"","ISI","","html-keyboard-response","45","155201","0.0-1.0-57.0","0","0","55178","","null","","","null","6","NaN","","","","","","","","","","","","","","",""
"","S2","","html-keyboard-response","46","155358","0.0-1.0-58.0","0","0","55178","","null","","","null","6","","NaN","","","","","","","","","","","","","",""
"","response","","html-keyboard-response","47","155846","0.0-1.0-59.0-0.0","0","0","55178","","483","","","75","6","","","1","6","training","adjacent","EF","5","6","P.jpg","L.jpg","0","1","0","",""
"","feedback","","html-keyboard-response","48","156859","0.0-1.0-60.0-0.0","0","0","55178","","null","","","null","6","","","","","","","","","","","","","","","",""
"","time_out","","html-keyboard-response","49","158869","0.0-1.0-62.0-0.0","0","0","55178","","null","","","null","6","","","","","","","","","","","","","","","",""
"","ITI","","html-keyboard-response","50","159880","0.0-1.0-63.0","0","0","55178","","null","","","null","6","","","","","","","","","","","","","","","NaN",""
"","S1","","html-keyboard-response","51","160040","0.0-1.0-65.0","0","0","55178","","null","","","null","7","","","","","","","","","","","","","","","",""
"","ISI","","html-keyboard-response","52","162050","0.0-1.0-66.0","0","0","55178","","null","","","null","7","NaN","","","","","","","","","","","","","","",""
"","S2","","html-keyboard-response","53","162209","0.0-1.0-67.0","0","0","55178","","null","","","null","7","","NaN","","","","","","","","","","","","","",""
"","response","","html-keyboard-response","54","162802","0.0-1.0-68.0-0.0","0","0","55178","","586","","","68","7","","","1","7","training","adjacent","CB","3","2","O.jpg","M.jpg","1","0","0","",""
"","feedback","","html-keyboard-response","55","163819","0.0-1.0-69.0-0.0","0","0","55178","","null","","","null","7","","","","","","","","","","","","","","","",""
"","time_out","","html-keyboard-response","56","165832","0.0-1.0-71.0-0.0","0","0","55178","","null","","","null","7","","","","","","","","","","","","","","","",""
"","ITI","","html-keyboard-response","57","166846","0.0-1.0-72.0","0","0","55178","","null","","","null","7","","","","","","","","","","","","","","","NaN",""
"","S1","","html-keyboard-response","58","167009","0.0-1.0-74.0","0","0","55178","","null","","","null","8","","","","","","","","","","","","","","","",""
"","ISI","","html-keyboard-response","59","169019","0.0-1.0-75.0","0","0","55178","","null","","","null","8","NaN","","","","","","","","","","","","","","",""
"","S2","","html-keyboard-response","60","169189","0.0-1.0-76.0","0","0","55178","","null","","","null","8","","NaN","","","","","","","","","","","","","",""
"","response","","html-keyboard-response","61","169693","0.0-1.0-77.0-0.0","0","0","55178","","497","","","68","8","","","1","8","training","adjacent","DE","4","5","N.jpg","P.jpg","1","1","1","",""
"","feedback","","html-keyboard-response","62","170714","0.0-1.0-78.0-0.0","0","0","55178","","null","","","null","8","","","","","","","","","","","","","","","",""
"","ITI","","html-keyboard-response","63","171743","0.0-1.0-81.0","0","0","55178","","null","","","null","8","","","","","","","","","","","","","","","NaN",""
"","S1","","html-keyboard-response","64","171910","0.0-1.0-83.0","0","0","55178","","null","","","null","9","","","","","","","","","","","","","","","",""
"","ISI","","html-keyboard-response","65","173919","0.0-1.0-84.0","0","0","55178","","null","","","null","9","NaN","","","","","","","","","","","","","","",""
"","S2","","html-keyboard-response","66","174079","0.0-1.0-85.0","0","0","55178","","null","","","null","9","","NaN","","","","","","","","","","","","","",""
"","response","","html-keyboard-response","67","174390","0.0-1.0-86.0-0.0","0","0","55178","","306","","","75","9","","","1","9","training","adjacent","FE","6","5","L.jpg","P.jpg","0","0","1","",""
"","feedback","","html-keyboard-response","68","175399","0.0-1.0-87.0-0.0","0","0","55178","","null","","","null","9","","","","","","","","","","","","","","","",""
"","ITI","","html-keyboard-response","69","176419","0.0-1.0-90.0","0","0","55178","","null","","","null","9","","","","","","","","","","","","","","","NaN",""
"","S1","","html-keyboard-response","70","176579","0.0-1.0-92.0","0","0","55178","","null","","","null","10","","","","","","","","","","","","","","","",""
"","ISI","","html-keyboard-response","71","178589","0.0-1.0-93.0","0","0","55178","","null","","","null","10","NaN","","","","","","","","","","","","","","",""
"","S2","","html-keyboard-response","72","178749","0.0-1.0-94.0","0","0","55178","","null","","","null","10","","NaN","","","","","","","","","","","","","",""
"","response","","html-keyboard-response","73","179271","0.0-1.0-95.0-0.0","0","0","55178","","516","","","68","10","","","1","10","training","adjacent","CB","3","2","O.jpg","M.jpg","1","0","0","",""
"","feedback","","html-keyboard-response","74","180289","0.0-1.0-96.0-0.0","0","0","55178","","null","","","null","10","","","","","","","","","","","","","","","",""
"","time_out","","html-keyboard-response","75","182298","0.0-1.0-98.0-0.0","0","0","55178","","null","","","null","10","","","","","","","","","","","","","","","",""
"","ITI","","html-keyboard-response","76","183319","0.0-1.0-99.0","0","0","55178","","null","","","null","10","","","","","","","","","","","","","","","NaN",""
"","S1","","html-keyboard-response","77","183479","0.0-1.0-101.0","0","0","55178","","null","","","null","11","","","","","","","","","","","","","","","",""
"","ISI","","html-keyboard-response","78","185489","0.0-1.0-102.0","0","0","55178","","null","","","null","11","NaN","","","","","","","","","","","","","","",""
"","S2","","html-keyboard-response","79","185658","0.0-1.0-103.0","0","0","55178","","null","","","null","11","","NaN","","","","","","","","","","","","","",""
"","response","","html-keyboard-response","80","186284","0.0-1.0-104.0-0.0","0","0","55178","","619","","","68","11","","","1","11","training","adjacent","ED","5","4","P.jpg","N.jpg","1","0","0","",""
"","feedback","","html-keyboard-response","81","187299","0.0-1.0-105.0-0.0","0","0","55178","","null","","","null","11","","","","","","","","","","","","","","","",""
"","time_out","","html-keyboard-response","82","189309","0.0-1.0-107.0-0.0","0","0","55178","","null","","","null","11","","","","","","","","","","","","","","","",""
"","ITI","","html-keyboard-response","83","190319","0.0-1.0-108.0","0","0","55178","","null","","","null","11","","","","","","","","","","","","","","","NaN",""
"","S1","","html-keyboard-response","84","190479","0.0-1.0-110.0","0","0","55178","","null","","","null","12","","","","","","","","","","","","","","","",""
"","ISI","","html-keyboard-response","85","192489","0.0-1.0-111.0","0","0","55178","","null","","","null","12","NaN","","","","","","","","","","","","","","",""
"","S2","","html-keyboard-response","86","192649","0.0-1.0-112.0","0","0","55178","","null","","","null","12","","NaN","","","","","","","","","","","","","",""
"","response","","html-keyboard-response","87","193077","0.0-1.0-113.0-0.0","0","0","55178","","423","","","75","12","","","1","12","training","adjacent","FG","6","7","L.jpg","R.jpg","0","1","0","",""
"","feedback","","html-keyboard-response","88","194092","0.0-1.0-114.0-0.0","0","0","55178","","null","","","null","12","","","","","","","","","","","","","","","",""
"","time_out","","html-keyboard-response","89","196098","0.0-1.0-116.0-0.0","0","0","55178","","null","","","null","12","","","","","","","","","","","","","","","",""
"","ITI","","html-keyboard-response","90","197108","0.0-1.0-117.0","0","0","55178","","null","","","null","12","","","","","","","","","","","","","","","NaN",""
"","S1","","html-keyboard-response","91","197278","0.0-1.0-119.0","0","0","55178","","null","","","null","13","","","","","","","","","","","","","","","",""
"","ISI","","html-keyboard-response","92","199288","0.0-1.0-120.0","0","0","55178","","null","","","null","13","NaN","","","","","","","","","","","","","","",""
"","S2","","html-keyboard-response","93","199451","0.0-1.0-121.0","0","0","55178","","null","","","null","13","","NaN","","","","","","","","","","","","","",""
"","response","","html-keyboard-response","94","199922","0.0-1.0-122.0-0.0","0","0","55178","","465","","","68","13","","","1","13","training","adjacent","DC","4","3","N.jpg","O.jpg","1","0","0","",""
"","feedback","","html-keyboard-response","95","200937","0.0-1.0-123.0-0.0","0","0","55178","","null","","","null","13","","","","","","","","","","","","","","","",""
"","time_out","","html-keyboard-response","96","202948","0.0-1.0-125.0-0.0","0","0","55178","","null","","","null","13","","","","","","","","","","","","","","","",""
"","ITI","","html-keyboard-response","97","203958","0.0-1.0-126.0","0","0","55178","","null","","","null","13","","","","","","","","","","","","","","","NaN",""
"","S1","","html-keyboard-response","98","204119","0.0-1.0-128.0","0","0","55178","","null","","","null","14","","","","","","","","","","","","","","","",""
"","ISI","","html-keyboard-response","99","206128","0.0-1.0-129.0","0","0","55178","","null","","","null","14","NaN","","","","","","","","","","","","","","",""
"","S2","","html-keyboard-response","100","206287","0.0-1.0-130.0","0","0","55178","","null","","","null","14","","NaN","","","","","","","","","","","","","",""
"","response","","html-keyboard-response","101","207036","0.0-1.0-131.0-0.0","0","0","55178","","743","","","75","14","","","1","14","training","adjacent","DC","4","3","N.jpg","O.jpg","0","0","1","",""
"","feedback","","html-keyboard-response","102","208048","0.0-1.0-132.0-0.0","0","0","55178","","null","","","null","14","","","","","","","","","","","","","","","",""
"","ITI","","html-keyboard-response","103","209058","0.0-1.0-135.0","0","0","55178","","null","","","null","14","","","","","","","","","","","","","","","NaN",""
"","S1","","html-keyboard-response","104","209215","0.0-1.0-137.0","0","0","55178","","null","","","null","15","","","","","","","","","","","","","","","",""
"","ISI","","html-keyboard-response","105","211228","0.0-1.0-138.0","0","0","55178","","null","","","null","15","NaN","","","","","","","","","","","","","","",""
"","S2","","html-keyboard-response","106","211388","0.0-1.0-139.0","0","0","55178","","null","","","null","15","","NaN","","","","","","","","","","","","","",""
"","response","","html-keyboard-response","107","211848","0.0-1.0-140.0-0.0","0","0","55178","","454","","","75","15","","","1","15","training","adjacent","FE","6","5","L.jpg","P.jpg","0","0","1","",""
"","feedback","","html-keyboard-response","108","212858","0.0-1.0-141.0-0.0","0","0","55178","","null","","","null","15","","","","","","","","","","","","","","","",""
"","ITI","","html-keyboard-response","109","213868","0.0-1.0-144.0","0","0","55178","","null","","","null","15","","","","","","","","","","","","","","","NaN",""
"","S1","","html-keyboard-response","110","214026","0.0-1.0-146.0","0","0","55178","","null","","","null","16","","","","","","","","","","","","","","","",""
"","ISI","","html-keyboard-response","111","216038","0.0-1.0-147.0","0","0","55178","","null","","","null","16","NaN","","","","","","","","","","","","","","",""
"","S2","","html-keyboard-response","112","216195","0.0-1.0-148.0","0","0","55178","","null","","","null","16","","NaN","","","","","","","","","","","","","",""
"","response","","html-keyboard-response","113","217547","0.0-1.0-149.0-0.0","0","0","55178","","1347","","","68","16","","","1","16","training","adjacent","BA","2","1","M.jpg","Q.jpg","1","0","0","",""
"","feedback","","html-keyboard-response","114","218569","0.0-1.0-150.0-0.0","0","0","55178","","null","","","null","16","","","","","","","","","","","","","","","",""
"","time_out","","html-keyboard-response","115","220578","0.0-1.0-152.0-0.0","0","0","55178","","null","","","null","16","","","","","","","","","","","","","","","",""
"","ITI","","html-keyboard-response","116","221593","0.0-1.0-153.0","0","0","55178","","null","","","null","16","","","","","","","","","","","","","","","NaN",""
"","S1","","html-keyboard-response","117","221758","0.0-1.0-155.0","0","0","55178","","null","","","null","17","","","","","","","","","","","","","","","",""
"","ISI","","html-keyboard-response","118","223768","0.0-1.0-156.0","0","0","55178","","null","","","null","17","NaN","","","","","","","","","","","","","","",""
"","S2","","html-keyboard-response","119","223926","0.0-1.0-157.0","0","0","55178","","null","","","null","17","","NaN","","","","","","","","","","","","","",""
"","response","","html-keyboard-response","120","224203","0.0-1.0-158.0-0.0","0","0","55178","","271","","","75","17","","","1","17","training","adjacent","CD","3","4","O.jpg","N.jpg","0","1","0","",""
"","feedback","","html-keyboard-response","121","225218","0.0-1.0-159.0-0.0","0","0","55178","","null","","","null","17","","","","","","","","","","","","","","","",""
"","time_out","","html-keyboard-response","122","227227","0.0-1.0-161.0-0.0","0","0","55178","","null","","","null","17","","","","","","","","","","","","","","","",""
"","ITI","","html-keyboard-response","123","228239","0.0-1.0-162.0","0","0","55178","","null","","","null","17","","","","","","","","","","","","","","","NaN",""
"","S1","","html-keyboard-response","124","228398","0.0-1.0-164.0","0","0","55178","","null","","","null","18","","","","","","","","","","","","","","","",""
"","ISI","","html-keyboard-response","125","230408","0.0-1.0-165.0","0","0","55178","","null","","","null","18","NaN","","","","","","","","","","","","","","",""
"","S2","","html-keyboard-response","126","230568","0.0-1.0-166.0","0","0","55178","","null","","","null","18","","NaN","","","","","","","","","","","","","",""
"","response","","html-keyboard-response","127","230966","0.0-1.0-167.0-0.0","0","0","55178","","393","","","68","18","","","1","18","training","adjacent","BA","2","1","M.jpg","Q.jpg","1","0","0","",""
"","feedback","","html-keyboard-response","128","231988","0.0-1.0-168.0-0.0","0","0","55178","","null","","","null","18","","","","","","","","","","","","","","","",""
"","time_out","","html-keyboard-response","129","234008","0.0-1.0-170.0-0.0","0","0","55178","","null","","","null","18","","","","","","","","","","","","","","","",""
"","ITI","","html-keyboard-response","130","235045","0.0-1.0-171.0","0","0","55178","","null","","","null","18","","","","","","","","","","","","","","","NaN",""
"","S1","","html-keyboard-response","131","235208","0.0-1.0-173.0","0","0","55178","","null","","","null","19","","","","","","","","","","","","","","","",""
"","ISI","","html-keyboard-response","132","237218","0.0-1.0-174.0","0","0","55178","","null","","","null","19","NaN","","","","","","","","","","","","","","",""
"","S2","","html-keyboard-response","133","237378","0.0-1.0-175.0","0","0","55178","","null","","","null","19","","NaN","","","","","","","","","","","","","",""
"","response","","html-keyboard-response","134","237730","0.0-1.0-176.0-0.0","0","0","55178","","346","","","75","19","","","1","19","training","adjacent","CD","3","4","O.jpg","N.jpg","0","1","0","",""
"","feedback","","html-keyboard-response","135","238738","0.0-1.0-177.0-0.0","0","0","55178","","null","","","null","19","","","","","","","","","","","","","","","",""
"","time_out","","html-keyboard-response","136","240748","0.0-1.0-179.0-0.0","0","0","55178","","null","","","null","19","","","","","","","","","","","","","","","",""
"","ITI","","html-keyboard-response","137","241758","0.0-1.0-180.0","0","0","55178","","null","","","null","19","","","","","","","","","","","","","","","NaN",""
"","S1","","html-keyboard-response","138","241927","0.0-1.0-182.0","0","0","55178","","null","","","null","20","","","","","","","","","","","","","","","",""
"","ISI","","html-keyboard-response","139","243938","0.0-1.0-183.0","0","0","55178","","null","","","null","20","NaN","","","","","","","","","","","","","","",""
"","S2","","html-keyboard-response","140","244098","0.0-1.0-184.0","0","0","55178","","null","","","null","20","","NaN","","","","","","","","","","","","","",""
"","response","","html-keyboard-response","141","244621","0.0-1.0-185.0-0.0","0","0","55178","","516","","","75","20","","","1","20","training","adjacent","ED","5","4","P.jpg","N.jpg","0","0","1","",""
"","feedback","","html-keyboard-response","142","245638","0.0-1.0-186.0-0.0","0","0","55178","","null","","","null","20","","","","","","","","","","","","","","","",""
"","ITI","","html-keyboard-response","143","246648","0.0-1.0-189.0","0","0","55178","","null","","","null","20","","","","","","","","","","","","","","","NaN",""
"","S1","","html-keyboard-response","144","246812","0.0-1.0-191.0","0","0","55178","","null","","","null","21","","","","","","","","","","","","","","","",""
"","ISI","","html-keyboard-response","145","248818","0.0-1.0-192.0","0","0","55178","","null","","","null","21","NaN","","","","","","","","","","","","","","",""
"","S2","","html-keyboard-response","146","248978","0.0-1.0-193.0","0","0","55178","","null","","","null","21","","NaN","","","","","","","","","","","","","",""
"","response","","html-keyboard-response","147","250510","0.0-1.0-194.0-0.0","0","0","55178","","1527","","","75","21","","","1","21","training","adjacent","FE","6","5","L.jpg","P.jpg","0","0","1","",""
"","feedback","","html-keyboard-response","148","251519","0.0-1.0-195.0-0.0","0","0","55178","","null","","","null","21","","","","","","","","","","","","","","","",""
"","ITI","","html-keyboard-response","149","252527","0.0-1.0-198.0","0","0","55178","","null","","","null","21","","","","","","","","","","","","","","","NaN",""
"","S1","","html-keyboard-response","150","252686","0.0-1.0-200.0","0","0","55178","","null","","","null","22","","","","","","","","","","","","","","","",""
"","ISI","","html-keyboard-response","151","254698","0.0-1.0-201.0","0","0","55178","","null","","","null","22","NaN","","","","","","","","","","","","","","",""
"","S2","","html-keyboard-response","152","254858","0.0-1.0-202.0","0","0","55178","","null","","","null","22","","NaN","","","","","","","","","","","","","",""
"","response","","html-keyboard-response","153","255180","0.0-1.0-203.0-0.0","0","0","55178","","316","","","68","22","","","1","22","training","adjacent","BC","2","3","M.jpg","O.jpg","1","1","1","",""
"","feedback","","html-keyboard-response","154","256195","0.0-1.0-204.0-0.0","0","0","55178","","null","","","null","22","","","","","","","","","","","","","","","",""
"","ITI","","html-keyboard-response","155","257208","0.0-1.0-207.0","0","0","55178","","null","","","null","22","","","","","","","","","","","","","","","NaN",""
"","S1","","html-keyboard-response","156","257370","0.0-1.0-209.0","0","0","55178","","null","","","null","23","","","","","","","","","","","","","","","",""
"","ISI","","html-keyboard-response","157","259379","0.0-1.0-210.0","0","0","55178","","null","","","null","23","NaN","","","","","","","","","","","","","","",""
"","S2","","html-keyboard-response","158","259549","0.0-1.0-211.0","0","0","55178","","null","","","null","23","","NaN","","","","","","","","","","","","","",""
"","response","","html-keyboard-response","159","259889","0.0-1.0-212.0-0.0","0","0","55178","","333","","","68","23","","","1","23","training","adjacent","BC","2","3","M.jpg","O.jpg","1","1","1","",""
"","feedback","","html-keyboard-response","160","260900","0.0-1.0-213.0-0.0","0","0","55178","","null","","","null","23","","","","","","","","","","","","","","","",""
"","ITI","","html-keyboard-response","161","261906","0.0-1.0-216.0","0","0","55178","","null","","","null","23","","","","","","","","","","","","","","","NaN",""
"","S1","","html-keyboard-response","162","262073","0.0-1.0-218.0","0","0","55178","","null","","","null","24","","","","","","","","","","","","","","","",""
"","ISI","","html-keyboard-response","163","264088","0.0-1.0-219.0","0","0","55178","","null","","","null","24","NaN","","","","","","","","","","","","","","",""
"","S2","","html-keyboard-response","164","264249","0.0-1.0-220.0","0","0","55178","","null","","","null","24","","NaN","","","","","","","","","","","","","",""
"","response","","html-keyboard-response","165","264753","0.0-1.0-221.0-0.0","0","0","55178","","498","","","75","24","","","1","24","training","adjacent","GF","7","6","R.jpg","L.jpg","0","0","1","",""
"","feedback","","html-keyboard-response","166","265769","0.0-1.0-222.0-0.0","0","0","55178","","null","","","null","24","","","","","","","","","","","","","","","",""
"","ITI","","html-keyboard-response","167","266789","0.0-1.0-225.0","0","0","55178","","null","","","null","24","","","","","","","","","","","","","","","NaN",""
"","S1","","html-keyboard-response","168","266949","0.0-1.0-227.0","0","0","55178","","null","","","null","25","","","","","","","","","","","","","","","",""
"","ISI","","html-keyboard-response","169","268958","0.0-1.0-228.0","0","0","55178","","null","","","null","25","NaN","","","","","","","","","","","","","","",""
"","S2","","html-keyboard-response","170","269118","0.0-1.0-229.0","0","0","55178","","null","","","null","25","","NaN","","","","","","","","","","","","","",""
"","response","","html-keyboard-response","171","269681","0.0-1.0-230.0-0.0","0","0","55178","","557","","","75","25","","","1","25","training","adjacent","DE","4","5","N.jpg","P.jpg","0","1","0","",""
"","feedback","","html-keyboard-response","172","270689","0.0-1.0-231.0-0.0","0","0","55178","","null","","","null","25","","","","","","","","","","","","","","","",""
"","time_out","","html-keyboard-response","173","272704","0.0-1.0-233.0-0.0","0","0","55178","","null","","","null","25","","","","","","","","","","","","","","","",""
"","ITI","","html-keyboard-response","174","273728","0.0-1.0-234.0","0","0","55178","","null","","","null","25","","","","","","","","","","","","","","","NaN",""
"","S1","","html-keyboard-response","175","273888","0.0-1.0-236.0","0","0","55178","","null","","","null","26","","","","","","","","","","","","","","","",""
"","ISI","","html-keyboard-response","176","275899","0.0-1.0-237.0","0","0","55178","","null","","","null","26","NaN","","","","","","","","","","","","","","",""
"","S2","","html-keyboard-response","177","276059","0.0-1.0-238.0","0","0","55178","","null","","","null","26","","NaN","","","","","","","","","","","","","",""
"","response","","html-keyboard-response","178","277063","0.0-1.0-239.0-0.0","0","0","55178","","997","","","68","26","","","1","26","training","adjacent","DC","4","3","N.jpg","O.jpg","1","0","0","",""
"","feedback","","html-keyboard-response","179","278077","0.0-1.0-240.0-0.0","0","0","55178","","null","","","null","26","","","","","","","","","","","","","","","",""
"","time_out","","html-keyboard-response","180","280089","0.0-1.0-242.0-0.0","0","0","55178","","null","","","null","26","","","","","","","","","","","","","","","",""
"","ITI","","html-keyboard-response","181","281099","0.0-1.0-243.0","0","0","55178","","null","","","null","26","","","","","","","","","","","","","","","NaN",""
"","S1","","html-keyboard-response","182","281258","0.0-1.0-245.0","0","0","55178","","null","","","null","27","","","","","","","","","","","","","","","",""
"","ISI","","html-keyboard-response","183","283273","0.0-1.0-246.0","0","0","55178","","null","","","null","27","NaN","","","","","","","","","","","","","","",""
"","S2","","html-keyboard-response","184","283440","0.0-1.0-247.0","0","0","55178","","null","","","null","27","","NaN","","","","","","","","","","","","","",""
"","response","","html-keyboard-response","185","284261","0.0-1.0-248.0-0.0","0","0","55178","","816","","","68","27","","","1","27","training","adjacent","CB","3","2","O.jpg","M.jpg","1","0","0","",""
"","feedback","","html-keyboard-response","186","285269","0.0-1.0-249.0-0.0","0","0","55178","","null","","","null","27","","","","","","","","","","","","","","","",""
"","time_out","","html-keyboard-response","187","287279","0.0-1.0-251.0-0.0","0","0","55178","","null","","","null","27","","","","","","","","","","","","","","","",""
"","ITI","","html-keyboard-response","188","288289","0.0-1.0-252.0","0","0","55178","","null","","","null","27","","","","","","","","","","","","","","","NaN",""
"","S1","","html-keyboard-response","189","288449","0.0-1.0-254.0","0","0","55178","","null","","","null","28","","","","","","","","","","","","","","","",""
"","ISI","","html-keyboard-response","190","290457","0.0-1.0-255.0","0","0","55178","","null","","","null","28","NaN","","","","","","","","","","","","","","",""
"","S2","","html-keyboard-response","191","290619","0.0-1.0-256.0","0","0","55178","","null","","","null","28","","NaN","","","","","","","","","","","","","",""
"","response","","html-keyboard-response","192","290934","0.0-1.0-257.0-0.0","0","0","55178","","309","","","75","28","","","1","28","training","adjacent","CD","3","4","O.jpg","N.jpg","0","1","0","",""
"","feedback","","html-keyboard-response","193","291949","0.0-1.0-258.0-0.0","0","0","55178","","null","","","null","28","","","","","","","","","","","","","","","",""
"","time_out","","html-keyboard-response","194","293965","0.0-1.0-260.0-0.0","0","0","55178","","null","","","null","28","","","","","","","","","","","","","","","",""
"","ITI","","html-keyboard-response","195","294978","0.0-1.0-261.0","0","0","55178","","null","","","null","28","","","","","","","","","","","","","","","NaN",""
"","S1","","html-keyboard-response","196","295139","0.0-1.0-263.0","0","0","55178","","null","","","null","29","","","","","","","","","","","","","","","",""
"","ISI","","html-keyboard-response","197","297147","0.0-1.0-264.0","0","0","55178","","null","","","null","29","NaN","","","","","","","","","","","","","","",""
"","S2","","html-keyboard-response","198","297308","0.0-1.0-265.0","0","0","55178","","null","","","null","29","","NaN","","","","","","","","","","","","","",""
"","response","","html-keyboard-response","199","297987","0.0-1.0-266.0-0.0","0","0","55178","","673","","","68","29","","","1","29","training","adjacent","DC","4","3","N.jpg","O.jpg","1","0","0","",""
"","feedback","","html-keyboard-response","200","299009","0.0-1.0-267.0-0.0","0","0","55178","","null","","","null","29","","","","","","","","","","","","","","","",""
"","time_out","","html-keyboard-response","201","301018","0.0-1.0-269.0-0.0","0","0","55178","","null","","","null","29","","","","","","","","","","","","","","","",""
"","ITI","","html-keyboard-response","202","302029","0.0-1.0-270.0","0","0","55178","","null","","","null","29","","","","","","","","","","","","","","","NaN",""
"","S1","","html-keyboard-response","203","302188","0.0-1.0-272.0","0","0","55178","","null","","","null","30","","","","","","","","","","","","","","","",""
"","ISI","","html-keyboard-response","204","304199","0.0-1.0-273.0","0","0","55178","","null","","","null","30","NaN","","","","","","","","","","","","","","",""
"","S2","","html-keyboard-response","205","304359","0.0-1.0-274.0","0","0","55178","","null","","","null","30","","NaN","","","","","","","","","","","","","",""
"","response","","html-keyboard-response","206","304754","0.0-1.0-275.0-0.0","0","0","55178","","389","","","75","30","","","1","30","training","adjacent","EF","5","6","P.jpg","L.jpg","0","1","0","",""
"","feedback","","html-keyboard-response","207","305769","0.0-1.0-276.0-0.0","0","0","55178","","null","","","null","30","","","","","","","","","","","","","","","",""
"","time_out","","html-keyboard-response","208","307779","0.0-1.0-278.0-0.0","0","0","55178","","null","","","null","30","","","","","","","","","","","","","","","",""
"","ITI","","html-keyboard-response","209","308788","0.0-1.0-279.0","0","0","55178","","null","","","null","30","","","","","","","","","","","","","","","NaN",""
"","S1","","html-keyboard-response","210","308949","0.0-1.0-281.0","0","0","55178","","null","","","null","31","","","","","","","","","","","","","","","",""
"","ISI","","html-keyboard-response","211","310959","0.0-1.0-282.0","0","0","55178","","null","","","null","31","NaN","","","","","","","","","","","","","","",""
"","S2","","html-keyboard-response","212","311119","0.0-1.0-283.0","0","0","55178","","null","","","null","31","","NaN","","","","","","","","","","","","","",""
"","response","","html-keyboard-response","213","311433","0.0-1.0-284.0-0.0","0","0","55178","","309","","","75","31","","","1","31","training","adjacent","FG","6","7","L.jpg","R.jpg","0","1","0","",""
"","feedback","","html-keyboard-response","214","312448","0.0-1.0-285.0-0.0","0","0","55178","","null","","","null","31","","","","","","","","","","","","","","","",""
"","time_out","","html-keyboard-response","215","314456","0.0-1.0-287.0-0.0","0","0","55178","","null","","","null","31","","","","","","","","","","","","","","","",""
"","ITI","","html-keyboard-response","216","315469","0.0-1.0-288.0","0","0","55178","","null","","","null","31","","","","","","","","","","","","","","","NaN",""
"","S1","","html-keyboard-response","217","315629","0.0-1.0-290.0","0","0","55178","","null","","","null","32","","","","","","","","","","","","","","","",""
"","ISI","","html-keyboard-response","218","317638","0.0-1.0-291.0","0","0","55178","","null","","","null","32","NaN","","","","","","","","","","","","","","",""
"","S2","","html-keyboard-response","219","317798","0.0-1.0-292.0","0","0","55178","","null","","","null","32","","NaN","","","","","","","","","","","","","",""
"","response","","html-keyboard-response","220","318765","0.0-1.0-293.0-0.0","0","0","55178","","962","","","75","32","","","1","32","training","adjacent","EF","5","6","P.jpg","L.jpg","0","1","0","",""
"","feedback","","html-keyboard-response","221","319773","0.0-1.0-294.0-0.0","0","0","55178","","null","","","null","32","","","","","","","","","","","","","","","",""
"","time_out","","html-keyboard-response","222","321789","0.0-1.0-296.0-0.0","0","0","55178","","null","","","null","32","","","","","","","","","","","","","","","",""
"","ITI","","html-keyboard-response","223","322798","0.0-1.0-297.0","0","0","55178","","null","","","null","32","","","","","","","","","","","","","","","NaN",""
"","S1","","html-keyboard-response","224","322958","0.0-1.0-299.0","0","0","55178","","null","","","null","33","","","","","","","","","","","","","","","",""
"","ISI","","html-keyboard-response","225","324971","0.0-1.0-300.0","0","0","55178","","null","","","null","33","NaN","","","","","","","","","","","","","","",""
"","S2","","html-keyboard-response","226","325128","0.0-1.0-301.0","0","0","55178","","null","","","null","33","","NaN","","","","","","","","","","","","","",""
"","response","","html-keyboard-response","227","325413","0.0-1.0-302.0-0.0","0","0","55178","","279","","","68","33","","","1","33","training","adjacent","GF","7","6","R.jpg","L.jpg","1","0","0","",""
"","feedback","","html-keyboard-response","228","326428","0.0-1.0-303.0-0.0","0","0","55178","","null","","","null","33","","","","","","","","","","","","","","","",""
"","time_out","","html-keyboard-response","229","328441","0.0-1.0-305.0-0.0","0","0","55178","","null","","","null","33","","","","","","","","","","","","","","","",""
"","ITI","","html-keyboard-response","230","329448","0.0-1.0-306.0","0","0","55178","","null","","","null","33","","","","","","","","","","","","","","","NaN",""
"","S1","","html-keyboard-response","231","329609","0.0-1.0-308.0","0","0","55178","","null","","","null","34","","","","","","","","","","","","","","","",""
"","ISI","","html-keyboard-response","232","331618","0.0-1.0-309.0","0","0","55178","","null","","","null","34","NaN","","","","","","","","","","","","","","",""
"","S2","","html-keyboard-response","233","331779","0.0-1.0-310.0","0","0","55178","","null","","","null","34","","NaN","","","","","","","","","","","","","",""
"","response","","html-keyboard-response","234","332303","0.0-1.0-311.0-0.0","0","0","55178","","518","","","68","34","","","1","34","training","adjacent","BA","2","1","M.jpg","Q.jpg","1","0","0","",""
"","feedback","","html-keyboard-response","235","333317","0.0-1.0-312.0-0.0","0","0","55178","","null","","","null","34","","","","","","","","","","","","","","","",""
"","time_out","","html-keyboard-response","236","335328","0.0-1.0-314.0-0.0","0","0","55178","","null","","","null","34","","","","","","","","","","","","","","","",""
"","ITI","","html-keyboard-response","237","336338","0.0-1.0-315.0","0","0","55178","","null","","","null","34","","","","","","","","","","","","","","","NaN",""
"","S1","","html-keyboard-response","238","336497","0.0-1.0-317.0","0","0","55178","","null","","","null","35","","","","","","","","","","","","","","","",""
"","ISI","","html-keyboard-response","239","338508","0.0-1.0-318.0","0","0","55178","","null","","","null","35","NaN","","","","","","","","","","","","","","",""
"","S2","","html-keyboard-response","240","338678","0.0-1.0-319.0","0","0","55178","","null","","","null","35","","NaN","","","","","","","","","","","","","",""
"","response","","html-keyboard-response","241","339050","0.0-1.0-320.0-0.0","0","0","55178","","366","","","75","35","","","1","35","training","adjacent","FG","6","7","L.jpg","R.jpg","0","1","0","",""
"","feedback","","html-keyboard-response","242","340059","0.0-1.0-321.0-0.0","0","0","55178","","null","","","null","35","","","","","","","","","","","","","","","",""
"","time_out","","html-keyboard-response","243","342068","0.0-1.0-323.0-0.0","0","0","55178","","null","","","null","35","","","","","","","","","","","","","","","",""
"","ITI","","html-keyboard-response","244","343078","0.0-1.0-324.0","0","0","55178","","null","","","null","35","","","","","","","","","","","","","","","NaN",""
"","S1","","html-keyboard-response","245","343238","0.0-1.0-326.0","0","0","55178","","null","","","null","36","","","","","","","","","","","","","","","",""
"","ISI","","html-keyboard-response","246","345251","0.0-1.0-327.0","0","0","55178","","null","","","null","36","NaN","","","","","","","","","","","","","","",""
"","S2","","html-keyboard-response","247","345418","0.0-1.0-328.0","0","0","55178","","null","","","null","36","","NaN","","","","","","","","","","","","","",""
"","response","","html-keyboard-response","248","345800","0.0-1.0-329.0-0.0","0","0","55178","","377","","","75","36","","","1","36","training","adjacent","CD","3","4","O.jpg","N.jpg","0","1","0","",""
"","feedback","","html-keyboard-response","249","346807","0.0-1.0-330.0-0.0","0","0","55178","","null","","","null","36","","","","","","","","","","","","","","","",""
"","time_out","","html-keyboard-response","250","348815","0.0-1.0-332.0-0.0","0","0","55178","","null","","","null","36","","","","","","","","","","","","","","","",""
"","ITI","","html-keyboard-response","251","349828","0.0-1.0-333.0","0","0","55178","","null","","","null","36","","","","","","","","","","","","","","","NaN",""
"","S1","","html-keyboard-response","252","349986","0.0-1.0-335.0","0","0","55178","","null","","","null","37","","","","","","","","","","","","","","","",""
"","ISI","","html-keyboard-response","253","351997","0.0-1.0-336.0","0","0","55178","","1776","","","68","37","d","","","","","","","","","","","","","","",""
"","S2","","html-keyboard-response","254","352158","0.0-1.0-337.0","0","0","55178","","null","","","null","37","","NaN","","","","","","","","","","","","","",""
"","response","","html-keyboard-response","255","353103","0.0-1.0-338.0-0.0","0","0","55178","","939","","","68","37","","","1","37","training","adjacent","AB","1","2","Q.jpg","M.jpg","1","1","1","",""
"","feedback","","html-keyboard-response","256","354119","0.0-1.0-339.0-0.0","0","0","55178","","null","","","null","37","","","","","","","","","","","","","","","",""
"","ITI","","html-keyboard-response","257","355128","0.0-1.0-342.0","0","0","55178","","null","","","null","37","","","","","","","","","","","","","","","NaN",""
"","S1","","html-keyboard-response","258","355288","0.0-1.0-344.0","0","0","55178","","null","","","null","38","","","","","","","","","","","","","","","",""
"","ISI","","html-keyboard-response","259","357298","0.0-1.0-345.0","0","0","55178","","null","","","null","38","NaN","","","","","","","","","","","","","","",""
"","S2","","html-keyboard-response","260","357458","0.0-1.0-346.0","0","0","55178","","null","","","null","38","","NaN","","","","","","","","","","","","","",""
"","response","","html-keyboard-response","261","357987","0.0-1.0-347.0-0.0","0","0","55178","","523","","","68","38","","","1","38","training","adjacent","AB","1","2","Q.jpg","M.jpg","1","1","1","",""
"","feedback","","html-keyboard-response","262","358998","0.0-1.0-348.0-0.0","0","0","55178","","null","","","null","38","","","","","","","","","","","","","","","",""
"","ITI","","html-keyboard-response","263","360007","0.0-1.0-351.0","0","0","55178","","null","","","null","38","","","","","","","","","","","","","","","NaN",""
"","S1","","html-keyboard-response","264","360168","0.0-1.0-353.0","0","0","55178","","null","","","null","39","","","","","","","","","","","","","","","",""
"","ISI","","html-keyboard-response","265","362188","0.0-1.0-354.0","0","0","55178","","null","","","null","39","NaN","","","","","","","","","","","","","","",""
"","S2","","html-keyboard-response","266","362348","0.0-1.0-355.0","0","0","55178","","null","","","null","39","","NaN","","","","","","","","","","","","","",""
"","response","","html-keyboard-response","267","362947","0.0-1.0-356.0-0.0","0","0","55178","","592","","","75","39","","","1","39","training","adjacent","DE","4","5","N.jpg","P.jpg","0","1","0","",""
"","feedback","","html-keyboard-response","268","363958","0.0-1.0-357.0-0.0","0","0","55178","","null","","","null","39","","","","","","","","","","","","","","","",""
"","time_out","","html-keyboard-response","269","365966","0.0-1.0-359.0-0.0","0","0","55178","","null","","","null","39","","","","","","","","","","","","","","","",""
"","ITI","","html-keyboard-response","270","366988","0.0-1.0-360.0","0","0","55178","","null","","","null","39","","","","","","","","","","","","","","","NaN",""
"","S1","","html-keyboard-response","271","367149","0.0-1.0-362.0","0","0","55178","","null","","","null","40","","","","","","","","","","","","","","","",""
"","ISI","","html-keyboard-response","272","369159","0.0-1.0-363.0","0","0","55178","","null","","","null","40","NaN","","","","","","","","","","","","","","",""
"","S2","","html-keyboard-response","273","369328","0.0-1.0-364.0","0","0","55178","","null","","","null","40","","NaN","","","","","","","","","","","","","",""
"","response","","html-keyboard-response","274","369699","0.0-1.0-365.0-0.0","0","0","55178","","365","","","68","40","","","1","40","training","adjacent","CB","3","2","O.jpg","M.jpg","1","0","0","",""
"","feedback","","html-keyboard-response","275","370719","0.0-1.0-366.0-0.0","0","0","55178","","null","","","null","40","","","","","","","","","","","","","","","",""
"","time_out","","html-keyboard-response","276","372731","0.0-1.0-368.0-0.0","0","0","55178","","null","","","null","40","","","","","","","","","","","","","","","",""
"","ITI","","html-keyboard-response","277","373748","0.0-1.0-369.0","0","0","55178","","null","","","null","40","","","","","","","","","","","","","","","NaN",""
"","S1","","html-keyboard-response","278","373908","0.0-1.0-371.0","0","0","55178","","null","","","null","41","","","","","","","","","","","","","","","",""
"","ISI","","html-keyboard-response","279","375919","0.0-1.0-372.0","0","0","55178","","null","","","null","41","NaN","","","","","","","","","","","","","","",""
"","S2","","html-keyboard-response","280","376078","0.0-1.0-373.0","0","0","55178","","null","","","null","41","","NaN","","","","","","","","","","","","","",""
"","response","","html-keyboard-response","281","376380","0.0-1.0-374.0-0.0","0","0","55178","","296","","","68","41","","","1","41","training","adjacent","BA","2","1","M.jpg","Q.jpg","1","0","0","",""
"","feedback","","html-keyboard-response","282","377388","0.0-1.0-375.0-0.0","0","0","55178","","null","","","null","41","","","","","","","","","","","","","","","",""
"","time_out","","html-keyboard-response","283","379397","0.0-1.0-377.0-0.0","0","0","55178","","null","","","null","41","","","","","","","","","","","","","","","",""
"","ITI","","html-keyboard-response","284","380414","0.0-1.0-378.0","0","0","55178","","null","","","null","41","","","","","","","","","","","","","","","NaN",""
"","S1","","html-keyboard-response","285","380577","0.0-1.0-380.0","0","0","55178","","null","","","null","42","","","","","","","","","","","","","","","",""
"","ISI","","html-keyboard-response","286","382587","0.0-1.0-381.0","0","0","55178","","null","","","null","42","NaN","","","","","","","","","","","","","","",""
"","S2","","html-keyboard-response","287","382746","0.0-1.0-382.0","0","0","55178","","null","","","null","42","","NaN","","","","","","","","","","","","","",""
"","response","","html-keyboard-response","288","383491","0.0-1.0-383.0-0.0","0","0","55178","","739","","","68","42","","","1","42","training","adjacent","AB","1","2","Q.jpg","M.jpg","1","1","1","",""
"","feedback","","html-keyboard-response","289","384507","0.0-1.0-384.0-0.0","0","0","55178","","null","","","null","42","","","","","","","","","","","","","","","",""
"","ITI","","html-keyboard-response","290","385517","0.0-1.0-387.0","0","0","55178","","null","","","null","42","","","","","","","","","","","","","","","NaN",""
"","S1","","html-keyboard-response","291","385677","0.0-1.0-389.0","0","0","55178","","null","","","null","43","","","","","","","","","","","","","","","",""
"","ISI","","html-keyboard-response","292","387687","0.0-1.0-390.0","0","0","55178","","null","","","null","43","NaN","","","","","","","","","","","","","","",""
"","S2","","html-keyboard-response","293","387853","0.0-1.0-391.0","0","0","55178","","null","","","null","43","","NaN","","","","","","","","","","","","","",""
"","response","","html-keyboard-response","294","388232","0.0-1.0-392.0-0.0","0","0","55178","","373","","","75","43","","","1","43","training","adjacent","DE","4","5","N.jpg","P.jpg","0","1","0","",""
"","feedback","","html-keyboard-response","295","389246","0.0-1.0-393.0-0.0","0","0","55178","","null","","","null","43","","","","","","","","","","","","","","","",""
"","time_out","","html-keyboard-response","296","391257","0.0-1.0-395.0-0.0","0","0","55178","","null","","","null","43","","","","","","","","","","","","","","","",""
"","ITI","","html-keyboard-response","297","392271","0.0-1.0-396.0","0","0","55178","","null","","","null","43","","","","","","","","","","","","","","","NaN",""
"","S1","","html-keyboard-response","298","392437","0.0-1.0-398.0","0","0","55178","","null","","","null","44","","","","","","","","","","","","","","","",""
"","ISI","","html-keyboard-response","299","394446","0.0-1.0-399.0","0","0","55178","","null","","","null","44","NaN","","","","","","","","","","","","","","",""
"","S2","","html-keyboard-response","300","394606","0.0-1.0-400.0","0","0","55178","","null","","","null","44","","NaN","","","","","","","","","","","","","",""
"","response","","html-keyboard-response","301","395160","0.0-1.0-401.0-0.0","0","0","55178","","546","","","68","44","","","1","44","training","adjacent","AB","1","2","Q.jpg","M.jpg","1","1","1","",""
"","feedback","","html-keyboard-response","302","396176","0.0-1.0-402.0-0.0","0","0","55178","","null","","","null","44","","","","","","","","","","","","","","","",""
"","ITI","","html-keyboard-response","303","397186","0.0-1.0-405.0","0","0","55178","","null","","","null","44","","","","","","","","","","","","","","","NaN",""
"","S1","","html-keyboard-response","304","397349","0.0-1.0-407.0","0","0","55178","","null","","","null","45","","","","","","","","","","","","","","","",""
"","ISI","","html-keyboard-response","305","399356","0.0-1.0-408.0","0","0","55178","","null","","","null","45","NaN","","","","","","","","","","","","","","",""
"","S2","","html-keyboard-response","306","399517","0.0-1.0-409.0","0","0","55178","","null","","","null","45","","NaN","","","","","","","","","","","","","",""
"","response","","html-keyboard-response","307","400141","0.0-1.0-410.0-0.0","0","0","55178","","617","","","75","45","","","1","45","training","adjacent","GF","7","6","R.jpg","L.jpg","0","0","1","",""
"","feedback","","html-keyboard-response","308","401156","0.0-1.0-411.0-0.0","0","0","55178","","null","","","null","45","","","","","","","","","","","","","","","",""
"","ITI","","html-keyboard-response","309","402166","0.0-1.0-414.0","0","0","55178","","null","","","null","45","","","","","","","","","","","","","","","NaN",""
"","S1","","html-keyboard-response","310","402326","0.0-1.0-416.0","0","0","55178","","null","","","null","46","","","","","","","","","","","","","","","",""
"","ISI","","html-keyboard-response","311","404336","0.0-1.0-417.0","0","0","55178","","null","","","null","46","NaN","","","","","","","","","","","","","","",""
"","S2","","html-keyboard-response","312","404496","0.0-1.0-418.0","0","0","55178","","null","","","null","46","","NaN","","","","","","","","","","","","","",""
"","response","","html-keyboard-response","313","404994","0.0-1.0-419.0-0.0","0","0","55178","","491","","","75","46","","","1","46","training","adjacent","BC","2","3","M.jpg","O.jpg","0","1","0","",""
"","feedback","","html-keyboard-response","314","406002","0.0-1.0-420.0-0.0","0","0","55178","","null","","","null","46","","","","","","","","","","","","","","","",""
"","time_out","","html-keyboard-response","315","408017","0.0-1.0-422.0-0.0","0","0","55178","","null","","","null","46","","","","","","","","","","","","","","","",""
"","ITI","","html-keyboard-response","316","409026","0.0-1.0-423.0","0","0","55178","","null","","","null","46","","","","","","","","","","","","","","","NaN",""
"","S1","","html-keyboard-response","317","409187","0.0-1.0-425.0","0","0","55178","","null","","","null","47","","","","","","","","","","","","","","","",""
"","ISI","","html-keyboard-response","318","411197","0.0-1.0-426.0","0","0","55178","","null","","","null","47","NaN","","","","","","","","","","","","","","",""
"","S2","","html-keyboard-response","319","411353","0.0-1.0-427.0","0","0","55178","","null","","","null","47","","NaN","","","","","","","","","","","","","",""
"","response","","html-keyboard-response","320","412035","0.0-1.0-428.0-0.0","0","0","55178","","677","","","75","47","","","1","47","training","adjacent","EF","5","6","P.jpg","L.jpg","0","1","0","",""
"","feedback","","html-keyboard-response","321","413046","0.0-1.0-429.0-0.0","0","0","55178","","null","","","null","47","","","","","","","","","","","","","","","",""
"","time_out","","html-keyboard-response","322","415055","0.0-1.0-431.0-0.0","0","0","55178","","null","","","null","47","","","","","","","","","","","","","","","",""
"","ITI","","html-keyboard-response","323","416067","0.0-1.0-432.0","0","0","55178","","null","","","null","47","","","","","","","","","","","","","","","NaN",""
"","block_over","","html-keyboard-response","324","422741","0.0-1.0-433.0-0.0","0","0","55178","","6666","","","32","47","","","","","","","","","","","","","","","",""
"","S1","","html-keyboard-response","325","422906","0.0-1.0-434.0","0","0","55178","","null","","","null","48","","","","","","","","","","","","","","","",""
"","ISI","","html-keyboard-response","326","424917","0.0-1.0-435.0","0","0","55178","","null","","","null","48","NaN","","","","","","","","","","","","","","",""
"","S2","","html-keyboard-response","327","425076","0.0-1.0-436.0","0","0","55178","","null","","","null","48","","NaN","","","","","","","","","","","","","",""
"","response","","html-keyboard-response","328","426041","0.0-1.0-437.0-0.0","0","0","55178","","958","","","75","48","","","2","48","training","adjacent","GF","7","6","R.jpg","L.jpg","0","0","1","",""
"","feedback","","html-keyboard-response","329","427052","0.0-1.0-438.0-0.0","0","0","55178","","null","","","null","48","","","","","","","","","","","","","","","",""
"","ITI","","html-keyboard-response","330","428066","0.0-1.0-441.0","0","0","55178","","null","","","null","48","","","","","","","","","","","","","","","NaN",""
"","S1","","html-keyboard-response","331","428227","0.0-1.0-443.0","0","0","55178","","null","","","null","49","","","","","","","","","","","","","","","",""
"","ISI","","html-keyboard-response","332","430236","0.0-1.0-444.0","0","0","55178","","null","","","null","49","NaN","","","","","","","","","","","","","","",""
"","S2","","html-keyboard-response","333","430400","0.0-1.0-445.0","0","0","55178","","null","","","null","49","","NaN","","","","","","","","","","","","","",""
"","response","","html-keyboard-response","334","430860","0.0-1.0-446.0-0.0","0","0","55178","","454","","","68","49","","","2","49","training","adjacent","BA","2","1","M.jpg","Q.jpg","1","0","0","",""
"","feedback","","html-keyboard-response","335","431876","0.0-1.0-447.0-0.0","0","0","55178","","null","","","null","49","","","","","","","","","","","","","","","",""
"","time_out","","html-keyboard-response","336","433886","0.0-1.0-449.0-0.0","0","0","55178","","null","","","null","49","","","","","","","","","","","","","","","",""
"","ITI","","html-keyboard-response","337","434906","0.0-1.0-450.0","0","0","55178","","null","","","null","49","","","","","","","","","","","","","","","NaN",""
"","S1","","html-keyboard-response","338","435064","0.0-1.0-452.0","0","0","55178","","null","","","null","50","","","","","","","","","","","","","","","",""
"","ISI","","html-keyboard-response","339","437076","0.0-1.0-453.0","0","0","55178","","null","","","null","50","NaN","","","","","","","","","","","","","","",""
"","S2","","html-keyboard-response","340","437236","0.0-1.0-454.0","0","0","55178","","null","","","null","50","","NaN","","","","","","","","","","","","","",""
"","response","","html-keyboard-response","341","438048","0.0-1.0-455.0-0.0","0","0","55178","","806","","","68","50","","","2","50","training","adjacent","DC","4","3","N.jpg","O.jpg","1","0","0","",""
"","feedback","","html-keyboard-response","342","439056","0.0-1.0-456.0-0.0","0","0","55178","","null","","","null","50","","","","","","","","","","","","","","","",""
"","time_out","","html-keyboard-response","343","441079","0.0-1.0-458.0-0.0","0","0","55178","","null","","","null","50","","","","","","","","","","","","","","","",""
"","ITI","","html-keyboard-response","344","442088","0.0-1.0-459.0","0","0","55178","","null","","","null","50","","","","","","","","","","","","","","","NaN",""
"","S1","","html-keyboard-response","345","442246","0.0-1.0-461.0","0","0","55178","","null","","","null","51","","","","","","","","","","","","","","","",""
"","ISI","","html-keyboard-response","346","444259","0.0-1.0-462.0","0","0","55178","","null","","","null","51","NaN","","","","","","","","","","","","","","",""
"","S2","","html-keyboard-response","347","444418","0.0-1.0-463.0","0","0","55178","","null","","","null","51","","NaN","","","","","","","","","","","","","",""
"","response","","html-keyboard-response","348","444885","0.0-1.0-464.0-0.0","0","0","55178","","461","","","75","51","","","2","51","training","adjacent","ED","5","4","P.jpg","N.jpg","0","0","1","",""
"","feedback","","html-keyboard-response","349","445898","0.0-1.0-465.0-0.0","0","0","55178","","null","","","null","51","","","","","","","","","","","","","","","",""
"","ITI","","html-keyboard-response","350","446919","0.0-1.0-468.0","0","0","55178","","null","","","null","51","","","","","","","","","","","","","","","NaN",""
"","S1","","html-keyboard-response","351","447077","0.0-1.0-470.0","0","0","55178","","null","","","null","52","","","","","","","","","","","","","","","",""
"","ISI","","html-keyboard-response","352","449086","0.0-1.0-471.0","0","0","55178","","null","","","null","52","NaN","","","","","","","","","","","","","","",""
"","S2","","html-keyboard-response","353","449252","0.0-1.0-472.0","0","0","55178","","null","","","null","52","","NaN","","","","","","","","","","","","","",""
"","response","","html-keyboard-response","354","449869","0.0-1.0-473.0-0.0","0","0","55178","","610","","","68","52","","","2","52","training","adjacent","CB","3","2","O.jpg","M.jpg","1","0","0","",""
"","feedback","","html-keyboard-response","355","450878","0.0-1.0-474.0-0.0","0","0","55178","","null","","","null","52","","","","","","","","","","","","","","","",""
"","time_out","","html-keyboard-response","356","452889","0.0-1.0-476.0-0.0","0","0","55178","","null","","","null","52","","","","","","","","","","","","","","","",""
"","ITI","","html-keyboard-response","357","453895","0.0-1.0-477.0","0","0","55178","","null","","","null","52","","","","","","","","","","","","","","","NaN",""
"","S1","","html-keyboard-response","358","454059","0.0-1.0-479.0","0","0","55178","","null","","","null","53","","","","","","","","","","","","","","","",""
"","ISI","","html-keyboard-response","359","456069","0.0-1.0-480.0","0","0","55178","","null","","","null","53","NaN","","","","","","","","","","","","","","",""
"","S2","","html-keyboard-response","360","456229","0.0-1.0-481.0","0","0","55178","","null","","","null","53","","NaN","","","","","","","","","","","","","",""
"","response","","html-keyboard-response","361","456643","0.0-1.0-482.0-0.0","0","0","55178","","407","","","68","53","","","2","53","training","adjacent","DE","4","5","N.jpg","P.jpg","1","1","1","",""
"","feedback","","html-keyboard-response","362","457668","0.0-1.0-483.0-0.0","0","0","55178","","null","","","null","53","","","","","","","","","","","","","","","",""
"","ITI","","html-keyboard-response","363","458678","0.0-1.0-486.0","0","0","55178","","null","","","null","53","","","","","","","","","","","","","","","NaN",""
"","S1","","html-keyboard-response","364","458848","0.0-1.0-488.0","0","0","55178","","null","","","null","54","","","","","","","","","","","","","","","",""
"","ISI","","html-keyboard-response","365","460858","0.0-1.0-489.0","0","0","55178","","null","","","null","54","NaN","","","","","","","","","","","","","","",""
"","S2","","html-keyboard-response","366","461019","0.0-1.0-490.0","0","0","55178","","null","","","null","54","","NaN","","","","","","","","","","","","","",""
"","response","","html-keyboard-response","367","461399","0.0-1.0-491.0-0.0","0","0","55178","","373","","","68","54","","","2","54","training","adjacent","DC","4","3","N.jpg","O.jpg","1","0","0","",""
"","feedback","","html-keyboard-response","368","462408","0.0-1.0-492.0-0.0","0","0","55178","","null","","","null","54","","","","","","","","","","","","","","","",""
"","time_out","","html-keyboard-response","369","464418","0.0-1.0-494.0-0.0","0","0","55178","","null","","","null","54","","","","","","","","","","","","","","","",""
"","ITI","","html-keyboard-response","370","465424","0.0-1.0-495.0","0","0","55178","","null","","","null","54","","","","","","","","","","","","","","","NaN",""
"","S1","","html-keyboard-response","371","465589","0.0-1.0-497.0","0","0","55178","","null","","","null","55","","","","","","","","","","","","","","","",""
"","ISI","","html-keyboard-response","372","467599","0.0-1.0-498.0","0","0","55178","","null","","","null","55","NaN","","","","","","","","","","","","","","",""
"","S2","","html-keyboard-response","373","467759","0.0-1.0-499.0","0","0","55178","","null","","","null","55","","NaN","","","","","","","","","","","","","",""
"","response","","html-keyboard-response","374","468267","0.0-1.0-500.0-0.0","0","0","55178","","503","","","75","55","","","2","55","training","adjacent","EF","5","6","P.jpg","L.jpg","0","1","0","",""
"","feedback","","html-keyboard-response","375","469279","0.0-1.0-501.0-0.0","0","0","55178","","null","","","null","55","","","","","","","","","","","","","","","",""
"","time_out","","html-keyboard-response","376","471288","0.0-1.0-503.0-0.0","0","0","55178","","null","","","null","55","","","","","","","","","","","","","","","",""
"","ITI","","html-keyboard-response","377","472298","0.0-1.0-504.0","0","0","55178","","null","","","null","55","","","","","","","","","","","","","","","NaN",""
"","S1","","html-keyboard-response","378","472464","0.0-1.0-506.0","0","0","55178","","null","","","null","56","","","","","","","","","","","","","","","",""
"","ISI","","html-keyboard-response","379","474479","0.0-1.0-507.0","0","0","55178","","null","","","null","56","NaN","","","","","","","","","","","","","","",""
"","S2","","html-keyboard-response","380","474638","0.0-1.0-508.0","0","0","55178","","null","","","null","56","","NaN","","","","","","","","","","","","","",""
"","response","","html-keyboard-response","381","474921","0.0-1.0-509.0-0.0","0","0","55178","","276","","","75","56","","","2","56","training","adjacent","BC","2","3","M.jpg","O.jpg","0","1","0","",""
"","feedback","","html-keyboard-response","382","475939","0.0-1.0-510.0-0.0","0","0","55178","","null","","","null","56","","","","","","","","","","","","","","","",""
"","time_out","","html-keyboard-response","383","477946","0.0-1.0-512.0-0.0","0","0","55178","","null","","","null","56","","","","","","","","","","","","","","","",""
"","ITI","","html-keyboard-response","384","478968","0.0-1.0-513.0","0","0","55178","","null","","","null","56","","","","","","","","","","","","","","","NaN",""
"","S1","","html-keyboard-response","385","479127","0.0-1.0-515.0","0","0","55178","","null","","","null","57","","","","","","","","","","","","","","","",""
"","ISI","","html-keyboard-response","386","481139","0.0-1.0-516.0","0","0","55178","","null","","","null","57","NaN","","","","","","","","","","","","","","",""
"","S2","","html-keyboard-response","387","481299","0.0-1.0-517.0","0","0","55178","","null","","","null","57","","NaN","","","","","","","","","","","","","",""
"","response","","html-keyboard-response","388","481557","0.0-1.0-518.0-0.0","0","0","55178","","251","","","75","57","","","2","57","training","adjacent","FE","6","5","L.jpg","P.jpg","0","0","1","",""
"","feedback","","html-keyboard-response","389","482578","0.0-1.0-519.0-0.0","0","0","55178","","null","","","null","57","","","","","","","","","","","","","","","",""
"","ITI","","html-keyboard-response","390","483598","0.0-1.0-522.0","0","0","55178","","null","","","null","57","","","","","","","","","","","","","","","NaN",""
"","S1","","html-keyboard-response","391","483759","0.0-1.0-524.0","0","0","55178","","null","","","null","58","","","","","","","","","","","","","","","",""
"","ISI","","html-keyboard-response","392","485766","0.0-1.0-525.0","0","0","55178","","null","","","null","58","NaN","","","","","","","","","","","","","","",""
"","S2","","html-keyboard-response","393","485924","0.0-1.0-526.0","0","0","55178","","null","","","null","58","","NaN","","","","","","","","","","","","","",""
"","response","","html-keyboard-response","394","486868","0.0-1.0-527.0-0.0","0","0","55178","","938","","","75","58","","","2","58","training","adjacent","BA","2","1","M.jpg","Q.jpg","0","0","1","",""
"","feedback","","html-keyboard-response","395","487888","0.0-1.0-528.0-0.0","0","0","55178","","null","","","null","58","","","","","","","","","","","","","","","",""
"","ITI","","html-keyboard-response","396","488906","0.0-1.0-531.0","0","0","55178","","null","","","null","58","","","","","","","","","","","","","","","NaN",""
"","S1","","html-keyboard-response","397","489072","0.0-1.0-533.0","0","0","55178","","null","","","null","59","","","","","","","","","","","","","","","",""
"","ISI","","html-keyboard-response","398","491081","0.0-1.0-534.0","0","0","55178","","null","","","null","59","NaN","","","","","","","","","","","","","","",""
"","S2","","html-keyboard-response","399","491243","0.0-1.0-535.0","0","0","55178","","null","","","null","59","","NaN","","","","","","","","","","","","","",""
"","response","","html-keyboard-response","400","491513","0.0-1.0-536.0-0.0","0","0","55178","","262","","","68","59","","","2","59","training","adjacent","DC","4","3","N.jpg","O.jpg","1","0","0","",""
"","feedback","","html-keyboard-response","401","492524","0.0-1.0-537.0-0.0","0","0","55178","","null","","","null","59","","","","","","","","","","","","","","","",""
"","time_out","","html-keyboard-response","402","494536","0.0-1.0-539.0-0.0","0","0","55178","","null","","","null","59","","","","","","","","","","","","","","","",""
"","ITI","","html-keyboard-response","403","495545","0.0-1.0-540.0","0","0","55178","","null","","","null","59","","","","","","","","","","","","","","","NaN",""
"","S1","","html-keyboard-response","404","495703","0.0-1.0-542.0","0","0","55178","","null","","","null","60","","","","","","","","","","","","","","","",""
"","ISI","","html-keyboard-response","405","497715","0.0-1.0-543.0","0","0","55178","","null","","","null","60","NaN","","","","","","","","","","","","","","",""
"","S2","","html-keyboard-response","406","497876","0.0-1.0-544.0","0","0","55178","","null","","","null","60","","NaN","","","","","","","","","","","","","",""
"","response","","html-keyboard-response","407","498232","0.0-1.0-545.0-0.0","0","0","55178","","349","","","68","60","","","2","60","training","adjacent","GF","7","6","R.jpg","L.jpg","1","0","0","",""
"","feedback","","html-keyboard-response","408","499246","0.0-1.0-546.0-0.0","0","0","55178","","null","","","null","60","","","","","","","","","","","","","","","",""
"","time_out","","html-keyboard-response","409","501254","0.0-1.0-548.0-0.0","0","0","55178","","null","","","null","60","","","","","","","","","","","","","","","",""
"","ITI","","html-keyboard-response","410","502265","0.0-1.0-549.0","0","0","55178","","null","","","null","60","","","","","","","","","","","","","","","NaN",""
"","S1","","html-keyboard-response","411","502435","0.0-1.0-551.0","0","0","55178","","null","","","null","61","","","","","","","","","","","","","","","",""
"","ISI","","html-keyboard-response","412","504445","0.0-1.0-552.0","0","0","55178","","null","","","null","61","NaN","","","","","","","","","","","","","","",""
"","S2","","html-keyboard-response","413","504605","0.0-1.0-553.0","0","0","55178","","null","","","null","61","","NaN","","","","","","","","","","","","","",""
"","response","","html-keyboard-response","414","505099","0.0-1.0-554.0-0.0","0","0","55178","","488","","","68","61","","","2","61","training","adjacent","FG","6","7","L.jpg","R.jpg","1","1","1","",""
"","feedback","","html-keyboard-response","415","506113","0.0-1.0-555.0-0.0","0","0","55178","","null","","","null","61","","","","","","","","","","","","","","","",""
"","ITI","","html-keyboard-response","416","507126","0.0-1.0-558.0","0","0","55178","","null","","","null","61","","","","","","","","","","","","","","","NaN",""
"","S1","","html-keyboard-response","417","507295","0.0-1.0-560.0","0","0","55178","","null","","","null","62","","","","","","","","","","","","","","","",""
"","ISI","","html-keyboard-response","418","509304","0.0-1.0-561.0","0","0","55178","","null","","","null","62","NaN","","","","","","","","","","","","","","",""
"","S2","","html-keyboard-response","419","509462","0.0-1.0-562.0","0","0","55178","","null","","","null","62","","NaN","","","","","","","","","","","","","",""
"","response","","html-keyboard-response","420","510629","0.0-1.0-563.0-0.0","0","0","55178","","1161","","","68","62","","","2","62","training","adjacent","AB","1","2","Q.jpg","M.jpg","1","1","1","",""
"","feedback","","html-keyboard-response","421","511645","0.0-1.0-564.0-0.0","0","0","55178","","null","","","null","62","","","","","","","","","","","","","","","",""
"","ITI","","html-keyboard-response","422","512661","0.0-1.0-567.0","0","0","55178","","null","","","null","62","","","","","","","","","","","","","","","NaN",""
"","S1","","html-keyboard-response","423","512825","0.0-1.0-569.0","0","0","55178","","null","","","null","63","","","","","","","","","","","","","","","",""
"","ISI","","html-keyboard-response","424","514834","0.0-1.0-570.0","0","0","55178","","null","","","null","63","NaN","","","","","","","","","","","","","","",""
"","S2","","html-keyboard-response","425","515005","0.0-1.0-571.0","0","0","55178","","null","","","null","63","","NaN","","","","","","","","","","","","","",""
"","response","","html-keyboard-response","426","516016","0.0-1.0-572.0-0.0","0","0","55178","","1005","","","68","63","","","2","63","training","adjacent","FE","6","5","L.jpg","P.jpg","1","0","0","",""
"","feedback","","html-keyboard-response","427","517025","0.0-1.0-573.0-0.0","0","0","55178","","null","","","null","63","","","","","","","","","","","","","","","",""
"","time_out","","html-keyboard-response","428","519035","0.0-1.0-575.0-0.0","0","0","55178","","null","","","null","63","","","","","","","","","","","","","","","",""
"","ITI","","html-keyboard-response","429","520044","0.0-1.0-576.0","0","0","55178","","null","","","null","63","","","","","","","","","","","","","","","NaN",""
"","S1","","html-keyboard-response","430","520205","0.0-1.0-578.0","0","0","55178","","null","","","null","64","","","","","","","","","","","","","","","",""
"","ISI","","html-keyboard-response","431","522215","0.0-1.0-579.0","0","0","55178","","null","","","null","64","NaN","","","","","","","","","","","","","","",""
"","S2","","html-keyboard-response","432","522385","0.0-1.0-580.0","0","0","55178","","null","","","null","64","","NaN","","","","","","","","","","","","","",""
"","response","","html-keyboard-response","433","523396","0.0-1.0-581.0-0.0","0","0","55178","","1005","","","68","64","","","2","64","training","adjacent","CD","3","4","O.jpg","N.jpg","1","1","1","",""
"","feedback","","html-keyboard-response","434","524405","0.0-1.0-582.0-0.0","0","0","55178","","null","","","null","64","","","","","","","","","","","","","","","",""
"","ITI","","html-keyboard-response","435","525413","0.0-1.0-585.0","0","0","55178","","null","","","null","64","","","","","","","","","","","","","","","NaN",""
"","S1","","html-keyboard-response","436","525578","0.0-1.0-587.0","0","0","55178","","null","","","null","65","","","","","","","","","","","","","","","",""
"","ISI","","html-keyboard-response","437","527585","0.0-1.0-588.0","0","0","55178","","null","","","null","65","NaN","","","","","","","","","","","","","","",""
"","S2","","html-keyboard-response","438","527745","0.0-1.0-589.0","0","0","55178","","null","","","null","65","","NaN","","","","","","","","","","","","","",""
"","response","","html-keyboard-response","439","528454","0.0-1.0-590.0-0.0","0","0","55178","","703","","","68","65","","","2","65","training","adjacent","CB","3","2","O.jpg","M.jpg","1","0","0","",""
"","feedback","","html-keyboard-response","440","529465","0.0-1.0-591.0-0.0","0","0","55178","","null","","","null","65","","","","","","","","","","","","","","","",""
"","time_out","","html-keyboard-response","441","531475","0.0-1.0-593.0-0.0","0","0","55178","","null","","","null","65","","","","","","","","","","","","","","","",""
"","ITI","","html-keyboard-response","442","532484","0.0-1.0-594.0","0","0","55178","","null","","","null","65","","","","","","","","","","","","","","","NaN",""
"","S1","","html-keyboard-response","443","532645","0.0-1.0-596.0","0","0","55178","","null","","","null","66","","","","","","","","","","","","","","","",""
"","ISI","","html-keyboard-response","444","534654","0.0-1.0-597.0","0","0","55178","","null","","","null","66","NaN","","","","","","","","","","","","","","",""
"","S2","","html-keyboard-response","445","534815","0.0-1.0-598.0","0","0","55178","","null","","","null","66","","NaN","","","","","","","","","","","","","",""
"","response","","html-keyboard-response","446","535360","0.0-1.0-599.0-0.0","0","0","55178","","539","","","75","66","","","2","66","training","adjacent","BC","2","3","M.jpg","O.jpg","0","1","0","",""
"","feedback","","html-keyboard-response","447","536375","0.0-1.0-600.0-0.0","0","0","55178","","null","","","null","66","","","","","","","","","","","","","","","",""
"","time_out","","html-keyboard-response","448","538385","0.0-1.0-602.0-0.0","0","0","55178","","null","","","null","66","","","","","","","","","","","","","","","",""
"","ITI","","html-keyboard-response","449","539395","0.0-1.0-603.0","0","0","55178","","null","","","null","66","","","","","","","","","","","","","","","NaN",""
"","S1","","html-keyboard-response","450","539554","0.0-1.0-605.0","0","0","55178","","null","","","null","67","","","","","","","","","","","","","","","",""
"","ISI","","html-keyboard-response","451","541564","0.0-1.0-606.0","0","0","55178","","null","","","null","67","NaN","","","","","","","","","","","","","","",""
"","S2","","html-keyboard-response","452","541729","0.0-1.0-607.0","0","0","55178","","null","","","null","67","","NaN","","","","","","","","","","","","","",""
"","response","","html-keyboard-response","453","542137","0.0-1.0-608.0-0.0","0","0","55178","","402","","","75","67","","","2","67","training","adjacent","DE","4","5","N.jpg","P.jpg","0","1","0","",""
"","feedback","","html-keyboard-response","454","543155","0.0-1.0-609.0-0.0","0","0","55178","","null","","","null","67","","","","","","","","","","","","","","","",""
"","time_out","","html-keyboard-response","455","545170","0.0-1.0-611.0-0.0","0","0","55178","","null","","","null","67","","","","","","","","","","","","","","","",""
"","ITI","","html-keyboard-response","456","546184","0.0-1.0-612.0","0","0","55178","","null","","","null","67","","","","","","","","","","","","","","","NaN",""
"","S1","","html-keyboard-response","457","546343","0.0-1.0-614.0","0","0","55178","","null","","","null","68","","","","","","","","","","","","","","","",""
"","ISI","","html-keyboard-response","458","548356","0.0-1.0-615.0","0","0","55178","","null","","","null","68","NaN","","","","","","","","","","","","","","",""
"","S2","","html-keyboard-response","459","548515","0.0-1.0-616.0","0","0","55178","","null","","","null","68","","NaN","","","","","","","","","","","","","",""
"","response","","html-keyboard-response","460","550126","0.0-1.0-617.0-0.0","0","0","55178","","1605","","","75","68","","","2","68","training","adjacent","BA","2","1","M.jpg","Q.jpg","0","0","1","",""
"","feedback","","html-keyboard-response","461","551145","0.0-1.0-618.0-0.0","0","0","55178","","null","","","null","68","","","","","","","","","","","","","","","",""
"","ITI","","html-keyboard-response","462","552157","0.0-1.0-621.0","0","0","55178","","null","","","null","68","","","","","","","","","","","","","","","NaN",""
"","S1","","html-keyboard-response","463","552315","0.0-1.0-623.0","0","0","55178","","null","","","null","69","","","","","","","","","","","","","","","",""
"","ISI","","html-keyboard-response","464","554328","0.0-1.0-624.0","0","0","55178","","null","","","null","69","NaN","","","","","","","","","","","","","","",""
"","S2","","html-keyboard-response","465","554495","0.0-1.0-625.0","0","0","55178","","null","","","null","69","","NaN","","","","","","","","","","","","","",""
"","response","","html-keyboard-response","466","555001","0.0-1.0-626.0-0.0","0","0","55178","","500","","","75","69","","","2","69","training","adjacent","BA","2","1","M.jpg","Q.jpg","0","0","1","",""
"","feedback","","html-keyboard-response","467","556015","0.0-1.0-627.0-0.0","0","0","55178","","null","","","null","69","","","","","","","","","","","","","","","",""
"","ITI","","html-keyboard-response","468","557025","0.0-1.0-630.0","0","0","55178","","null","","","null","69","","","","","","","","","","","","","","","NaN",""
"","S1","","html-keyboard-response","469","557183","0.0-1.0-632.0","0","0","55178","","null","","","null","70","","","","","","","","","","","","","","","",""
"","ISI","","html-keyboard-response","470","559195","0.0-1.0-633.0","0","0","55178","","null","","","null","70","NaN","","","","","","","","","","","","","","",""
"","S2","","html-keyboard-response","471","559355","0.0-1.0-634.0","0","0","55178","","null","","","null","70","","NaN","","","","","","","","","","","","","",""
"","response","","html-keyboard-response","472","559672","0.0-1.0-635.0-0.0","0","0","55178","","309","","","68","70","","","2","70","training","adjacent","BC","2","3","M.jpg","O.jpg","1","1","1","",""
"","feedback","","html-keyboard-response","473","560685","0.0-1.0-636.0-0.0","0","0","55178","","null","","","null","70","","","","","","","","","","","","","","","",""
"","ITI","","html-keyboard-response","474","561695","0.0-1.0-639.0","0","0","55178","","null","","","null","70","","","","","","","","","","","","","","","NaN",""
"","S1","","html-keyboard-response","475","561856","0.0-1.0-641.0","0","0","55178","","null","","","null","71","","","","","","","","","","","","","","","",""
"","ISI","","html-keyboard-response","476","563866","0.0-1.0-642.0","0","0","55178","","null","","","null","71","NaN","","","","","","","","","","","","","","",""
"","S2","","html-keyboard-response","477","564025","0.0-1.0-643.0","0","0","55178","","null","","","null","71","","NaN","","","","","","","","","","","","","",""
"","response","","html-keyboard-response","478","564502","0.0-1.0-644.0-0.0","0","0","55178","","471","","","68","71","","","2","71","training","adjacent","GF","7","6","R.jpg","L.jpg","1","0","0","",""
"","feedback","","html-keyboard-response","479","565516","0.0-1.0-645.0-0.0","0","0","55178","","null","","","null","71","","","","","","","","","","","","","","","",""
"","time_out","","html-keyboard-response","480","567526","0.0-1.0-647.0-0.0","0","0","55178","","null","","","null","71","","","","","","","","","","","","","","","",""
"","ITI","","html-keyboard-response","481","568534","0.0-1.0-648.0","0","0","55178","","null","","","null","71","","","","","","","","","","","","","","","NaN",""
"","S1","","html-keyboard-response","482","568696","0.0-1.0-650.0","0","0","55178","","null","","","null","72","","","","","","","","","","","","","","","",""
"","ISI","","html-keyboard-response","483","570707","0.0-1.0-651.0","0","0","55178","","null","","","null","72","NaN","","","","","","","","","","","","","","",""
"","S2","","html-keyboard-response","484","570874","0.0-1.0-652.0","0","0","55178","","null","","","null","72","","NaN","","","","","","","","","","","","","",""
"","response","","html-keyboard-response","485","571464","0.0-1.0-653.0-0.0","0","0","55178","","583","","","75","72","","","2","72","training","adjacent","FE","6","5","L.jpg","P.jpg","0","0","1","",""
"","feedback","","html-keyboard-response","486","572475","0.0-1.0-654.0-0.0","0","0","55178","","null","","","null","72","","","","","","","","","","","","","","","",""
"","ITI","","html-keyboard-response","487","573486","0.0-1.0-657.0","0","0","55178","","null","","","null","72","","","","","","","","","","","","","","","NaN",""
"","S1","","html-keyboard-response","488","573656","0.0-1.0-659.0","0","0","55178","","null","","","null","73","","","","","","","","","","","","","","","",""
"","ISI","","html-keyboard-response","489","575665","0.0-1.0-660.0","0","0","55178","","null","","","null","73","NaN","","","","","","","","","","","","","","",""
"","S2","","html-keyboard-response","490","575826","0.0-1.0-661.0","0","0","55178","","null","","","null","73","","NaN","","","","","","","","","","","","","",""
"","response","","html-keyboard-response","491","576935","0.0-1.0-662.0-0.0","0","0","55178","","1105","","","68","73","","","2","73","training","adjacent","CB","3","2","O.jpg","M.jpg","1","0","0","",""
"","feedback","","html-keyboard-response","492","577943","0.0-1.0-663.0-0.0","0","0","55178","","null","","","null","73","","","","","","","","","","","","","","","",""
"","time_out","","html-keyboard-response","493","579955","0.0-1.0-665.0-0.0","0","0","55178","","null","","","null","73","","","","","","","","","","","","","","","",""
"","ITI","","html-keyboard-response","494","580965","0.0-1.0-666.0","0","0","55178","","null","","","null","73","","","","","","","","","","","","","","","NaN",""
"","S1","","html-keyboard-response","495","581126","0.0-1.0-668.0","0","0","55178","","null","","","null","74","","","","","","","","","","","","","","","",""
"","ISI","","html-keyboard-response","496","583135","0.0-1.0-669.0","0","0","55178","","null","","","null","74","NaN","","","","","","","","","","","","","","",""
"","S2","","html-keyboard-response","497","583296","0.0-1.0-670.0","0","0","55178","","null","","","null","74","","NaN","","","","","","","","","","","","","",""
"","response","","html-keyboard-response","498","583876","0.0-1.0-671.0-0.0","0","0","55178","","574","","","75","74","","","2","74","training","adjacent","CD","3","4","O.jpg","N.jpg","0","1","0","",""
"","feedback","","html-keyboard-response","499","584886","0.0-1.0-672.0-0.0","0","0","55178","","null","","","null","74","","","","","","","","","","","","","","","",""
"","time_out","","html-keyboard-response","500","586896","0.0-1.0-674.0-0.0","0","0","55178","","null","","","null","74","","","","","","","","","","","","","","","",""
"","ITI","","html-keyboard-response","501","587905","0.0-1.0-675.0","0","0","55178","","null","","","null","74","","","","","","","","","","","","","","","NaN",""
"","S1","","html-keyboard-response","502","588066","0.0-1.0-677.0","0","0","55178","","null","","","null","75","","","","","","","","","","","","","","","",""
"","ISI","","html-keyboard-response","503","590076","0.0-1.0-678.0","0","0","55178","","null","","","null","75","NaN","","","","","","","","","","","","","","",""
"","S2","","html-keyboard-response","504","590236","0.0-1.0-679.0","0","0","55178","","null","","","null","75","","NaN","","","","","","","","","","","","","",""
"","response","","html-keyboard-response","505","590972","0.0-1.0-680.0-0.0","0","0","55178","","730","","","68","75","","","2","75","training","adjacent","EF","5","6","P.jpg","L.jpg","1","1","1","",""
"","feedback","","html-keyboard-response","506","591986","0.0-1.0-681.0-0.0","0","0","55178","","null","","","null","75","","","","","","","","","","","","","","","",""
"","ITI","","html-keyboard-response","507","592995","0.0-1.0-684.0","0","0","55178","","null","","","null","75","","","","","","","","","","","","","","","NaN",""
"","S1","","html-keyboard-response","508","593156","0.0-1.0-686.0","0","0","55178","","null","","","null","76","","","","","","","","","","","","","","","",""
"","ISI","","html-keyboard-response","509","595165","0.0-1.0-687.0","0","0","55178","","null","","","null","76","NaN","","","","","","","","","","","","","","",""
"","S2","","html-keyboard-response","510","595325","0.0-1.0-688.0","0","0","55178","","null","","","null","76","","NaN","","","","","","","","","","","","","",""
"","response","","html-keyboard-response","511","595813","0.0-1.0-689.0-0.0","0","0","55178","","482","","","75","76","","","2","76","training","adjacent","ED","5","4","P.jpg","N.jpg","0","0","1","",""
"","feedback","","html-keyboard-response","512","596826","0.0-1.0-690.0-0.0","0","0","55178","","null","","","null","76","","","","","","","","","","","","","","","",""
"","ITI","","html-keyboard-response","513","597836","0.0-1.0-693.0","0","0","55178","","null","","","null","76","","","","","","","","","","","","","","","NaN",""
"","S1","","html-keyboard-response","514","597999","0.0-1.0-695.0","0","0","55178","","null","","","null","77","","","","","","","","","","","","","","","",""
"","ISI","","html-keyboard-response","515","600005","0.0-1.0-696.0","0","0","55178","","null","","","null","77","NaN","","","","","","","","","","","","","","",""
"","S2","","html-keyboard-response","516","600166","0.0-1.0-697.0","0","0","55178","","null","","","null","77","","NaN","","","","","","","","","","","","","",""
"","response","","html-keyboard-response","517","600797","0.0-1.0-698.0-0.0","0","0","55178","","625","","","68","77","","","2","77","training","adjacent","FE","6","5","L.jpg","P.jpg","1","0","0","",""
"","feedback","","html-keyboard-response","518","601816","0.0-1.0-699.0-0.0","0","0","55178","","null","","","null","77","","","","","","","","","","","","","","","",""
"","time_out","","html-keyboard-response","519","603826","0.0-1.0-701.0-0.0","0","0","55178","","null","","","null","77","","","","","","","","","","","","","","","",""
"","ITI","","html-keyboard-response","520","604836","0.0-1.0-702.0","0","0","55178","","null","","","null","77","","","","","","","","","","","","","","","NaN",""
"","S1","","html-keyboard-response","521","604995","0.0-1.0-704.0","0","0","55178","","null","","","null","78","","","","","","","","","","","","","","","",""
"","ISI","","html-keyboard-response","522","607005","0.0-1.0-705.0","0","0","55178","","null","","","null","78","NaN","","","","","","","","","","","","","","",""
"","S2","","html-keyboard-response","523","607165","0.0-1.0-706.0","0","0","55178","","null","","","null","78","","NaN","","","","","","","","","","","","","",""
"","response","","html-keyboard-response","524","607686","0.0-1.0-707.0-0.0","0","0","55178","","514","","","75","78","","","2","78","training","adjacent","AB","1","2","Q.jpg","M.jpg","0","1","0","",""
"","feedback","","html-keyboard-response","525","608706","0.0-1.0-708.0-0.0","0","0","55178","","null","","","null","78","","","","","","","","","","","","","","","",""
"","time_out","","html-keyboard-response","526","610715","0.0-1.0-710.0-0.0","0","0","55178","","null","","","null","78","","","","","","","","","","","","","","","",""
"","ITI","","html-keyboard-response","527","611726","0.0-1.0-711.0","0","0","55178","","null","","","null","78","","","","","","","","","","","","","","","NaN",""
"","S1","","html-keyboard-response","528","611885","0.0-1.0-713.0","0","0","55178","","null","","","null","79","","","","","","","","","","","","","","","",""
"","ISI","","html-keyboard-response","529","613896","0.0-1.0-714.0","0","0","55178","","null","","","null","79","NaN","","","","","","","","","","","","","","",""
"","S2","","html-keyboard-response","530","614055","0.0-1.0-715.0","0","0","55178","","null","","","null","79","","NaN","","","","","","","","","","","","","",""
"","response","","html-keyboard-response","531","614288","0.0-1.0-716.0-0.0","0","0","55178","","226","","","68","79","","","2","79","training","adjacent","GF","7","6","R.jpg","L.jpg","1","0","0","",""
"","feedback","","html-keyboard-response","532","615305","0.0-1.0-717.0-0.0","0","0","55178","","null","","","null","79","","","","","","","","","","","","","","","",""
"","time_out","","html-keyboard-response","533","617316","0.0-1.0-719.0-0.0","0","0","55178","","null","","","null","79","","","","","","","","","","","","","","","",""
"","ITI","","html-keyboard-response","534","618326","0.0-1.0-720.0","0","0","55178","","null","","","null","79","","","","","","","","","","","","","","","NaN",""
"","S1","","html-keyboard-response","535","618485","0.0-1.0-722.0","0","0","55178","","null","","","null","80","","","","","","","","","","","","","","","",""
"","ISI","","html-keyboard-response","536","620499","0.0-1.0-723.0","0","0","55178","","null","","","null","80","NaN","","","","","","","","","","","","","","",""
"","S2","","html-keyboard-response","537","620656","0.0-1.0-724.0","0","0","55178","","null","","","null","80","","NaN","","","","","","","","","","","","","",""
"","response","","html-keyboard-response","538","621108","0.0-1.0-725.0-0.0","0","0","55178","","446","","","75","80","","","2","80","training","adjacent","DE","4","5","N.jpg","P.jpg","0","1","0","",""
"","feedback","","html-keyboard-response","539","622124","0.0-1.0-726.0-0.0","0","0","55178","","null","","","null","80","","","","","","","","","","","","","","","",""
"","time_out","","html-keyboard-response","540","624135","0.0-1.0-728.0-0.0","0","0","55178","","null","","","null","80","","","","","","","","","","","","","","","",""
"","ITI","","html-keyboard-response","541","625145","0.0-1.0-729.0","0","0","55178","","null","","","null","80","","","","","","","","","","","","","","","NaN",""
"","S1","","html-keyboard-response","542","625305","0.0-1.0-731.0","0","0","55178","","null","","","null","81","","","","","","","","","","","","","","","",""
"","ISI","","html-keyboard-response","543","627314","0.0-1.0-732.0","0","0","55178","","null","","","null","81","NaN","","","","","","","","","","","","","","",""
"","S2","","html-keyboard-response","544","627474","0.0-1.0-733.0","0","0","55178","","null","","","null","81","","NaN","","","","","","","","","","","","","",""
"","response","","html-keyboard-response","545","628413","0.0-1.0-734.0-0.0","0","0","55178","","932","","","68","81","","","2","81","training","adjacent","CB","3","2","O.jpg","M.jpg","1","0","0","",""
"","feedback","","html-keyboard-response","546","629424","0.0-1.0-735.0-0.0","0","0","55178","","null","","","null","81","","","","","","","","","","","","","","","",""
"","time_out","","html-keyboard-response","547","631434","0.0-1.0-737.0-0.0","0","0","55178","","null","","","null","81","","","","","","","","","","","","","","","",""
"","ITI","","html-keyboard-response","548","632444","0.0-1.0-738.0","0","0","55178","","null","","","null","81","","","","","","","","","","","","","","","NaN",""
"","S1","","html-keyboard-response","549","632604","0.0-1.0-740.0","0","0","55178","","null","","","null","82","","","","","","","","","","","","","","","",""
"","ISI","","html-keyboard-response","550","634615","0.0-1.0-741.0","0","0","55178","","null","","","null","82","NaN","","","","","","","","","","","","","","",""
"","S2","","html-keyboard-response","551","634778","0.0-1.0-742.0","0","0","55178","","null","","","null","82","","NaN","","","","","","","","","","","","","",""
"","response","","html-keyboard-response","552","635193","0.0-1.0-743.0-0.0","0","0","55178","","408","","","75","82","","","2","82","training","adjacent","FG","6","7","L.jpg","R.jpg","0","1","0","",""
"","feedback","","html-keyboard-response","553","636210","0.0-1.0-744.0-0.0","0","0","55178","","null","","","null","82","","","","","","","","","","","","","","","",""
"","time_out","","html-keyboard-response","554","638224","0.0-1.0-746.0-0.0","0","0","55178","","null","","","null","82","","","","","","","","","","","","","","","",""
"","ITI","","html-keyboard-response","555","639235","0.0-1.0-747.0","0","0","55178","","null","","","null","82","","","","","","","","","","","","","","","NaN",""
"","S1","","html-keyboard-response","556","639395","0.0-1.0-749.0","0","0","55178","","null","","","null","83","","","","","","","","","","","","","","","",""
"","ISI","","html-keyboard-response","557","641404","0.0-1.0-750.0","0","0","55178","","null","","","null","83","NaN","","","","","","","","","","","","","","",""
"","S2","","html-keyboard-response","558","641564","0.0-1.0-751.0","0","0","55178","","null","","","null","83","","NaN","","","","","","","","","","","","","",""
"","response","","html-keyboard-response","559","641918","0.0-1.0-752.0-0.0","0","0","55178","","348","","","68","83","","","2","83","training","adjacent","DC","4","3","N.jpg","O.jpg","1","0","0","",""
"","feedback","","html-keyboard-response","560","642931","0.0-1.0-753.0-0.0","0","0","55178","","null","","","null","83","","","","","","","","","","","","","","","",""
"","time_out","","html-keyboard-response","561","644938","0.0-1.0-755.0-0.0","0","0","55178","","null","","","null","83","","","","","","","","","","","","","","","",""
"","ITI","","html-keyboard-response","562","645944","0.0-1.0-756.0","0","0","55178","","null","","","null","83","","","","","","","","","","","","","","","NaN",""
"","S1","","html-keyboard-response","563","646110","0.0-1.0-758.0","0","0","55178","","null","","","null","84","","","","","","","","","","","","","","","",""
"","ISI","","html-keyboard-response","564","648125","0.0-1.0-759.0","0","0","55178","","null","","","null","84","NaN","","","","","","","","","","","","","","",""
"","S2","","html-keyboard-response","565","648291","0.0-1.0-760.0","0","0","55178","","null","","","null","84","","NaN","","","","","","","","","","","","","",""
"","response","","html-keyboard-response","566","648819","0.0-1.0-761.0-0.0","0","0","55178","","522","","","68","84","","","2","84","training","adjacent","CD","3","4","O.jpg","N.jpg","1","1","1","",""
"","feedback","","html-keyboard-response","567","649833","0.0-1.0-762.0-0.0","0","0","55178","","null","","","null","84","","","","","","","","","","","","","","","",""
"","ITI","","html-keyboard-response","568","650845","0.0-1.0-765.0","0","0","55178","","null","","","null","84","","","","","","","","","","","","","","","NaN",""
"","S1","","html-keyboard-response","569","651015","0.0-1.0-767.0","0","0","55178","","null","","","null","85","","","","","","","","","","","","","","","",""
"","ISI","","html-keyboard-response","570","653025","0.0-1.0-768.0","0","0","55178","","null","","","null","85","NaN","","","","","","","","","","","","","","",""
"","S2","","html-keyboard-response","571","653184","0.0-1.0-769.0","0","0","55178","","null","","","null","85","","NaN","","","","","","","","","","","","","",""
"","response","","html-keyboard-response","572","653580","0.0-1.0-770.0-0.0","0","0","55178","","389","","","68","85","","","2","85","training","adjacent","ED","5","4","P.jpg","N.jpg","1","0","0","",""
"","feedback","","html-keyboard-response","573","654594","0.0-1.0-771.0-0.0","0","0","55178","","null","","","null","85","","","","","","","","","","","","","","","",""
"","time_out","","html-keyboard-response","574","656605","0.0-1.0-773.0-0.0","0","0","55178","","null","","","null","85","","","","","","","","","","","","","","","",""
"","ITI","","html-keyboard-response","575","657615","0.0-1.0-774.0","0","0","55178","","null","","","null","85","","","","","","","","","","","","","","","NaN",""
"","S1","","html-keyboard-response","576","657777","0.0-1.0-776.0","0","0","55178","","null","","","null","86","","","","","","","","","","","","","","","",""
"","ISI","","html-keyboard-response","577","659785","0.0-1.0-777.0","0","0","55178","","null","","","null","86","NaN","","","","","","","","","","","","","","",""
"","S2","","html-keyboard-response","578","659943","0.0-1.0-778.0","0","0","55178","","null","","","null","86","","NaN","","","","","","","","","","","","","",""
"","response","","html-keyboard-response","579","661054","0.0-1.0-779.0-0.0","0","0","55178","","1104","","","75","86","","","2","86","training","adjacent","FG","6","7","L.jpg","R.jpg","0","1","0","",""
"","feedback","","html-keyboard-response","580","662065","0.0-1.0-780.0-0.0","0","0","55178","","null","","","null","86","","","","","","","","","","","","","","","",""
"","time_out","","html-keyboard-response","581","664074","0.0-1.0-782.0-0.0","0","0","55178","","null","","","null","86","","","","","","","","","","","","","","","",""
"","ITI","","html-keyboard-response","582","665085","0.0-1.0-783.0","0","0","55178","","null","","","null","86","","","","","","","","","","","","","","","NaN",""
