"success","ttype","start_time","trial_type","trial_index","time_elapsed","internal_node_id","warning","missed_checkup","PID","view_history","rt","responses","repeat_instructions","key_press","index","keypress_isi","keypress_S2","block","trial_num","phase","group_type","pair_type","S1_stim","S2_stim","S1_img","S2_img","S1_chosen","S1_higher","accuracy","keypress_iti","total_bonus_tally"
"true","full_screen","d04072023hr0231","fullscreen","0","66870","0.0-0.0","0","0","72074","","","","","","","","","","","","","","","","","","","","","",""
"","instructions","","instructions","1","162460","0.0-1.0-0.0-0.0","0","0","72074","[{""page_index"":0,""viewing_time"":76209},{""page_index"":1,""viewing_time"":12154},{""page_index"":2,""viewing_time"":5174},{""page_index"":3,""viewing_time"":2050}]","95587","","","","","","","","","","","","","","","","","","","",""
"","comprehension_check","","survey-multi-choice","2","185204","0.0-1.0-0.0-1.0","0","0","72074","","22739","{""Q0"":""True"",""Q1"":""D"",""Q2"":""Only when the screen 'MAKE A CHOICE' is shown"",""Q3"":""Green mark"",""Q4"":""either D or K""}","1","","","","","","","","","","","","","","","","","",""
"","missed_instruction_checkup","","html-keyboard-response","3","187468","0.0-1.0-0.0-2.0-0.0","0","1","72074","","2257","","","32","","","","","","","","","","","","","","","","",""
"","instructions","","instructions","4","202064","0.0-1.0-0.1-0.1","0","0","72074","[{""page_index"":0,""viewing_time"":2039},{""page_index"":1,""viewing_time"":8025},{""page_index"":2,""viewing_time"":2968},{""page_index"":3,""viewing_time"":1563}]","14595","","","","","","","","","","","","","","","","","","","",""
"","comprehension_check","","survey-multi-choice","5","209293","0.0-1.0-0.1-1.1","0","0","72074","","7224","{""Q0"":""False"",""Q1"":""D"",""Q2"":""Only when the screen 'MAKE A CHOICE' is shown"",""Q3"":""Green mark"",""Q4"":""either D or K""}","1","","","","","","","","","","","","","","","","","",""
"","missed_instruction_checkup","","html-keyboard-response","6","210786","0.0-1.0-0.1-2.1-0.1","0","1","72074","","1490","","","32","","","","","","","","","","","","","","","","",""
"","instructions","","instructions","7","221307","0.0-1.0-0.2-0.2","0","0","72074","[{""page_index"":0,""viewing_time"":2207},{""page_index"":1,""viewing_time"":6394},{""page_index"":2,""viewing_time"":756},{""page_index"":3,""viewing_time"":1162}]","10520","","","","","","","","","","","","","","","","","","","",""
"","comprehension_check","","survey-multi-choice","8","232012","0.0-1.0-0.2-1.2","0","0","72074","","10701","{""Q0"":""True"",""Q1"":""D"",""Q2"":""Once the second image appears and while the screen 'MAKE A CHOICE' is shown"",""Q3"":""Green mark"",""Q4"":""either D or K""}","0","","","","","","","","","","","","","","","","","",""
"","start_exp","","html-keyboard-response","9","349161","0.0-1.0-1.0","0","0","72074","","117147","","","32","","","","","","","","","","","","","","","","",""
"","S1","","html-keyboard-response","10","349319","0.0-1.0-2.0","0","0","72074","","null","","","null","0","","","","","","","","","","","","","","","",""
"","ISI","","html-keyboard-response","11","351329","0.0-1.0-3.0","0","0","72074","","null","","","null","0","NaN","","","","","","","","","","","","","","",""
"","S2","","html-keyboard-response","12","351486","0.0-1.0-4.0","0","0","72074","","null","","","null","0","","NaN","","","","","","","","","","","","","",""
"","response","","html-keyboard-response","13","352471","0.0-1.0-5.0-0.0","0","0","72074","","984","","","75","0","","","1","0","training","adjacent","BA","2","1","P.jpg","R.jpg","0","0","1","",""
"","feedback","","html-keyboard-response","14","353477","0.0-1.0-6.0-0.0","0","0","72074","","null","","","null","0","","","","","","","","","","","","","","","",""
"","ITI","","html-keyboard-response","15","354481","0.0-1.0-9.0","0","0","72074","","null","","","null","0","","","","","","","","","","","","","","","NaN",""
"","S1","","html-keyboard-response","16","354638","0.0-1.0-11.0","0","0","72074","","null","","","null","1","","","","","","","","","","","","","","","",""
"","ISI","","html-keyboard-response","17","356646","0.0-1.0-12.0","0","0","72074","","null","","","null","1","NaN","","","","","","","","","","","","","","",""
"","S2","","html-keyboard-response","18","356809","0.0-1.0-13.0","0","0","72074","","null","","","null","1","","NaN","","","","","","","","","","","","","",""
"","response","","html-keyboard-response","19","357825","0.0-1.0-14.0-0.0","0","0","72074","","1015","","","75","1","","","1","1","training","adjacent","BC","2","3","P.jpg","M.jpg","0","1","0","",""
"","feedback","","html-keyboard-response","20","358829","0.0-1.0-15.0-0.0","0","0","72074","","null","","","null","1","","","","","","","","","","","","","","","",""
"","time_out","","html-keyboard-response","21","360838","0.0-1.0-17.0-0.0","0","0","72074","","null","","","null","1","","","","","","","","","","","","","","","",""
"","ITI","","html-keyboard-response","22","361848","0.0-1.0-18.0","0","0","72074","","null","","","null","1","","","","","","","","","","","","","","","NaN",""
"","S1","","html-keyboard-response","23","362010","0.0-1.0-20.0","0","0","72074","","null","","","null","2","","","","","","","","","","","","","","","",""
"","ISI","","html-keyboard-response","24","364013","0.0-1.0-21.0","0","0","72074","","null","","","null","2","NaN","","","","","","","","","","","","","","",""
"","S2","","html-keyboard-response","25","364176","0.0-1.0-22.0","0","0","72074","","null","","","null","2","","NaN","","","","","","","","","","","","","",""
"","response","","html-keyboard-response","26","364991","0.0-1.0-23.0-0.0","0","0","72074","","814","","","68","2","","","1","2","training","adjacent","ED","5","4","L.jpg","N.jpg","1","0","0","",""
"","feedback","","html-keyboard-response","27","365998","0.0-1.0-24.0-0.0","0","0","72074","","null","","","null","2","","","","","","","","","","","","","","","",""
"","time_out","","html-keyboard-response","28","368006","0.0-1.0-26.0-0.0","0","0","72074","","null","","","null","2","","","","","","","","","","","","","","","",""
"","ITI","","html-keyboard-response","29","369017","0.0-1.0-27.0","0","0","72074","","null","","","null","2","","","","","","","","","","","","","","","NaN",""
"","S1","","html-keyboard-response","30","369174","0.0-1.0-29.0","0","0","72074","","null","","","null","3","","","","","","","","","","","","","","","",""
"","ISI","","html-keyboard-response","31","371182","0.0-1.0-30.0","0","0","72074","","null","","","null","3","NaN","","","","","","","","","","","","","","",""
"","S2","","html-keyboard-response","32","371345","0.0-1.0-31.0","0","0","72074","","null","","","null","3","","NaN","","","","","","","","","","","","","",""
"","response","","html-keyboard-response","33","371659","0.0-1.0-32.0-0.0","0","0","72074","","312","","","68","3","","","1","3","training","adjacent","CD","3","4","M.jpg","N.jpg","1","1","1","",""
"","feedback","","html-keyboard-response","34","372674","0.0-1.0-33.0-0.0","0","0","72074","","null","","","null","3","","","","","","","","","","","","","","","",""
"","ITI","","html-keyboard-response","35","373678","0.0-1.0-36.0","0","0","72074","","null","","","null","3","","","","","","","","","","","","","","","NaN",""
"","S1","","html-keyboard-response","36","373841","0.0-1.0-38.0","0","0","72074","","null","","","null","4","","","","","","","","","","","","","","","",""
"","ISI","","html-keyboard-response","37","375850","0.0-1.0-39.0","0","0","72074","","null","","","null","4","NaN","","","","","","","","","","","","","","",""
"","S2","","html-keyboard-response","38","376006","0.0-1.0-40.0","0","0","72074","","null","","","null","4","","NaN","","","","","","","","","","","","","",""
"","response","","html-keyboard-response","39","376283","0.0-1.0-41.0-0.0","0","0","72074","","274","","","75","4","","","1","4","training","adjacent","DE","4","5","N.jpg","L.jpg","0","1","0","",""
"","feedback","","html-keyboard-response","40","377295","0.0-1.0-42.0-0.0","0","0","72074","","null","","","null","4","","","","","","","","","","","","","","","",""
"","time_out","","html-keyboard-response","41","379303","0.0-1.0-44.0-0.0","0","0","72074","","null","","","null","4","","","","","","","","","","","","","","","",""
"","ITI","","html-keyboard-response","42","380313","0.0-1.0-45.0","0","0","72074","","null","","","null","4","","","","","","","","","","","","","","","NaN",""
"","S1","","html-keyboard-response","43","380470","0.0-1.0-47.0","0","0","72074","","null","","","null","5","","","","","","","","","","","","","","","",""
"","ISI","","html-keyboard-response","44","382478","0.0-1.0-48.0","0","0","72074","","null","","","null","5","NaN","","","","","","","","","","","","","","",""
"","S2","","html-keyboard-response","45","382641","0.0-1.0-49.0","0","0","72074","","null","","","null","5","","NaN","","","","","","","","","","","","","",""
"","response","","html-keyboard-response","46","382976","0.0-1.0-50.0-0.0","0","0","72074","","334","","","68","5","","","1","5","training","adjacent","AB","1","2","R.jpg","P.jpg","1","1","1","",""
"","feedback","","html-keyboard-response","47","383982","0.0-1.0-51.0-0.0","0","0","72074","","null","","","null","5","","","","","","","","","","","","","","","",""
"","ITI","","html-keyboard-response","48","384992","0.0-1.0-54.0","0","0","72074","","null","","","null","5","","","","","","","","","","","","","","","NaN",""
"","S1","","html-keyboard-response","49","385149","0.0-1.0-56.0","0","0","72074","","null","","","null","6","","","","","","","","","","","","","","","",""
"","ISI","","html-keyboard-response","50","387157","0.0-1.0-57.0","0","0","72074","","null","","","null","6","NaN","","","","","","","","","","","","","","",""
"","S2","","html-keyboard-response","51","387314","0.0-1.0-58.0","0","0","72074","","null","","","null","6","","NaN","","","","","","","","","","","","","",""
"","response","","html-keyboard-response","52","387968","0.0-1.0-59.0-0.0","0","0","72074","","653","","","68","6","","","1","6","training","adjacent","BC","2","3","P.jpg","M.jpg","1","1","1","",""
"","feedback","","html-keyboard-response","53","388974","0.0-1.0-60.0-0.0","0","0","72074","","null","","","null","6","","","","","","","","","","","","","","","",""
"","ITI","","html-keyboard-response","54","389984","0.0-1.0-63.0","0","0","72074","","null","","","null","6","","","","","","","","","","","","","","","NaN",""
"","S1","","html-keyboard-response","55","390141","0.0-1.0-65.0","0","0","72074","","null","","","null","7","","","","","","","","","","","","","","","",""
"","ISI","","html-keyboard-response","56","392150","0.0-1.0-66.0","0","0","72074","","null","","","null","7","NaN","","","","","","","","","","","","","","",""
"","S2","","html-keyboard-response","57","392313","0.0-1.0-67.0","0","0","72074","","null","","","null","7","","NaN","","","","","","","","","","","","","",""
"","response","","html-keyboard-response","58","392536","0.0-1.0-68.0-0.0","0","0","72074","","221","","","75","7","","","1","7","training","adjacent","DE","4","5","N.jpg","L.jpg","0","1","0","",""
"","feedback","","html-keyboard-response","59","393543","0.0-1.0-69.0-0.0","0","0","72074","","null","","","null","7","","","","","","","","","","","","","","","",""
"","time_out","","html-keyboard-response","60","395552","0.0-1.0-71.0-0.0","0","0","72074","","null","","","null","7","","","","","","","","","","","","","","","",""
"","ITI","","html-keyboard-response","61","396562","0.0-1.0-72.0","0","0","72074","","null","","","null","7","","","","","","","","","","","","","","","NaN",""
"","S1","","html-keyboard-response","62","396718","0.0-1.0-74.0","0","0","72074","","null","","","null","8","","","","","","","","","","","","","","","",""
"","ISI","","html-keyboard-response","63","398727","0.0-1.0-75.0","0","0","72074","","null","","","null","8","NaN","","","","","","","","","","","","","","",""
"","S2","","html-keyboard-response","64","398890","0.0-1.0-76.0","0","0","72074","","null","","","null","8","","NaN","","","","","","","","","","","","","",""
"","response","","html-keyboard-response","65","399384","0.0-1.0-77.0-0.0","0","0","72074","","492","","","75","8","","","1","8","training","adjacent","FE","6","5","O.jpg","L.jpg","0","0","1","",""
"","feedback","","html-keyboard-response","66","400393","0.0-1.0-78.0-0.0","0","0","72074","","null","","","null","8","","","","","","","","","","","","","","","",""
"","ITI","","html-keyboard-response","67","401397","0.0-1.0-81.0","0","0","72074","","null","","","null","8","","","","","","","","","","","","","","","NaN",""
"","S1","","html-keyboard-response","68","401560","0.0-1.0-83.0","0","0","72074","","null","","","null","9","","","","","","","","","","","","","","","",""
"","ISI","","html-keyboard-response","69","403569","0.0-1.0-84.0","0","0","72074","","null","","","null","9","NaN","","","","","","","","","","","","","","",""
"","S2","","html-keyboard-response","70","403725","0.0-1.0-85.0","0","0","72074","","null","","","null","9","","NaN","","","","","","","","","","","","","",""
"","response","","html-keyboard-response","71","404197","0.0-1.0-86.0-0.0","0","0","72074","","471","","","68","9","","","1","9","training","adjacent","FG","6","7","O.jpg","Q.jpg","1","1","1","",""
"","feedback","","html-keyboard-response","72","405210","0.0-1.0-87.0-0.0","0","0","72074","","null","","","null","9","","","","","","","","","","","","","","","",""
"","ITI","","html-keyboard-response","73","406215","0.0-1.0-90.0","0","0","72074","","null","","","null","9","","","","","","","","","","","","","","","NaN",""
"","S1","","html-keyboard-response","74","406378","0.0-1.0-92.0","0","0","72074","","null","","","null","10","","","","","","","","","","","","","","","",""
"","ISI","","html-keyboard-response","75","408386","0.0-1.0-93.0","0","0","72074","","null","","","null","10","NaN","","","","","","","","","","","","","","",""
"","S2","","html-keyboard-response","76","408543","0.0-1.0-94.0","0","0","72074","","null","","","null","10","","NaN","","","","","","","","","","","","","",""
"","response","","html-keyboard-response","77","408899","0.0-1.0-95.0-0.0","0","0","72074","","354","","","68","10","","","1","10","training","adjacent","AB","1","2","R.jpg","P.jpg","1","1","1","",""
"","feedback","","html-keyboard-response","78","409913","0.0-1.0-96.0-0.0","0","0","72074","","null","","","null","10","","","","","","","","","","","","","","","",""
"","ITI","","html-keyboard-response","79","410918","0.0-1.0-99.0","0","0","72074","","null","","","null","10","","","","","","","","","","","","","","","NaN",""
"","S1","","html-keyboard-response","80","411080","0.0-1.0-101.0","0","0","72074","","null","","","null","11","","","","","","","","","","","","","","","",""
"","ISI","","html-keyboard-response","81","413089","0.0-1.0-102.0","0","0","72074","","null","","","null","11","NaN","","","","","","","","","","","","","","",""
"","S2","","html-keyboard-response","82","413245","0.0-1.0-103.0","0","0","72074","","null","","","null","11","","NaN","","","","","","","","","","","","","",""
"","response","","html-keyboard-response","83","413622","0.0-1.0-104.0-0.0","0","0","72074","","375","","","75","11","","","1","11","training","adjacent","GF","7","6","Q.jpg","O.jpg","0","0","1","",""
"","feedback","","html-keyboard-response","84","414633","0.0-1.0-105.0-0.0","0","0","72074","","null","","","null","11","","","","","","","","","","","","","","","",""
"","ITI","","html-keyboard-response","85","415640","0.0-1.0-108.0","0","0","72074","","null","","","null","11","","","","","","","","","","","","","","","NaN",""
"","S1","","html-keyboard-response","86","415798","0.0-1.0-110.0","0","0","72074","","null","","","null","12","","","","","","","","","","","","","","","",""
"","ISI","","html-keyboard-response","87","417808","0.0-1.0-111.0","0","0","72074","","511","","","68","12","d","","","","","","","","","","","","","","",""
"","S2","","html-keyboard-response","88","417971","0.0-1.0-112.0","0","0","72074","","null","","","null","12","","NaN","","","","","","","","","","","","","",""
"","response","","html-keyboard-response","89","418389","0.0-1.0-113.0-0.0","0","0","72074","","417","","","75","12","","","1","12","training","adjacent","DE","4","5","N.jpg","L.jpg","0","1","0","",""
"","feedback","","html-keyboard-response","90","419398","0.0-1.0-114.0-0.0","0","0","72074","","null","","","null","12","","","","","","","","","","","","","","","",""
"","time_out","","html-keyboard-response","91","421407","0.0-1.0-116.0-0.0","0","0","72074","","null","","","null","12","","","","","","","","","","","","","","","",""
"","ITI","","html-keyboard-response","92","422417","0.0-1.0-117.0","0","0","72074","","null","","","null","12","","","","","","","","","","","","","","","NaN",""
"","S1","","html-keyboard-response","93","422577","0.0-1.0-119.0","0","0","72074","","null","","","null","13","","","","","","","","","","","","","","","",""
"","ISI","","html-keyboard-response","94","424583","0.0-1.0-120.0","0","0","72074","","null","","","null","13","NaN","","","","","","","","","","","","","","",""
"","S2","","html-keyboard-response","95","424745","0.0-1.0-121.0","0","0","72074","","null","","","null","13","","NaN","","","","","","","","","","","","","",""
"","response","","html-keyboard-response","96","425047","0.0-1.0-122.0-0.0","0","0","72074","","300","","","68","13","","","1","13","training","adjacent","DE","4","5","N.jpg","L.jpg","1","1","1","",""
"","feedback","","html-keyboard-response","97","426057","0.0-1.0-123.0-0.0","0","0","72074","","null","","","null","13","","","","","","","","","","","","","","","",""
"","ITI","","html-keyboard-response","98","427061","0.0-1.0-126.0","0","0","72074","","null","","","null","13","","","","","","","","","","","","","","","NaN",""
"","S1","","html-keyboard-response","99","427224","0.0-1.0-128.0","0","0","72074","","null","","","null","14","","","","","","","","","","","","","","","",""
"","ISI","","html-keyboard-response","100","429232","0.0-1.0-129.0","0","0","72074","","null","","","null","14","NaN","","","","","","","","","","","","","","",""
"","S2","","html-keyboard-response","101","429391","0.0-1.0-130.0","0","0","72074","","null","","","null","14","","NaN","","","","","","","","","","","","","",""
"","response","","html-keyboard-response","102","429959","0.0-1.0-131.0-0.0","0","0","72074","","567","","","68","14","","","1","14","training","adjacent","CB","3","2","M.jpg","P.jpg","1","0","0","",""
"","feedback","","html-keyboard-response","103","430968","0.0-1.0-132.0-0.0","0","0","72074","","null","","","null","14","","","","","","","","","","","","","","","",""
"","time_out","","html-keyboard-response","104","432976","0.0-1.0-134.0-0.0","0","0","72074","","null","","","null","14","","","","","","","","","","","","","","","",""
"","ITI","","html-keyboard-response","105","433983","0.0-1.0-135.0","0","0","72074","","null","","","null","14","","","","","","","","","","","","","","","NaN",""
"","S1","","html-keyboard-response","106","434143","0.0-1.0-137.0","0","0","72074","","null","","","null","15","","","","","","","","","","","","","","","",""
"","ISI","","html-keyboard-response","107","436152","0.0-1.0-138.0","0","0","72074","","null","","","null","15","NaN","","","","","","","","","","","","","","",""
"","S2","","html-keyboard-response","108","436314","0.0-1.0-139.0","0","0","72074","","null","","","null","15","","NaN","","","","","","","","","","","","","",""
"","response","","html-keyboard-response","109","436634","0.0-1.0-140.0-0.0","0","0","72074","","317","","","75","15","","","1","15","training","adjacent","GF","7","6","Q.jpg","O.jpg","0","0","1","",""
"","feedback","","html-keyboard-response","110","437638","0.0-1.0-141.0-0.0","0","0","72074","","null","","","null","15","","","","","","","","","","","","","","","",""
"","ITI","","html-keyboard-response","111","438648","0.0-1.0-144.0","0","0","72074","","null","","","null","15","","","","","","","","","","","","","","","NaN",""
"","S1","","html-keyboard-response","112","438811","0.0-1.0-146.0","0","0","72074","","null","","","null","16","","","","","","","","","","","","","","","",""
"","ISI","","html-keyboard-response","113","440813","0.0-1.0-147.0","0","0","72074","","null","","","null","16","NaN","","","","","","","","","","","","","","",""
"","S2","","html-keyboard-response","114","440976","0.0-1.0-148.0","0","0","72074","","null","","","null","16","","NaN","","","","","","","","","","","","","",""
"","response","","html-keyboard-response","115","441457","0.0-1.0-149.0-0.0","0","0","72074","","480","","","75","16","","","1","16","training","adjacent","DC","4","3","N.jpg","M.jpg","0","0","1","",""
"","feedback","","html-keyboard-response","116","442462","0.0-1.0-150.0-0.0","0","0","72074","","null","","","null","16","","","","","","","","","","","","","","","",""
"","ITI","","html-keyboard-response","117","443472","0.0-1.0-153.0","0","0","72074","","null","","","null","16","","","","","","","","","","","","","","","NaN",""
"","S1","","html-keyboard-response","118","443634","0.0-1.0-155.0","0","0","72074","","null","","","null","17","","","","","","","","","","","","","","","",""
"","ISI","","html-keyboard-response","119","445637","0.0-1.0-156.0","0","0","72074","","null","","","null","17","NaN","","","","","","","","","","","","","","",""
"","S2","","html-keyboard-response","120","445799","0.0-1.0-157.0","0","0","72074","","null","","","null","17","","NaN","","","","","","","","","","","","","",""
"","response","","html-keyboard-response","121","446151","0.0-1.0-158.0-0.0","0","0","72074","","351","","","68","17","","","1","17","training","adjacent","ED","5","4","L.jpg","N.jpg","1","0","0","",""
"","feedback","","html-keyboard-response","122","447158","0.0-1.0-159.0-0.0","0","0","72074","","null","","","null","17","","","","","","","","","","","","","","","",""
"","time_out","","html-keyboard-response","123","449165","0.0-1.0-161.0-0.0","0","0","72074","","null","","","null","17","","","","","","","","","","","","","","","",""
"","ITI","","html-keyboard-response","124","450177","0.0-1.0-162.0","0","0","72074","","null","","","null","17","","","","","","","","","","","","","","","NaN",""
"","S1","","html-keyboard-response","125","450333","0.0-1.0-164.0","0","0","72074","","null","","","null","18","","","","","","","","","","","","","","","",""
"","ISI","","html-keyboard-response","126","452342","0.0-1.0-165.0","0","0","72074","","548","","","68","18","d","","","","","","","","","","","","","","",""
"","S2","","html-keyboard-response","127","452504","0.0-1.0-166.0","0","0","72074","","null","","","null","18","","NaN","","","","","","","","","","","","","",""
"","response","","html-keyboard-response","128","452776","0.0-1.0-167.0-0.0","0","0","72074","","271","","","75","18","","","1","18","training","adjacent","CB","3","2","M.jpg","P.jpg","0","0","1","",""
"","feedback","","html-keyboard-response","129","453782","0.0-1.0-168.0-0.0","0","0","72074","","null","","","null","18","","","","","","","","","","","","","","","",""
"","ITI","","html-keyboard-response","130","454792","0.0-1.0-171.0","0","0","72074","","null","","","null","18","","","","","","","","","","","","","","","NaN",""
"","S1","","html-keyboard-response","131","454954","0.0-1.0-173.0","0","0","72074","","null","","","null","19","","","","","","","","","","","","","","","",""
"","ISI","","html-keyboard-response","132","456962","0.0-1.0-174.0","0","0","72074","","null","","","null","19","NaN","","","","","","","","","","","","","","",""
"","S2","","html-keyboard-response","133","457120","0.0-1.0-175.0","0","0","72074","","null","","","null","19","","NaN","","","","","","","","","","","","","",""
"","response","","html-keyboard-response","134","457584","0.0-1.0-176.0-0.0","0","0","72074","","462","","","75","19","","","1","19","training","adjacent","BA","2","1","P.jpg","R.jpg","0","0","1","",""
"","feedback","","html-keyboard-response","135","458594","0.0-1.0-177.0-0.0","0","0","72074","","null","","","null","19","","","","","","","","","","","","","","","",""
"","ITI","","html-keyboard-response","136","459598","0.0-1.0-180.0","0","0","72074","","null","","","null","19","","","","","","","","","","","","","","","NaN",""
"","S1","","html-keyboard-response","137","459761","0.0-1.0-182.0","0","0","72074","","null","","","null","20","","","","","","","","","","","","","","","",""
"","ISI","","html-keyboard-response","138","461769","0.0-1.0-183.0","0","0","72074","","null","","","null","20","NaN","","","","","","","","","","","","","","",""
"","S2","","html-keyboard-response","139","461926","0.0-1.0-184.0","0","0","72074","","null","","","null","20","","NaN","","","","","","","","","","","","","",""
"","response","","html-keyboard-response","140","462426","0.0-1.0-185.0-0.0","0","0","72074","","499","","","75","20","","","1","20","training","adjacent","FG","6","7","O.jpg","Q.jpg","0","1","0","",""
"","feedback","","html-keyboard-response","141","463429","0.0-1.0-186.0-0.0","0","0","72074","","null","","","null","20","","","","","","","","","","","","","","","",""
"","time_out","","html-keyboard-response","142","465437","0.0-1.0-188.0-0.0","0","0","72074","","null","","","null","20","","","","","","","","","","","","","","","",""
"","ITI","","html-keyboard-response","143","466449","0.0-1.0-189.0","0","0","72074","","null","","","null","20","","","","","","","","","","","","","","","NaN",""
"","S1","","html-keyboard-response","144","466610","0.0-1.0-191.0","0","0","72074","","null","","","null","21","","","","","","","","","","","","","","","",""
"","ISI","","html-keyboard-response","145","468619","0.0-1.0-192.0","0","0","72074","","null","","","null","21","NaN","","","","","","","","","","","","","","",""
"","S2","","html-keyboard-response","146","468776","0.0-1.0-193.0","0","0","72074","","null","","","null","21","","NaN","","","","","","","","","","","","","",""
"","response","","html-keyboard-response","147","469190","0.0-1.0-194.0-0.0","0","0","72074","","411","","","68","21","","","1","21","training","adjacent","BA","2","1","P.jpg","R.jpg","1","0","0","",""
"","feedback","","html-keyboard-response","148","470198","0.0-1.0-195.0-0.0","0","0","72074","","null","","","null","21","","","","","","","","","","","","","","","",""
"","time_out","","html-keyboard-response","149","472207","0.0-1.0-197.0-0.0","0","0","72074","","null","","","null","21","","","","","","","","","","","","","","","",""
"","ITI","","html-keyboard-response","150","473217","0.0-1.0-198.0","0","0","72074","","null","","","null","21","","","","","","","","","","","","","","","NaN",""
"","S1","","html-keyboard-response","151","473374","0.0-1.0-200.0","0","0","72074","","null","","","null","22","","","","","","","","","","","","","","","",""
"","ISI","","html-keyboard-response","152","475382","0.0-1.0-201.0","0","0","72074","","null","","","null","22","NaN","","","","","","","","","","","","","","",""
"","S2","","html-keyboard-response","153","475545","0.0-1.0-202.0","0","0","72074","","null","","","null","22","","NaN","","","","","","","","","","","","","",""
"","response","","html-keyboard-response","154","476323","0.0-1.0-203.0-0.0","0","0","72074","","776","","","75","22","","","1","22","training","adjacent","FE","6","5","O.jpg","L.jpg","0","0","1","",""
"","feedback","","html-keyboard-response","155","477327","0.0-1.0-204.0-0.0","0","0","72074","","null","","","null","22","","","","","","","","","","","","","","","",""
"","ITI","","html-keyboard-response","156","478337","0.0-1.0-207.0","0","0","72074","","null","","","null","22","","","","","","","","","","","","","","","NaN",""
"","S1","","html-keyboard-response","157","478494","0.0-1.0-209.0","0","0","72074","","null","","","null","23","","","","","","","","","","","","","","","",""
"","ISI","","html-keyboard-response","158","480502","0.0-1.0-210.0","0","0","72074","","null","","","null","23","NaN","","","","","","","","","","","","","","",""
"","S2","","html-keyboard-response","159","480665","0.0-1.0-211.0","0","0","72074","","null","","","null","23","","NaN","","","","","","","","","","","","","",""
"","response","","html-keyboard-response","160","481095","0.0-1.0-212.0-0.0","0","0","72074","","429","","","68","23","","","1","23","training","adjacent","FG","6","7","O.jpg","Q.jpg","1","1","1","",""
"","feedback","","html-keyboard-response","161","482104","0.0-1.0-213.0-0.0","0","0","72074","","null","","","null","23","","","","","","","","","","","","","","","",""
"","ITI","","html-keyboard-response","162","483115","0.0-1.0-216.0","0","0","72074","","null","","","null","23","","","","","","","","","","","","","","","NaN",""
"","S1","","html-keyboard-response","163","483271","0.0-1.0-218.0","0","0","72074","","null","","","null","24","","","","","","","","","","","","","","","",""
"","ISI","","html-keyboard-response","164","485279","0.0-1.0-219.0","0","0","72074","","null","","","null","24","NaN","","","","","","","","","","","","","","",""
"","S2","","html-keyboard-response","165","485442","0.0-1.0-220.0","0","0","72074","","null","","","null","24","","NaN","","","","","","","","","","","","","",""
"","response","","html-keyboard-response","166","485962","0.0-1.0-221.0-0.0","0","0","72074","","519","","","68","24","","","1","24","training","adjacent","FE","6","5","O.jpg","L.jpg","1","0","0","",""
"","feedback","","html-keyboard-response","167","486969","0.0-1.0-222.0-0.0","0","0","72074","","null","","","null","24","","","","","","","","","","","","","","","",""
"","time_out","","html-keyboard-response","168","488977","0.0-1.0-224.0-0.0","0","0","72074","","null","","","null","24","","","","","","","","","","","","","","","",""
"","ITI","","html-keyboard-response","169","489981","0.0-1.0-225.0","0","0","72074","","null","","","null","24","","","","","","","","","","","","","","","NaN",""
"","S1","","html-keyboard-response","170","490144","0.0-1.0-227.0","0","0","72074","","null","","","null","25","","","","","","","","","","","","","","","",""
"","ISI","","html-keyboard-response","171","492153","0.0-1.0-228.0","0","0","72074","","null","","","null","25","NaN","","","","","","","","","","","","","","",""
"","S2","","html-keyboard-response","172","492313","0.0-1.0-229.0","0","0","72074","","null","","","null","25","","NaN","","","","","","","","","","","","","",""
"","response","","html-keyboard-response","173","492769","0.0-1.0-230.0-0.0","0","0","72074","","454","","","68","25","","","1","25","training","adjacent","FG","6","7","O.jpg","Q.jpg","1","1","1","",""
"","feedback","","html-keyboard-response","174","493778","0.0-1.0-231.0-0.0","0","0","72074","","null","","","null","25","","","","","","","","","","","","","","","",""
"","ITI","","html-keyboard-response","175","494782","0.0-1.0-234.0","0","0","72074","","null","","","null","25","","","","","","","","","","","","","","","NaN",""
"","S1","","html-keyboard-response","176","494945","0.0-1.0-236.0","0","0","72074","","null","","","null","26","","","","","","","","","","","","","","","",""
"","ISI","","html-keyboard-response","177","496953","0.0-1.0-237.0","0","0","72074","","null","","","null","26","NaN","","","","","","","","","","","","","","",""
"","S2","","html-keyboard-response","178","497110","0.0-1.0-238.0","0","0","72074","","null","","","null","26","","NaN","","","","","","","","","","","","","",""
"","response","","html-keyboard-response","179","497616","0.0-1.0-239.0-0.0","0","0","72074","","504","","","68","26","","","1","26","training","adjacent","AB","1","2","R.jpg","P.jpg","1","1","1","",""
"","feedback","","html-keyboard-response","180","498625","0.0-1.0-240.0-0.0","0","0","72074","","null","","","null","26","","","","","","","","","","","","","","","",""
"","ITI","","html-keyboard-response","181","499629","0.0-1.0-243.0","0","0","72074","","null","","","null","26","","","","","","","","","","","","","","","NaN",""
"","S1","","html-keyboard-response","182","499791","0.0-1.0-245.0","0","0","72074","","null","","","null","27","","","","","","","","","","","","","","","",""
"","ISI","","html-keyboard-response","183","501801","0.0-1.0-246.0","0","0","72074","","null","","","null","27","NaN","","","","","","","","","","","","","","",""
"","S2","","html-keyboard-response","184","501958","0.0-1.0-247.0","0","0","72074","","null","","","null","27","","NaN","","","","","","","","","","","","","",""
"","response","","html-keyboard-response","185","502391","0.0-1.0-248.0-0.0","0","0","72074","","432","","","75","27","","","1","27","training","adjacent","EF","5","6","L.jpg","O.jpg","0","1","0","",""
"","feedback","","html-keyboard-response","186","503403","0.0-1.0-249.0-0.0","0","0","72074","","null","","","null","27","","","","","","","","","","","","","","","",""
"","time_out","","html-keyboard-response","187","505406","0.0-1.0-251.0-0.0","0","0","72074","","null","","","null","27","","","","","","","","","","","","","","","",""
"","ITI","","html-keyboard-response","188","506416","0.0-1.0-252.0","0","0","72074","","null","","","null","27","","","","","","","","","","","","","","","NaN",""
"","S1","","html-keyboard-response","189","506578","0.0-1.0-254.0","0","0","72074","","null","","","null","28","","","","","","","","","","","","","","","",""
"","ISI","","html-keyboard-response","190","508587","0.0-1.0-255.0","0","0","72074","","null","","","null","28","NaN","","","","","","","","","","","","","","",""
"","S2","","html-keyboard-response","191","508744","0.0-1.0-256.0","0","0","72074","","null","","","null","28","","NaN","","","","","","","","","","","","","",""
"","response","","html-keyboard-response","192","509262","0.0-1.0-257.0-0.0","0","0","72074","","517","","","68","28","","","1","28","training","adjacent","CB","3","2","M.jpg","P.jpg","1","0","0","",""
"","feedback","","html-keyboard-response","193","510271","0.0-1.0-258.0-0.0","0","0","72074","","null","","","null","28","","","","","","","","","","","","","","","",""
"","time_out","","html-keyboard-response","194","512279","0.0-1.0-260.0-0.0","0","0","72074","","null","","","null","28","","","","","","","","","","","","","","","",""
"","ITI","","html-keyboard-response","195","513289","0.0-1.0-261.0","0","0","72074","","null","","","null","28","","","","","","","","","","","","","","","NaN",""
"","S1","","html-keyboard-response","196","513445","0.0-1.0-263.0","0","0","72074","","null","","","null","29","","","","","","","","","","","","","","","",""
"","ISI","","html-keyboard-response","197","515459","0.0-1.0-264.0","0","0","72074","","null","","","null","29","NaN","","","","","","","","","","","","","","",""
"","S2","","html-keyboard-response","198","515616","0.0-1.0-265.0","0","0","72074","","null","","","null","29","","NaN","","","","","","","","","","","","","",""
"","response","","html-keyboard-response","199","515931","0.0-1.0-266.0-0.0","0","0","72074","","313","","","75","29","","","1","29","training","adjacent","BA","2","1","P.jpg","R.jpg","0","0","1","",""
"","feedback","","html-keyboard-response","200","516946","0.0-1.0-267.0-0.0","0","0","72074","","null","","","null","29","","","","","","","","","","","","","","","",""
"","ITI","","html-keyboard-response","201","517951","0.0-1.0-270.0","0","0","72074","","null","","","null","29","","","","","","","","","","","","","","","NaN",""
"","S1","","html-keyboard-response","202","518113","0.0-1.0-272.0","0","0","72074","","null","","","null","30","","","","","","","","","","","","","","","",""
"","ISI","","html-keyboard-response","203","520121","0.0-1.0-273.0","0","0","72074","","null","","","null","30","NaN","","","","","","","","","","","","","","",""
"","S2","","html-keyboard-response","204","520278","0.0-1.0-274.0","0","0","72074","","null","","","null","30","","NaN","","","","","","","","","","","","","",""
"","response","","html-keyboard-response","205","520871","0.0-1.0-275.0-0.0","0","0","72074","","592","","","68","30","","","1","30","training","adjacent","DC","4","3","N.jpg","M.jpg","1","0","0","",""
"","feedback","","html-keyboard-response","206","521880","0.0-1.0-276.0-0.0","0","0","72074","","null","","","null","30","","","","","","","","","","","","","","","",""
"","time_out","","html-keyboard-response","207","523889","0.0-1.0-278.0-0.0","0","0","72074","","null","","","null","30","","","","","","","","","","","","","","","",""
"","ITI","","html-keyboard-response","208","524896","0.0-1.0-279.0","0","0","72074","","null","","","null","30","","","","","","","","","","","","","","","NaN",""
"","S1","","html-keyboard-response","209","525056","0.0-1.0-281.0","0","0","72074","","null","","","null","31","","","","","","","","","","","","","","","",""
"","ISI","","html-keyboard-response","210","527064","0.0-1.0-282.0","0","0","72074","","null","","","null","31","NaN","","","","","","","","","","","","","","",""
"","S2","","html-keyboard-response","211","527227","0.0-1.0-283.0","0","0","72074","","null","","","null","31","","NaN","","","","","","","","","","","","","",""
"","response","","html-keyboard-response","212","527763","0.0-1.0-284.0-0.0","0","0","72074","","535","","","68","31","","","1","31","training","adjacent","ED","5","4","L.jpg","N.jpg","1","0","0","",""
"","feedback","","html-keyboard-response","213","528768","0.0-1.0-285.0-0.0","0","0","72074","","null","","","null","31","","","","","","","","","","","","","","","",""
"","time_out","","html-keyboard-response","214","530774","0.0-1.0-287.0-0.0","0","0","72074","","null","","","null","31","","","","","","","","","","","","","","","",""
"","ITI","","html-keyboard-response","215","531784","0.0-1.0-288.0","0","0","72074","","null","","","null","31","","","","","","","","","","","","","","","NaN",""
"","S1","","html-keyboard-response","216","531946","0.0-1.0-290.0","0","0","72074","","null","","","null","32","","","","","","","","","","","","","","","",""
"","ISI","","html-keyboard-response","217","533955","0.0-1.0-291.0","0","0","72074","","null","","","null","32","NaN","","","","","","","","","","","","","","",""
"","S2","","html-keyboard-response","218","534111","0.0-1.0-292.0","0","0","72074","","null","","","null","32","","NaN","","","","","","","","","","","","","",""
"","response","","html-keyboard-response","219","534718","0.0-1.0-293.0-0.0","0","0","72074","","606","","","75","32","","","1","32","training","adjacent","EF","5","6","L.jpg","O.jpg","0","1","0","",""
"","feedback","","html-keyboard-response","220","535731","0.0-1.0-294.0-0.0","0","0","72074","","null","","","null","32","","","","","","","","","","","","","","","",""
"","time_out","","html-keyboard-response","221","537734","0.0-1.0-296.0-0.0","0","0","72074","","null","","","null","32","","","","","","","","","","","","","","","",""
"","ITI","","html-keyboard-response","222","538744","0.0-1.0-297.0","0","0","72074","","null","","","null","32","","","","","","","","","","","","","","","NaN",""
"","S1","","html-keyboard-response","223","538906","0.0-1.0-299.0","0","0","72074","","null","","","null","33","","","","","","","","","","","","","","","",""
"","ISI","","html-keyboard-response","224","540915","0.0-1.0-300.0","0","0","72074","","null","","","null","33","NaN","","","","","","","","","","","","","","",""
"","S2","","html-keyboard-response","225","541071","0.0-1.0-301.0","0","0","72074","","null","","","null","33","","NaN","","","","","","","","","","","","","",""
"","response","","html-keyboard-response","226","541428","0.0-1.0-302.0-0.0","0","0","72074","","356","","","68","33","","","1","33","training","adjacent","ED","5","4","L.jpg","N.jpg","1","0","0","",""
"","feedback","","html-keyboard-response","227","542442","0.0-1.0-303.0-0.0","0","0","72074","","null","","","null","33","","","","","","","","","","","","","","","",""
"","time_out","","html-keyboard-response","228","544450","0.0-1.0-305.0-0.0","0","0","72074","","null","","","null","33","","","","","","","","","","","","","","","",""
"","ITI","","html-keyboard-response","229","545455","0.0-1.0-306.0","0","0","72074","","null","","","null","33","","","","","","","","","","","","","","","NaN",""
"","S1","","html-keyboard-response","230","545617","0.0-1.0-308.0","0","0","72074","","null","","","null","34","","","","","","","","","","","","","","","",""
"","ISI","","html-keyboard-response","231","547625","0.0-1.0-309.0","0","0","72074","","null","","","null","34","NaN","","","","","","","","","","","","","","",""
"","S2","","html-keyboard-response","232","547782","0.0-1.0-310.0","0","0","72074","","null","","","null","34","","NaN","","","","","","","","","","","","","",""
"","response","","html-keyboard-response","233","548351","0.0-1.0-311.0-0.0","0","0","72074","","567","","","68","34","","","1","34","training","adjacent","AB","1","2","R.jpg","P.jpg","1","1","1","",""
"","feedback","","html-keyboard-response","234","549362","0.0-1.0-312.0-0.0","0","0","72074","","null","","","null","34","","","","","","","","","","","","","","","",""
"","ITI","","html-keyboard-response","235","550369","0.0-1.0-315.0","0","0","72074","","null","","","null","34","","","","","","","","","","","","","","","NaN",""
"","S1","","html-keyboard-response","236","550528","0.0-1.0-317.0","0","0","72074","","null","","","null","35","","","","","","","","","","","","","","","",""
"","ISI","","html-keyboard-response","237","552536","0.0-1.0-318.0","0","0","72074","","null","","","null","35","NaN","","","","","","","","","","","","","","",""
"","S2","","html-keyboard-response","238","552699","0.0-1.0-319.0","0","0","72074","","null","","","null","35","","NaN","","","","","","","","","","","","","",""
"","response","","html-keyboard-response","239","552998","0.0-1.0-320.0-0.0","0","0","72074","","298","","","75","35","","","1","35","training","adjacent","DC","4","3","N.jpg","M.jpg","0","0","1","",""
"","feedback","","html-keyboard-response","240","554011","0.0-1.0-321.0-0.0","0","0","72074","","null","","","null","35","","","","","","","","","","","","","","","",""
"","ITI","","html-keyboard-response","241","555015","0.0-1.0-324.0","0","0","72074","","null","","","null","35","","","","","","","","","","","","","","","NaN",""
"","S1","","html-keyboard-response","242","555178","0.0-1.0-326.0","0","0","72074","","null","","","null","36","","","","","","","","","","","","","","","",""
"","ISI","","html-keyboard-response","243","557186","0.0-1.0-327.0","0","0","72074","","null","","","null","36","NaN","","","","","","","","","","","","","","",""
"","S2","","html-keyboard-response","244","557343","0.0-1.0-328.0","0","0","72074","","null","","","null","36","","NaN","","","","","","","","","","","","","",""
"","response","","html-keyboard-response","245","557687","0.0-1.0-329.0-0.0","0","0","72074","","342","","","75","36","","","1","36","training","adjacent","GF","7","6","Q.jpg","O.jpg","0","0","1","",""
"","feedback","","html-keyboard-response","246","558695","0.0-1.0-330.0-0.0","0","0","72074","","null","","","null","36","","","","","","","","","","","","","","","",""
"","ITI","","html-keyboard-response","247","559706","0.0-1.0-333.0","0","0","72074","","null","","","null","36","","","","","","","","","","","","","","","NaN",""
"","S1","","html-keyboard-response","248","559863","0.0-1.0-335.0","0","0","72074","","null","","","null","37","","","","","","","","","","","","","","","",""
"","ISI","","html-keyboard-response","249","561871","0.0-1.0-336.0","0","0","72074","","null","","","null","37","NaN","","","","","","","","","","","","","","",""
"","S2","","html-keyboard-response","250","562033","0.0-1.0-337.0","0","0","72074","","null","","","null","37","","NaN","","","","","","","","","","","","","",""
"","response","","html-keyboard-response","251","562691","0.0-1.0-338.0-0.0","0","0","72074","","656","","","75","37","","","1","37","training","adjacent","EF","5","6","L.jpg","O.jpg","0","1","0","",""
"","feedback","","html-keyboard-response","252","563705","0.0-1.0-339.0-0.0","0","0","72074","","null","","","null","37","","","","","","","","","","","","","","","",""
"","time_out","","html-keyboard-response","253","565714","0.0-1.0-341.0-0.0","0","0","72074","","null","","","null","37","","","","","","","","","","","","","","","",""
"","ITI","","html-keyboard-response","254","566721","0.0-1.0-342.0","0","0","72074","","null","","","null","37","","","","","","","","","","","","","","","NaN",""
"","S1","","html-keyboard-response","255","566881","0.0-1.0-344.0","0","0","72074","","null","","","null","38","","","","","","","","","","","","","","","",""
"","ISI","","html-keyboard-response","256","568889","0.0-1.0-345.0","0","0","72074","","null","","","null","38","NaN","","","","","","","","","","","","","","",""
"","S2","","html-keyboard-response","257","569046","0.0-1.0-346.0","0","0","72074","","null","","","null","38","","NaN","","","","","","","","","","","","","",""
"","response","","html-keyboard-response","258","569548","0.0-1.0-347.0-0.0","0","0","72074","","501","","","68","38","","","1","38","training","adjacent","EF","5","6","L.jpg","O.jpg","1","1","1","",""
"","feedback","","html-keyboard-response","259","570561","0.0-1.0-348.0-0.0","0","0","72074","","null","","","null","38","","","","","","","","","","","","","","","",""
"","ITI","","html-keyboard-response","260","571571","0.0-1.0-351.0","0","0","72074","","null","","","null","38","","","","","","","","","","","","","","","NaN",""
"","S1","","html-keyboard-response","261","571728","0.0-1.0-353.0","0","0","72074","","null","","","null","39","","","","","","","","","","","","","","","",""
"","ISI","","html-keyboard-response","262","573735","0.0-1.0-354.0","0","0","72074","","null","","","null","39","NaN","","","","","","","","","","","","","","",""
"","S2","","html-keyboard-response","263","573899","0.0-1.0-355.0","0","0","72074","","null","","","null","39","","NaN","","","","","","","","","","","","","",""
"","response","","html-keyboard-response","264","574546","0.0-1.0-356.0-0.0","0","0","72074","","646","","","68","39","","","1","39","training","adjacent","CD","3","4","M.jpg","N.jpg","1","1","1","",""
"","feedback","","html-keyboard-response","265","575553","0.0-1.0-357.0-0.0","0","0","72074","","null","","","null","39","","","","","","","","","","","","","","","",""
"","ITI","","html-keyboard-response","266","576560","0.0-1.0-360.0","0","0","72074","","null","","","null","39","","","","","","","","","","","","","","","NaN",""
"","S1","","html-keyboard-response","267","576720","0.0-1.0-362.0","0","0","72074","","null","","","null","40","","","","","","","","","","","","","","","",""
"","ISI","","html-keyboard-response","268","578729","0.0-1.0-363.0","0","0","72074","","null","","","null","40","NaN","","","","","","","","","","","","","","",""
"","S2","","html-keyboard-response","269","578892","0.0-1.0-364.0","0","0","72074","","null","","","null","40","","NaN","","","","","","","","","","","","","",""
"","response","","html-keyboard-response","270","579405","0.0-1.0-365.0-0.0","0","0","72074","","512","","","75","40","","","1","40","training","adjacent","GF","7","6","Q.jpg","O.jpg","0","0","1","",""
"","feedback","","html-keyboard-response","271","580418","0.0-1.0-366.0-0.0","0","0","72074","","null","","","null","40","","","","","","","","","","","","","","","",""
"","ITI","","html-keyboard-response","272","581422","0.0-1.0-369.0","0","0","72074","","null","","","null","40","","","","","","","","","","","","","","","NaN",""
"","S1","","html-keyboard-response","273","581585","0.0-1.0-371.0","0","0","72074","","null","","","null","41","","","","","","","","","","","","","","","",""
"","ISI","","html-keyboard-response","274","583593","0.0-1.0-372.0","0","0","72074","","null","","","null","41","NaN","","","","","","","","","","","","","","",""
"","S2","","html-keyboard-response","275","583750","0.0-1.0-373.0","0","0","72074","","null","","","null","41","","NaN","","","","","","","","","","","","","",""
"","response","","html-keyboard-response","276","584372","0.0-1.0-374.0-0.0","0","0","72074","","619","","","68","41","","","1","41","training","adjacent","BC","2","3","P.jpg","M.jpg","1","1","1","",""
"","feedback","","html-keyboard-response","277","585387","0.0-1.0-375.0-0.0","0","0","72074","","null","","","null","41","","","","","","","","","","","","","","","",""
"","ITI","","html-keyboard-response","278","586391","0.0-1.0-378.0","0","0","72074","","null","","","null","41","","","","","","","","","","","","","","","NaN",""
"","S1","","html-keyboard-response","279","586554","0.0-1.0-380.0","0","0","72074","","null","","","null","42","","","","","","","","","","","","","","","",""
"","ISI","","html-keyboard-response","280","588562","0.0-1.0-381.0","0","0","72074","","null","","","null","42","NaN","","","","","","","","","","","","","","",""
"","S2","","html-keyboard-response","281","588719","0.0-1.0-382.0","0","0","72074","","null","","","null","42","","NaN","","","","","","","","","","","","","",""
"","response","","html-keyboard-response","282","589390","0.0-1.0-383.0-0.0","0","0","72074","","669","","","68","42","","","1","42","training","adjacent","BC","2","3","P.jpg","M.jpg","1","1","1","",""
"","feedback","","html-keyboard-response","283","590403","0.0-1.0-384.0-0.0","0","0","72074","","null","","","null","42","","","","","","","","","","","","","","","",""
"","ITI","","html-keyboard-response","284","591407","0.0-1.0-387.0","0","0","72074","","null","","","null","42","","","","","","","","","","","","","","","NaN",""
"","S1","","html-keyboard-response","285","591570","0.0-1.0-389.0","0","0","72074","","null","","","null","43","","","","","","","","","","","","","","","",""
"","ISI","","html-keyboard-response","286","593578","0.0-1.0-390.0","0","0","72074","","null","","","null","43","NaN","","","","","","","","","","","","","","",""
"","S2","","html-keyboard-response","287","593735","0.0-1.0-391.0","0","0","72074","","null","","","null","43","","NaN","","","","","","","","","","","","","",""
"","response","","html-keyboard-response","288","595593","0.0-1.0-392.0-0.0","0","0","72074","","null","","","null","43","","","1","43","training","adjacent","CB","3","2","M.jpg","P.jpg","NaN","0","0","",""
"","too_slow_prompt","","html-keyboard-response","289","596602","0.0-1.0-394.0-0.0","1","0","72074","","null","","","null","","","","","","","","","","","","","","","","",""
"","time_out","","html-keyboard-response","290","598611","0.0-1.0-395.0-0.0","0","0","72074","","null","","","null","43","","","","","","","","","","","","","","","",""
"","ITI","","html-keyboard-response","291","599615","0.0-1.0-396.0","0","0","72074","","null","","","null","43","","","","","","","","","","","","","","","NaN",""
"","S1","","html-keyboard-response","292","599778","0.0-1.0-398.0","0","0","72074","","null","","","null","44","","","","","","","","","","","","","","","",""
"","ISI","","html-keyboard-response","293","601786","0.0-1.0-399.0","0","0","72074","","null","","","null","44","NaN","","","","","","","","","","","","","","",""
"","S2","","html-keyboard-response","294","601943","0.0-1.0-400.0","0","0","72074","","null","","","null","44","","NaN","","","","","","","","","","","","","",""
"","response","","html-keyboard-response","295","602417","0.0-1.0-401.0-0.0","0","0","72074","","472","","","75","44","","","1","44","training","adjacent","CD","3","4","M.jpg","N.jpg","0","1","0","",""
"","feedback","","html-keyboard-response","296","603422","0.0-1.0-402.0-0.0","0","0","72074","","null","","","null","44","","","","","","","","","","","","","","","",""
"","time_out","","html-keyboard-response","297","605432","0.0-1.0-404.0-0.0","0","0","72074","","null","","","null","44","","","","","","","","","","","","","","","",""
"","ITI","","html-keyboard-response","298","606442","0.0-1.0-405.0","0","0","72074","","null","","","null","44","","","","","","","","","","","","","","","NaN",""
"","S1","","html-keyboard-response","299","606599","0.0-1.0-407.0","0","0","72074","","null","","","null","45","","","","","","","","","","","","","","","",""
"","ISI","","html-keyboard-response","300","608607","0.0-1.0-408.0","0","0","72074","","null","","","null","45","NaN","","","","","","","","","","","","","","",""
"","S2","","html-keyboard-response","301","608770","0.0-1.0-409.0","0","0","72074","","null","","","null","45","","NaN","","","","","","","","","","","","","",""
"","response","","html-keyboard-response","302","609269","0.0-1.0-410.0-0.0","0","0","72074","","498","","","68","45","","","1","45","training","adjacent","CD","3","4","M.jpg","N.jpg","1","1","1","",""
"","feedback","","html-keyboard-response","303","610279","0.0-1.0-411.0-0.0","0","0","72074","","null","","","null","45","","","","","","","","","","","","","","","",""
"","ITI","","html-keyboard-response","304","611289","0.0-1.0-414.0","0","0","72074","","null","","","null","45","","","","","","","","","","","","","","","NaN",""
"","S1","","html-keyboard-response","305","611452","0.0-1.0-416.0","0","0","72074","","null","","","null","46","","","","","","","","","","","","","","","",""
"","ISI","","html-keyboard-response","306","613457","0.0-1.0-417.0","0","0","72074","","null","","","null","46","NaN","","","","","","","","","","","","","","",""
"","S2","","html-keyboard-response","307","613617","0.0-1.0-418.0","0","0","72074","","null","","","null","46","","NaN","","","","","","","","","","","","","",""
"","response","","html-keyboard-response","308","614150","0.0-1.0-419.0-0.0","0","0","72074","","531","","","75","46","","","1","46","training","adjacent","FE","6","5","O.jpg","L.jpg","0","0","1","",""
"","feedback","","html-keyboard-response","309","615161","0.0-1.0-420.0-0.0","0","0","72074","","null","","","null","46","","","","","","","","","","","","","","","",""
"","ITI","","html-keyboard-response","310","616171","0.0-1.0-423.0","0","0","72074","","null","","","null","46","","","","","","","","","","","","","","","NaN",""
"","S1","","html-keyboard-response","311","616328","0.0-1.0-425.0","0","0","72074","","null","","","null","47","","","","","","","","","","","","","","","",""
"","ISI","","html-keyboard-response","312","618336","0.0-1.0-426.0","0","0","72074","","null","","","null","47","NaN","","","","","","","","","","","","","","",""
"","S2","","html-keyboard-response","313","618497","0.0-1.0-427.0","0","0","72074","","null","","","null","47","","NaN","","","","","","","","","","","","","",""
"","response","","html-keyboard-response","314","618816","0.0-1.0-428.0-0.0","0","0","72074","","317","","","75","47","","","1","47","training","adjacent","DC","4","3","N.jpg","M.jpg","0","0","1","",""
"","feedback","","html-keyboard-response","315","619823","0.0-1.0-429.0-0.0","0","0","72074","","null","","","null","47","","","","","","","","","","","","","","","",""
"","ITI","","html-keyboard-response","316","620833","0.0-1.0-432.0","0","0","72074","","null","","","null","47","","","","","","","","","","","","","","","NaN",""
"","block_over","","html-keyboard-response","317","686130","0.0-1.0-433.0-0.0","0","0","72074","","65295","","","32","47","","","","","","","","","","","","","","","",""
"","S1","","html-keyboard-response","318","686290","0.0-1.0-434.0","0","0","72074","","null","","","null","48","","","","","","","","","","","","","","","",""
"","ISI","","html-keyboard-response","319","688298","0.0-1.0-435.0","0","0","72074","","null","","","null","48","NaN","","","","","","","","","","","","","","",""
"","S2","","html-keyboard-response","320","688455","0.0-1.0-436.0","0","0","72074","","null","","","null","48","","NaN","","","","","","","","","","","","","",""
"","response","","html-keyboard-response","321","688694","0.0-1.0-437.0-0.0","0","0","72074","","237","","","75","48","","","2","48","training","adjacent","DE","4","5","N.jpg","L.jpg","0","1","0","",""
"","feedback","","html-keyboard-response","322","689703","0.0-1.0-438.0-0.0","0","0","72074","","null","","","null","48","","","","","","","","","","","","","","","",""
"","time_out","","html-keyboard-response","323","691712","0.0-1.0-440.0-0.0","0","0","72074","","null","","","null","48","","","","","","","","","","","","","","","",""
"","ITI","","html-keyboard-response","324","692721","0.0-1.0-441.0","0","0","72074","","null","","","null","48","","","","","","","","","","","","","","","NaN",""
"","S1","","html-keyboard-response","325","692884","0.0-1.0-443.0","0","0","72074","","null","","","null","49","","","","","","","","","","","","","","","",""
"","ISI","","html-keyboard-response","326","694887","0.0-1.0-444.0","0","0","72074","","null","","","null","49","NaN","","","","","","","","","","","","","","",""
"","S2","","html-keyboard-response","327","695050","0.0-1.0-445.0","0","0","72074","","null","","","null","49","","NaN","","","","","","","","","","","","","",""
"","response","","html-keyboard-response","328","695453","0.0-1.0-446.0-0.0","0","0","72074","","402","","","68","49","","","2","49","training","adjacent","EF","5","6","L.jpg","O.jpg","1","1","1","",""
"","feedback","","html-keyboard-response","329","696466","0.0-1.0-447.0-0.0","0","0","72074","","null","","","null","49","","","","","","","","","","","","","","","",""
"","ITI","","html-keyboard-response","330","697470","0.0-1.0-450.0","0","0","72074","","null","","","null","49","","","","","","","","","","","","","","","NaN",""
"","S1","","html-keyboard-response","331","697633","0.0-1.0-452.0","0","0","72074","","null","","","null","50","","","","","","","","","","","","","","","",""
"","ISI","","html-keyboard-response","332","699641","0.0-1.0-453.0","0","0","72074","","null","","","null","50","NaN","","","","","","","","","","","","","","",""
"","S2","","html-keyboard-response","333","699803","0.0-1.0-454.0","0","0","72074","","null","","","null","50","","NaN","","","","","","","","","","","","","",""
"","response","","html-keyboard-response","334","700168","0.0-1.0-455.0-0.0","0","0","72074","","362","","","68","50","","","2","50","training","adjacent","EF","5","6","L.jpg","O.jpg","1","1","1","",""
"","feedback","","html-keyboard-response","335","701179","0.0-1.0-456.0-0.0","0","0","72074","","null","","","null","50","","","","","","","","","","","","","","","",""
"","ITI","","html-keyboard-response","336","702184","0.0-1.0-459.0","0","0","72074","","null","","","null","50","","","","","","","","","","","","","","","NaN",""
"","S1","","html-keyboard-response","337","702346","0.0-1.0-461.0","0","0","72074","","null","","","null","51","","","","","","","","","","","","","","","",""
"","ISI","","html-keyboard-response","338","704355","0.0-1.0-462.0","0","0","72074","","null","","","null","51","NaN","","","","","","","","","","","","","","",""
"","S2","","html-keyboard-response","339","704512","0.0-1.0-463.0","0","0","72074","","null","","","null","51","","NaN","","","","","","","","","","","","","",""
"","response","","html-keyboard-response","340","704939","0.0-1.0-464.0-0.0","0","0","72074","","426","","","68","51","","","2","51","training","adjacent","ED","5","4","L.jpg","N.jpg","1","0","0","",""
"","feedback","","html-keyboard-response","341","705945","0.0-1.0-465.0-0.0","0","0","72074","","null","","","null","51","","","","","","","","","","","","","","","",""
"","time_out","","html-keyboard-response","342","707954","0.0-1.0-467.0-0.0","0","0","72074","","null","","","null","51","","","","","","","","","","","","","","","",""
"","ITI","","html-keyboard-response","343","708961","0.0-1.0-468.0","0","0","72074","","null","","","null","51","","","","","","","","","","","","","","","NaN",""
"","S1","","html-keyboard-response","344","709121","0.0-1.0-470.0","0","0","72074","","null","","","null","52","","","","","","","","","","","","","","","",""
"","ISI","","html-keyboard-response","345","711129","0.0-1.0-471.0","0","0","72074","","null","","","null","52","NaN","","","","","","","","","","","","","","",""
"","S2","","html-keyboard-response","346","711292","0.0-1.0-472.0","0","0","72074","","null","","","null","52","","NaN","","","","","","","","","","","","","",""
"","response","","html-keyboard-response","347","711574","0.0-1.0-473.0-0.0","0","0","72074","","280","","","75","52","","","2","52","training","adjacent","FE","6","5","O.jpg","L.jpg","0","0","1","",""
"","feedback","","html-keyboard-response","348","712587","0.0-1.0-474.0-0.0","0","0","72074","","null","","","null","52","","","","","","","","","","","","","","","",""
"","ITI","","html-keyboard-response","349","713591","0.0-1.0-477.0","0","0","72074","","null","","","null","52","","","","","","","","","","","","","","","NaN",""
"","S1","","html-keyboard-response","350","713753","0.0-1.0-479.0","0","0","72074","","null","","","null","53","","","","","","","","","","","","","","","",""
"","ISI","","html-keyboard-response","351","715762","0.0-1.0-480.0","0","0","72074","","null","","","null","53","NaN","","","","","","","","","","","","","","",""
"","S2","","html-keyboard-response","352","715918","0.0-1.0-481.0","0","0","72074","","null","","","null","53","","NaN","","","","","","","","","","","","","",""
"","response","","html-keyboard-response","353","716505","0.0-1.0-482.0-0.0","0","0","72074","","584","","","75","53","","","2","53","training","adjacent","FE","6","5","O.jpg","L.jpg","0","0","1","",""
"","feedback","","html-keyboard-response","354","717515","0.0-1.0-483.0-0.0","0","0","72074","","null","","","null","53","","","","","","","","","","","","","","","",""
"","ITI","","html-keyboard-response","355","718519","0.0-1.0-486.0","0","0","72074","","null","","","null","53","","","","","","","","","","","","","","","NaN",""
"","S1","","html-keyboard-response","356","718682","0.0-1.0-488.0","0","0","72074","","null","","","null","54","","","","","","","","","","","","","","","",""
"","ISI","","html-keyboard-response","357","720691","0.0-1.0-489.0","0","0","72074","","null","","","null","54","NaN","","","","","","","","","","","","","","",""
"","S2","","html-keyboard-response","358","720847","0.0-1.0-490.0","0","0","72074","","null","","","null","54","","NaN","","","","","","","","","","","","","",""
"","response","","html-keyboard-response","359","721392","0.0-1.0-491.0-0.0","0","0","72074","","543","","","75","54","","","2","54","training","adjacent","DC","4","3","N.jpg","M.jpg","0","0","1","",""
"","feedback","","html-keyboard-response","360","722403","0.0-1.0-492.0-0.0","0","0","72074","","null","","","null","54","","","","","","","","","","","","","","","",""
"","ITI","","html-keyboard-response","361","723407","0.0-1.0-495.0","0","0","72074","","null","","","null","54","","","","","","","","","","","","","","","NaN",""
"","S1","","html-keyboard-response","362","723570","0.0-1.0-497.0","0","0","72074","","null","","","null","55","","","","","","","","","","","","","","","",""
"","ISI","","html-keyboard-response","363","725579","0.0-1.0-498.0","0","0","72074","","null","","","null","55","NaN","","","","","","","","","","","","","","",""
"","S2","","html-keyboard-response","364","725735","0.0-1.0-499.0","0","0","72074","","null","","","null","55","","NaN","","","","","","","","","","","","","",""
"","response","","html-keyboard-response","365","726196","0.0-1.0-500.0-0.0","0","0","72074","","459","","","75","55","","","2","55","training","adjacent","AB","1","2","R.jpg","P.jpg","0","1","0","",""
"","feedback","","html-keyboard-response","366","727209","0.0-1.0-501.0-0.0","0","0","72074","","null","","","null","55","","","","","","","","","","","","","","","",""
"","time_out","","html-keyboard-response","367","729218","0.0-1.0-503.0-0.0","0","0","72074","","null","","","null","55","","","","","","","","","","","","","","","",""
"","ITI","","html-keyboard-response","368","730222","0.0-1.0-504.0","0","0","72074","","null","","","null","55","","","","","","","","","","","","","","","NaN",""
"","S1","","html-keyboard-response","369","730385","0.0-1.0-506.0","0","0","72074","","null","","","null","56","","","","","","","","","","","","","","","",""
"","ISI","","html-keyboard-response","370","732393","0.0-1.0-507.0","0","0","72074","","null","","","null","56","NaN","","","","","","","","","","","","","","",""
"","S2","","html-keyboard-response","371","732556","0.0-1.0-508.0","0","0","72074","","null","","","null","56","","NaN","","","","","","","","","","","","","",""
"","response","","html-keyboard-response","372","732931","0.0-1.0-509.0-0.0","0","0","72074","","373","","","68","56","","","2","56","training","adjacent","CB","3","2","M.jpg","P.jpg","1","0","0","",""
"","feedback","","html-keyboard-response","373","733937","0.0-1.0-510.0-0.0","0","0","72074","","null","","","null","56","","","","","","","","","","","","","","","",""
"","time_out","","html-keyboard-response","374","735946","0.0-1.0-512.0-0.0","0","0","72074","","null","","","null","56","","","","","","","","","","","","","","","",""
"","ITI","","html-keyboard-response","375","736953","0.0-1.0-513.0","0","0","72074","","null","","","null","56","","","","","","","","","","","","","","","NaN",""
"","S1","","html-keyboard-response","376","737113","0.0-1.0-515.0","0","0","72074","","null","","","null","57","","","","","","","","","","","","","","","",""
"","ISI","","html-keyboard-response","377","739121","0.0-1.0-516.0","0","0","72074","","null","","","null","57","NaN","","","","","","","","","","","","","","",""
"","S2","","html-keyboard-response","378","739284","0.0-1.0-517.0","0","0","72074","","null","","","null","57","","NaN","","","","","","","","","","","","","",""
"","response","","html-keyboard-response","379","739680","0.0-1.0-518.0-0.0","0","0","72074","","394","","","68","57","","","2","57","training","adjacent","FG","6","7","O.jpg","Q.jpg","1","1","1","",""
"","feedback","","html-keyboard-response","380","740688","0.0-1.0-519.0-0.0","0","0","72074","","null","","","null","57","","","","","","","","","","","","","","","",""
"","ITI","","html-keyboard-response","381","741699","0.0-1.0-522.0","0","0","72074","","null","","","null","57","","","","","","","","","","","","","","","NaN",""
"","S1","","html-keyboard-response","382","741856","0.0-1.0-524.0","0","0","72074","","null","","","null","58","","","","","","","","","","","","","","","",""
"","ISI","","html-keyboard-response","383","743864","0.0-1.0-525.0","0","0","72074","","null","","","null","58","NaN","","","","","","","","","","","","","","",""
"","S2","","html-keyboard-response","384","744027","0.0-1.0-526.0","0","0","72074","","null","","","null","58","","NaN","","","","","","","","","","","","","",""
"","response","","html-keyboard-response","385","744558","0.0-1.0-527.0-0.0","0","0","72074","","529","","","68","58","","","2","58","training","adjacent","BC","2","3","P.jpg","M.jpg","1","1","1","",""
"","feedback","","html-keyboard-response","386","745570","0.0-1.0-528.0-0.0","0","0","72074","","null","","","null","58","","","","","","","","","","","","","","","",""
"","ITI","","html-keyboard-response","387","746579","0.0-1.0-531.0","0","0","72074","","null","","","null","58","","","","","","","","","","","","","","","NaN",""
"","S1","","html-keyboard-response","388","746737","0.0-1.0-533.0","0","0","72074","","null","","","null","59","","","","","","","","","","","","","","","",""
"","ISI","","html-keyboard-response","389","748746","0.0-1.0-534.0","0","0","72074","","null","","","null","59","NaN","","","","","","","","","","","","","","",""
"","S2","","html-keyboard-response","390","748903","0.0-1.0-535.0","0","0","72074","","null","","","null","59","","NaN","","","","","","","","","","","","","",""
"","response","","html-keyboard-response","391","749330","0.0-1.0-536.0-0.0","0","0","72074","","425","","","68","59","","","2","59","training","adjacent","BC","2","3","P.jpg","M.jpg","1","1","1","",""
"","feedback","","html-keyboard-response","392","750337","0.0-1.0-537.0-0.0","0","0","72074","","null","","","null","59","","","","","","","","","","","","","","","",""
"","ITI","","html-keyboard-response","393","751347","0.0-1.0-540.0","0","0","72074","","null","","","null","59","","","","","","","","","","","","","","","NaN",""
"","S1","","html-keyboard-response","394","751503","0.0-1.0-542.0","0","0","72074","","null","","","null","60","","","","","","","","","","","","","","","",""
"","ISI","","html-keyboard-response","395","753512","0.0-1.0-543.0","0","0","72074","","null","","","null","60","NaN","","","","","","","","","","","","","","",""
"","S2","","html-keyboard-response","396","753675","0.0-1.0-544.0","0","0","72074","","null","","","null","60","","NaN","","","","","","","","","","","","","",""
"","response","","html-keyboard-response","397","754070","0.0-1.0-545.0-0.0","0","0","72074","","393","","","75","60","","","2","60","training","adjacent","GF","7","6","Q.jpg","O.jpg","0","0","1","",""
"","feedback","","html-keyboard-response","398","755079","0.0-1.0-546.0-0.0","0","0","72074","","null","","","null","60","","","","","","","","","","","","","","","",""
"","ITI","","html-keyboard-response","399","756089","0.0-1.0-549.0","0","0","72074","","null","","","null","60","","","","","","","","","","","","","","","NaN",""
"","S1","","html-keyboard-response","400","756252","0.0-1.0-551.0","0","0","72074","","null","","","null","61","","","","","","","","","","","","","","","",""
"","ISI","","html-keyboard-response","401","758254","0.0-1.0-552.0","0","0","72074","","null","","","null","61","NaN","","","","","","","","","","","","","","",""
"","S2","","html-keyboard-response","402","758411","0.0-1.0-553.0","0","0","72074","","null","","","null","61","","NaN","","","","","","","","","","","","","",""
"","response","","html-keyboard-response","403","759277","0.0-1.0-554.0-0.0","0","0","72074","","864","","","75","61","","","2","61","training","adjacent","DE","4","5","N.jpg","L.jpg","0","1","0","",""
"","feedback","","html-keyboard-response","404","760280","0.0-1.0-555.0-0.0","0","0","72074","","null","","","null","61","","","","","","","","","","","","","","","",""
"","time_out","","html-keyboard-response","405","762288","0.0-1.0-557.0-0.0","0","0","72074","","null","","","null","61","","","","","","","","","","","","","","","",""
"","ITI","","html-keyboard-response","406","763299","0.0-1.0-558.0","0","0","72074","","null","","","null","61","","","","","","","","","","","","","","","NaN",""
"","S1","","html-keyboard-response","407","763456","0.0-1.0-560.0","0","0","72074","","null","","","null","62","","","","","","","","","","","","","","","",""
"","ISI","","html-keyboard-response","408","765463","0.0-1.0-561.0","0","0","72074","","null","","","null","62","NaN","","","","","","","","","","","","","","",""
"","S2","","html-keyboard-response","409","765627","0.0-1.0-562.0","0","0","72074","","null","","","null","62","","NaN","","","","","","","","","","","","","",""
"","response","","html-keyboard-response","410","766214","0.0-1.0-563.0-0.0","0","0","72074","","586","","","75","62","","","2","62","training","adjacent","EF","5","6","L.jpg","O.jpg","0","1","0","",""
"","feedback","","html-keyboard-response","411","767223","0.0-1.0-564.0-0.0","0","0","72074","","null","","","null","62","","","","","","","","","","","","","","","",""
"","time_out","","html-keyboard-response","412","769232","0.0-1.0-566.0-0.0","0","0","72074","","null","","","null","62","","","","","","","","","","","","","","","",""
"","ITI","","html-keyboard-response","413","770242","0.0-1.0-567.0","0","0","72074","","null","","","null","62","","","","","","","","","","","","","","","NaN",""
"","S1","","html-keyboard-response","414","770399","0.0-1.0-569.0","0","0","72074","","null","","","null","63","","","","","","","","","","","","","","","",""
"","ISI","","html-keyboard-response","415","772407","0.0-1.0-570.0","0","0","72074","","null","","","null","63","NaN","","","","","","","","","","","","","","",""
"","S2","","html-keyboard-response","416","772570","0.0-1.0-571.0","0","0","72074","","null","","","null","63","","NaN","","","","","","","","","","","","","",""
"","response","","html-keyboard-response","417","773173","0.0-1.0-572.0-0.0","0","0","72074","","602","","","75","63","","","2","63","training","adjacent","CB","3","2","M.jpg","P.jpg","0","0","1","",""
"","feedback","","html-keyboard-response","418","774184","0.0-1.0-573.0-0.0","0","0","72074","","null","","","null","63","","","","","","","","","","","","","","","",""
"","ITI","","html-keyboard-response","419","775194","0.0-1.0-576.0","0","0","72074","","null","","","null","63","","","","","","","","","","","","","","","NaN",""
"","S1","","html-keyboard-response","420","775356","0.0-1.0-578.0","0","0","72074","","null","","","null","64","","","","","","","","","","","","","","","",""
"","ISI","","html-keyboard-response","421","777364","0.0-1.0-579.0","0","0","72074","","null","","","null","64","NaN","","","","","","","","","","","","","","",""
"","S2","","html-keyboard-response","422","777521","0.0-1.0-580.0","0","0","72074","","null","","","null","64","","NaN","","","","","","","","","","","","","",""
"","response","","html-keyboard-response","423","778106","0.0-1.0-581.0-0.0","0","0","72074","","582","","","68","64","","","2","64","training","adjacent","CD","3","4","M.jpg","N.jpg","1","1","1","",""
"","feedback","","html-keyboard-response","424","779112","0.0-1.0-582.0-0.0","0","0","72074","","null","","","null","64","","","","","","","","","","","","","","","",""
"","ITI","","html-keyboard-response","425","780122","0.0-1.0-585.0","0","0","72074","","null","","","null","64","","","","","","","","","","","","","","","NaN",""
"","S1","","html-keyboard-response","426","780279","0.0-1.0-587.0","0","0","72074","","null","","","null","65","","","","","","","","","","","","","","","",""
"","ISI","","html-keyboard-response","427","782287","0.0-1.0-588.0","0","0","72074","","null","","","null","65","NaN","","","","","","","","","","","","","","",""
"","S2","","html-keyboard-response","428","782450","0.0-1.0-589.0","0","0","72074","","null","","","null","65","","NaN","","","","","","","","","","","","","",""
"","response","","html-keyboard-response","429","782886","0.0-1.0-590.0-0.0","0","0","72074","","433","","","68","65","","","2","65","training","adjacent","FG","6","7","O.jpg","Q.jpg","1","1","1","",""
"","feedback","","html-keyboard-response","430","783896","0.0-1.0-591.0-0.0","0","0","72074","","null","","","null","65","","","","","","","","","","","","","","","",""
"","ITI","","html-keyboard-response","431","784905","0.0-1.0-594.0","0","0","72074","","null","","","null","65","","","","","","","","","","","","","","","NaN",""
"","S1","","html-keyboard-response","432","785068","0.0-1.0-596.0","0","0","72074","","null","","","null","66","","","","","","","","","","","","","","","",""
"","ISI","","html-keyboard-response","433","787071","0.0-1.0-597.0","0","0","72074","","null","","","null","66","NaN","","","","","","","","","","","","","","",""
"","S2","","html-keyboard-response","434","787233","0.0-1.0-598.0","0","0","72074","","null","","","null","66","","NaN","","","","","","","","","","","","","",""
"","response","","html-keyboard-response","435","787647","0.0-1.0-599.0-0.0","0","0","72074","","412","","","68","66","","","2","66","training","adjacent","FG","6","7","O.jpg","Q.jpg","1","1","1","",""
"","feedback","","html-keyboard-response","436","788655","0.0-1.0-600.0-0.0","0","0","72074","","null","","","null","66","","","","","","","","","","","","","","","",""
"","ITI","","html-keyboard-response","437","789665","0.0-1.0-603.0","0","0","72074","","null","","","null","66","","","","","","","","","","","","","","","NaN",""
"","S1","","html-keyboard-response","438","789828","0.0-1.0-605.0","0","0","72074","","null","","","null","67","","","","","","","","","","","","","","","",""
"","ISI","","html-keyboard-response","439","791831","0.0-1.0-606.0","0","0","72074","","null","","","null","67","NaN","","","","","","","","","","","","","","",""
"","S2","","html-keyboard-response","440","791994","0.0-1.0-607.0","0","0","72074","","null","","","null","67","","NaN","","","","","","","","","","","","","",""
"","response","","html-keyboard-response","441","792374","0.0-1.0-608.0-0.0","0","0","72074","","378","","","68","67","","","2","67","training","adjacent","AB","1","2","R.jpg","P.jpg","1","1","1","",""
"","feedback","","html-keyboard-response","442","793387","0.0-1.0-609.0-0.0","0","0","72074","","null","","","null","67","","","","","","","","","","","","","","","",""
"","ITI","","html-keyboard-response","443","794391","0.0-1.0-612.0","0","0","72074","","null","","","null","67","","","","","","","","","","","","","","","NaN",""
"","S1","","html-keyboard-response","444","794553","0.0-1.0-614.0","0","0","72074","","null","","","null","68","","","","","","","","","","","","","","","",""
"","ISI","","html-keyboard-response","445","796562","0.0-1.0-615.0","0","0","72074","","null","","","null","68","NaN","","","","","","","","","","","","","","",""
"","S2","","html-keyboard-response","446","796724","0.0-1.0-616.0","0","0","72074","","null","","","null","68","","NaN","","","","","","","","","","","","","",""
"","response","","html-keyboard-response","447","797254","0.0-1.0-617.0-0.0","0","0","72074","","529","","","75","68","","","2","68","training","adjacent","EF","5","6","L.jpg","O.jpg","0","1","0","",""
"","feedback","","html-keyboard-response","448","798263","0.0-1.0-618.0-0.0","0","0","72074","","null","","","null","68","","","","","","","","","","","","","","","",""
"","time_out","","html-keyboard-response","449","800271","0.0-1.0-620.0-0.0","0","0","72074","","null","","","null","68","","","","","","","","","","","","","","","",""
"","ITI","","html-keyboard-response","450","801281","0.0-1.0-621.0","0","0","72074","","null","","","null","68","","","","","","","","","","","","","","","NaN",""
"","S1","","html-keyboard-response","451","801444","0.0-1.0-623.0","0","0","72074","","null","","","null","69","","","","","","","","","","","","","","","",""
"","ISI","","html-keyboard-response","452","803447","0.0-1.0-624.0","0","0","72074","","null","","","null","69","NaN","","","","","","","","","","","","","","",""
"","S2","","html-keyboard-response","453","803609","0.0-1.0-625.0","0","0","72074","","null","","","null","69","","NaN","","","","","","","","","","","","","",""
"","response","","html-keyboard-response","454","803980","0.0-1.0-626.0-0.0","0","0","72074","","370","","","68","69","","","2","69","training","adjacent","AB","1","2","R.jpg","P.jpg","1","1","1","",""
"","feedback","","html-keyboard-response","455","804991","0.0-1.0-627.0-0.0","0","0","72074","","null","","","null","69","","","","","","","","","","","","","","","",""
"","ITI","","html-keyboard-response","456","806001","0.0-1.0-630.0","0","0","72074","","null","","","null","69","","","","","","","","","","","","","","","NaN",""
"","S1","","html-keyboard-response","457","806163","0.0-1.0-632.0","0","0","72074","","null","","","null","70","","","","","","","","","","","","","","","",""
"","ISI","","html-keyboard-response","458","808172","0.0-1.0-633.0","0","0","72074","","null","","","null","70","NaN","","","","","","","","","","","","","","",""
"","S2","","html-keyboard-response","459","808328","0.0-1.0-634.0","0","0","72074","","null","","","null","70","","NaN","","","","","","","","","","","","","",""
"","response","","html-keyboard-response","460","808655","0.0-1.0-635.0-0.0","0","0","72074","","324","","","68","70","","","2","70","training","adjacent","FG","6","7","O.jpg","Q.jpg","1","1","1","",""
"","feedback","","html-keyboard-response","461","809664","0.0-1.0-636.0-0.0","0","0","72074","","null","","","null","70","","","","","","","","","","","","","","","",""
"","ITI","","html-keyboard-response","462","810674","0.0-1.0-639.0","0","0","72074","","null","","","null","70","","","","","","","","","","","","","","","NaN",""
"","S1","","html-keyboard-response","463","810836","0.0-1.0-641.0","0","0","72074","","null","","","null","71","","","","","","","","","","","","","","","",""
"","ISI","","html-keyboard-response","464","812839","0.0-1.0-642.0","0","0","72074","","null","","","null","71","NaN","","","","","","","","","","","","","","",""
"","S2","","html-keyboard-response","465","813002","0.0-1.0-643.0","0","0","72074","","null","","","null","71","","NaN","","","","","","","","","","","","","",""
"","response","","html-keyboard-response","466","813383","0.0-1.0-644.0-0.0","0","0","72074","","379","","","68","71","","","2","71","training","adjacent","FE","6","5","O.jpg","L.jpg","1","0","0","",""
"","feedback","","html-keyboard-response","467","814395","0.0-1.0-645.0-0.0","0","0","72074","","null","","","null","71","","","","","","","","","","","","","","","",""
"","time_out","","html-keyboard-response","468","816403","0.0-1.0-647.0-0.0","0","0","72074","","null","","","null","71","","","","","","","","","","","","","","","",""
"","ITI","","html-keyboard-response","469","817408","0.0-1.0-648.0","0","0","72074","","null","","","null","71","","","","","","","","","","","","","","","NaN",""
"","S1","","html-keyboard-response","470","817570","0.0-1.0-650.0","0","0","72074","","null","","","null","72","","","","","","","","","","","","","","","",""
"","ISI","","html-keyboard-response","471","819579","0.0-1.0-651.0","0","0","72074","","null","","","null","72","NaN","","","","","","","","","","","","","","",""
"","S2","","html-keyboard-response","472","819736","0.0-1.0-652.0","0","0","72074","","null","","","null","72","","NaN","","","","","","","","","","","","","",""
"","response","","html-keyboard-response","473","820214","0.0-1.0-653.0-0.0","0","0","72074","","476","","","68","72","","","2","72","training","adjacent","DE","4","5","N.jpg","L.jpg","1","1","1","",""
"","feedback","","html-keyboard-response","474","821227","0.0-1.0-654.0-0.0","0","0","72074","","null","","","null","72","","","","","","","","","","","","","","","",""
"","ITI","","html-keyboard-response","475","822232","0.0-1.0-657.0","0","0","72074","","null","","","null","72","","","","","","","","","","","","","","","NaN",""
"","S1","","html-keyboard-response","476","822394","0.0-1.0-659.0","0","0","72074","","null","","","null","73","","","","","","","","","","","","","","","",""
"","ISI","","html-keyboard-response","477","824402","0.0-1.0-660.0","0","0","72074","","null","","","null","73","NaN","","","","","","","","","","","","","","",""
"","S2","","html-keyboard-response","478","824560","0.0-1.0-661.0","0","0","72074","","null","","","null","73","","NaN","","","","","","","","","","","","","",""
"","response","","html-keyboard-response","479","824873","0.0-1.0-662.0-0.0","0","0","72074","","311","","","75","73","","","2","73","training","adjacent","GF","7","6","Q.jpg","O.jpg","0","0","1","",""
"","feedback","","html-keyboard-response","480","825883","0.0-1.0-663.0-0.0","0","0","72074","","null","","","null","73","","","","","","","","","","","","","","","",""
"","ITI","","html-keyboard-response","481","826887","0.0-1.0-666.0","0","0","72074","","null","","","null","73","","","","","","","","","","","","","","","NaN",""
"","S1","","html-keyboard-response","482","827050","0.0-1.0-668.0","0","0","72074","","null","","","null","74","","","","","","","","","","","","","","","",""
"","ISI","","html-keyboard-response","483","829059","0.0-1.0-669.0","0","0","72074","","null","","","null","74","NaN","","","","","","","","","","","","","","",""
"","S2","","html-keyboard-response","484","829215","0.0-1.0-670.0","0","0","72074","","null","","","null","74","","NaN","","","","","","","","","","","","","",""
"","response","","html-keyboard-response","485","829840","0.0-1.0-671.0-0.0","0","0","72074","","623","","","75","74","","","2","74","training","adjacent","AB","1","2","R.jpg","P.jpg","0","1","0","",""
"","feedback","","html-keyboard-response","486","830852","0.0-1.0-672.0-0.0","0","0","72074","","null","","","null","74","","","","","","","","","","","","","","","",""
"","time_out","","html-keyboard-response","487","832855","0.0-1.0-674.0-0.0","0","0","72074","","null","","","null","74","","","","","","","","","","","","","","","",""
"","ITI","","html-keyboard-response","488","833865","0.0-1.0-675.0","0","0","72074","","null","","","null","74","","","","","","","","","","","","","","","NaN",""
"","S1","","html-keyboard-response","489","834028","0.0-1.0-677.0","0","0","72074","","null","","","null","75","","","","","","","","","","","","","","","",""
"","ISI","","html-keyboard-response","490","836036","0.0-1.0-678.0","0","0","72074","","null","","","null","75","NaN","","","","","","","","","","","","","","",""
"","S2","","html-keyboard-response","491","836193","0.0-1.0-679.0","0","0","72074","","null","","","null","75","","NaN","","","","","","","","","","","","","",""
"","response","","html-keyboard-response","492","836519","0.0-1.0-680.0-0.0","0","0","72074","","325","","","75","75","","","2","75","training","adjacent","CB","3","2","M.jpg","P.jpg","0","0","1","",""
"","feedback","","html-keyboard-response","493","837528","0.0-1.0-681.0-0.0","0","0","72074","","null","","","null","75","","","","","","","","","","","","","","","",""
"","ITI","","html-keyboard-response","494","838538","0.0-1.0-684.0","0","0","72074","","null","","","null","75","","","","","","","","","","","","","","","NaN",""
"","S1","","html-keyboard-response","495","838700","0.0-1.0-686.0","0","0","72074","","null","","","null","76","","","","","","","","","","","","","","","",""
"","ISI","","html-keyboard-response","496","840706","0.0-1.0-687.0","0","0","72074","","null","","","null","76","NaN","","","","","","","","","","","","","","",""
"","S2","","html-keyboard-response","497","840866","0.0-1.0-688.0","0","0","72074","","null","","","null","76","","NaN","","","","","","","","","","","","","",""
"","response","","html-keyboard-response","498","841494","0.0-1.0-689.0-0.0","0","0","72074","","627","","","68","76","","","2","76","training","adjacent","DC","4","3","N.jpg","M.jpg","1","0","0","",""
"","feedback","","html-keyboard-response","499","842508","0.0-1.0-690.0-0.0","0","0","72074","","null","","","null","76","","","","","","","","","","","","","","","",""
"","time_out","","html-keyboard-response","500","844511","0.0-1.0-692.0-0.0","0","0","72074","","null","","","null","76","","","","","","","","","","","","","","","",""
"","ITI","","html-keyboard-response","501","845521","0.0-1.0-693.0","0","0","72074","","null","","","null","76","","","","","","","","","","","","","","","NaN",""
"","S1","","html-keyboard-response","502","845684","0.0-1.0-695.0","0","0","72074","","null","","","null","77","","","","","","","","","","","","","","","",""
"","ISI","","html-keyboard-response","503","847692","0.0-1.0-696.0","0","0","72074","","null","","","null","77","NaN","","","","","","","","","","","","","","",""
"","S2","","html-keyboard-response","504","847849","0.0-1.0-697.0","0","0","72074","","null","","","null","77","","NaN","","","","","","","","","","","","","",""
"","response","","html-keyboard-response","505","848348","0.0-1.0-698.0-0.0","0","0","72074","","497","","","68","77","","","2","77","training","adjacent","DC","4","3","N.jpg","M.jpg","1","0","0","",""
"","feedback","","html-keyboard-response","506","849364","0.0-1.0-699.0-0.0","0","0","72074","","null","","","null","77","","","","","","","","","","","","","","","",""
"","time_out","","html-keyboard-response","507","851367","0.0-1.0-701.0-0.0","0","0","72074","","null","","","null","77","","","","","","","","","","","","","","","",""
"","ITI","","html-keyboard-response","508","852377","0.0-1.0-702.0","0","0","72074","","null","","","null","77","","","","","","","","","","","","","","","NaN",""
"","S1","","html-keyboard-response","509","852539","0.0-1.0-704.0","0","0","72074","","null","","","null","78","","","","","","","","","","","","","","","",""
"","ISI","","html-keyboard-response","510","854548","0.0-1.0-705.0","0","0","72074","","null","","","null","78","NaN","","","","","","","","","","","","","","",""
"","S2","","html-keyboard-response","511","854704","0.0-1.0-706.0","0","0","72074","","null","","","null","78","","NaN","","","","","","","","","","","","","",""
"","response","","html-keyboard-response","512","855322","0.0-1.0-707.0-0.0","0","0","72074","","616","","","68","78","","","2","78","training","adjacent","BA","2","1","P.jpg","R.jpg","1","0","0","",""
"","feedback","","html-keyboard-response","513","856329","0.0-1.0-708.0-0.0","0","0","72074","","null","","","null","78","","","","","","","","","","","","","","","",""
"","time_out","","html-keyboard-response","514","858339","0.0-1.0-710.0-0.0","0","0","72074","","null","","","null","78","","","","","","","","","","","","","","","",""
"","ITI","","html-keyboard-response","515","859346","0.0-1.0-711.0","0","0","72074","","null","","","null","78","","","","","","","","","","","","","","","NaN",""
"","S1","","html-keyboard-response","516","859505","0.0-1.0-713.0","0","0","72074","","null","","","null","79","","","","","","","","","","","","","","","",""
"","ISI","","html-keyboard-response","517","861514","0.0-1.0-714.0","0","0","72074","","null","","","null","79","NaN","","","","","","","","","","","","","","",""
"","S2","","html-keyboard-response","518","861671","0.0-1.0-715.0","0","0","72074","","null","","","null","79","","NaN","","","","","","","","","","","","","",""
"","response","","html-keyboard-response","519","861956","0.0-1.0-716.0-0.0","0","0","72074","","283","","","75","79","","","2","79","training","adjacent","CD","3","4","M.jpg","N.jpg","0","1","0","",""
"","feedback","","html-keyboard-response","520","862959","0.0-1.0-717.0-0.0","0","0","72074","","null","","","null","79","","","","","","","","","","","","","","","",""
"","time_out","","html-keyboard-response","521","864968","0.0-1.0-719.0-0.0","0","0","72074","","null","","","null","79","","","","","","","","","","","","","","","",""
"","ITI","","html-keyboard-response","522","865978","0.0-1.0-720.0","0","0","72074","","null","","","null","79","","","","","","","","","","","","","","","NaN",""
"","S1","","html-keyboard-response","523","866135","0.0-1.0-722.0","0","0","72074","","null","","","null","80","","","","","","","","","","","","","","","",""
"","ISI","","html-keyboard-response","524","868144","0.0-1.0-723.0","0","0","72074","","1086","","","68","80","d","","","","","","","","","","","","","","",""
"","S2","","html-keyboard-response","525","868306","0.0-1.0-724.0","0","0","72074","","null","","","null","80","","NaN","","","","","","","","","","","","","",""
"","response","","html-keyboard-response","526","868751","0.0-1.0-725.0-0.0","0","0","72074","","444","","","68","80","","","2","80","training","adjacent","ED","5","4","L.jpg","N.jpg","1","0","0","",""
"","feedback","","html-keyboard-response","527","869763","0.0-1.0-726.0-0.0","0","0","72074","","null","","","null","80","","","","","","","","","","","","","","","",""
"","time_out","","html-keyboard-response","528","871772","0.0-1.0-728.0-0.0","0","0","72074","","null","","","null","80","","","","","","","","","","","","","","","",""
"","ITI","","html-keyboard-response","529","872776","0.0-1.0-729.0","0","0","72074","","null","","","null","80","","","","","","","","","","","","","","","NaN",""
"","S1","","html-keyboard-response","530","872938","0.0-1.0-731.0","0","0","72074","","null","","","null","81","","","","","","","","","","","","","","","",""
"","ISI","","html-keyboard-response","531","874947","0.0-1.0-732.0","0","0","72074","","null","","","null","81","NaN","","","","","","","","","","","","","","",""
"","S2","","html-keyboard-response","532","875104","0.0-1.0-733.0","0","0","72074","","null","","","null","81","","NaN","","","","","","","","","","","","","",""
"","response","","html-keyboard-response","533","875659","0.0-1.0-734.0-0.0","0","0","72074","","553","","","68","81","","","2","81","training","adjacent","CD","3","4","M.jpg","N.jpg","1","1","1","",""
"","feedback","","html-keyboard-response","534","876665","0.0-1.0-735.0-0.0","0","0","72074","","null","","","null","81","","","","","","","","","","","","","","","",""
"","ITI","","html-keyboard-response","535","877675","0.0-1.0-738.0","0","0","72074","","null","","","null","81","","","","","","","","","","","","","","","NaN",""
"","S1","","html-keyboard-response","536","877832","0.0-1.0-740.0","0","0","72074","","null","","","null","82","","","","","","","","","","","","","","","",""
"","ISI","","html-keyboard-response","537","879840","0.0-1.0-741.0","0","0","72074","","null","","","null","82","NaN","","","","","","","","","","","","","","",""
"","S2","","html-keyboard-response","538","880003","0.0-1.0-742.0","0","0","72074","","null","","","null","82","","NaN","","","","","","","","","","","","","",""
"","response","","html-keyboard-response","539","880580","0.0-1.0-743.0-0.0","0","0","72074","","574","","","68","82","","","2","82","training","adjacent","CD","3","4","M.jpg","N.jpg","1","1","1","",""
"","feedback","","html-keyboard-response","540","881588","0.0-1.0-744.0-0.0","0","0","72074","","null","","","null","82","","","","","","","","","","","","","","","",""
"","ITI","","html-keyboard-response","541","882592","0.0-1.0-747.0","0","0","72074","","null","","","null","82","","","","","","","","","","","","","","","NaN",""
"","S1","","html-keyboard-response","542","882755","0.0-1.0-749.0","0","0","72074","","null","","","null","83","","","","","","","","","","","","","","","",""
"","ISI","","html-keyboard-response","543","884763","0.0-1.0-750.0","0","0","72074","","null","","","null","83","NaN","","","","","","","","","","","","","","",""
"","S2","","html-keyboard-response","544","884920","0.0-1.0-751.0","0","0","72074","","null","","","null","83","","NaN","","","","","","","","","","","","","",""
"","response","","html-keyboard-response","545","885673","0.0-1.0-752.0-0.0","0","0","72074","","751","","","68","83","","","2","83","training","adjacent","ED","5","4","L.jpg","N.jpg","1","0","0","",""
"","feedback","","html-keyboard-response","546","886679","0.0-1.0-753.0-0.0","0","0","72074","","null","","","null","83","","","","","","","","","","","","","","","",""
"","time_out","","html-keyboard-response","547","888687","0.0-1.0-755.0-0.0","0","0","72074","","null","","","null","83","","","","","","","","","","","","","","","",""
"","ITI","","html-keyboard-response","548","889698","0.0-1.0-756.0","0","0","72074","","null","","","null","83","","","","","","","","","","","","","","","NaN",""
"","S1","","html-keyboard-response","549","889860","0.0-1.0-758.0","0","0","72074","","null","","","null","84","","","","","","","","","","","","","","","",""
"","ISI","","html-keyboard-response","550","891868","0.0-1.0-759.0","0","0","72074","","null","","","null","84","NaN","","","","","","","","","","","","","","",""
"","S2","","html-keyboard-response","551","892025","0.0-1.0-760.0","0","0","72074","","null","","","null","84","","NaN","","","","","","","","","","","","","",""
"","response","","html-keyboard-response","552","892644","0.0-1.0-761.0-0.0","0","0","72074","","617","","","68","84","","","2","84","training","adjacent","FE","6","5","O.jpg","L.jpg","1","0","0","",""
"","feedback","","html-keyboard-response","553","893651","0.0-1.0-762.0-0.0","0","0","72074","","null","","","null","84","","","","","","","","","","","","","","","",""
"","time_out","","html-keyboard-response","554","895659","0.0-1.0-764.0-0.0","0","0","72074","","null","","","null","84","","","","","","","","","","","","","","","",""
"","ITI","","html-keyboard-response","555","896664","0.0-1.0-765.0","0","0","72074","","null","","","null","84","","","","","","","","","","","","","","","NaN",""
"","S1","","html-keyboard-response","556","896826","0.0-1.0-767.0","0","0","72074","","null","","","null","85","","","","","","","","","","","","","","","",""
"","ISI","","html-keyboard-response","557","898834","0.0-1.0-768.0","0","0","72074","","null","","","null","85","NaN","","","","","","","","","","","","","","",""
"","S2","","html-keyboard-response","558","898991","0.0-1.0-769.0","0","0","72074","","null","","","null","85","","NaN","","","","","","","","","","","","","",""
"","response","","html-keyboard-response","559","899705","0.0-1.0-770.0-0.0","0","0","72074","","712","","","68","85","","","2","85","training","adjacent","DE","4","5","N.jpg","L.jpg","1","1","1","",""
"","feedback","","html-keyboard-response","560","900715","0.0-1.0-771.0-0.0","0","0","72074","","null","","","null","85","","","","","","","","","","","","","","","",""
"","ITI","","html-keyboard-response","561","901724","0.0-1.0-774.0","0","0","72074","","null","","","null","85","","","","","","","","","","","","","","","NaN",""
"","S1","","html-keyboard-response","562","901882","0.0-1.0-776.0","0","0","72074","","null","","","null","86","","","","","","","","","","","","","","","",""
"","ISI","","html-keyboard-response","563","903889","0.0-1.0-777.0","0","0","72074","","null","","","null","86","NaN","","","","","","","","","","","","","","",""
"","S2","","html-keyboard-response","564","904049","0.0-1.0-778.0","0","0","72074","","null","","","null","86","","NaN","","","","","","","","","","","","","",""
"","response","","html-keyboard-response","565","904852","0.0-1.0-779.0-0.0","0","0","72074","","802","","","75","86","","","2","86","training","adjacent","BA","2","1","P.jpg","R.jpg","0","0","1","",""
"","feedback","","html-keyboard-response","566","905858","0.0-1.0-780.0-0.0","0","0","72074","","null","","","null","86","","","","","","","","","","","","","","","",""
"","ITI","","html-keyboard-response","567","906865","0.0-1.0-783.0","0","0","72074","","null","","","null","86","","","","","","","","","","","","","","","NaN",""
"","S1","","html-keyboard-response","568","907026","0.0-1.0-785.0","0","0","72074","","null","","","null","87","","","","","","","","","","","","","","","",""
"","ISI","","html-keyboard-response","569","909034","0.0-1.0-786.0","0","0","72074","","null","","","null","87","NaN","","","","","","","","","","","","","","",""
"","S2","","html-keyboard-response","570","909196","0.0-1.0-787.0","0","0","72074","","null","","","null","87","","NaN","","","","","","","","","","","","","",""
"","response","","html-keyboard-response","571","910491","0.0-1.0-788.0-0.0","0","0","72074","","1293","","","68","87","","","2","87","training","adjacent","DC","4","3","N.jpg","M.jpg","1","0","0","",""
"","feedback","","html-keyboard-response","572","911495","0.0-1.0-789.0-0.0","0","0","72074","","null","","","null","87","","","","","","","","","","","","","","","",""
"","time_out","","html-keyboard-response","573","913504","0.0-1.0-791.0-0.0","0","0","72074","","null","","","null","87","","","","","","","","","","","","","","","",""
"","ITI","","html-keyboard-response","574","914514","0.0-1.0-792.0","0","0","72074","","null","","","null","87","","","","","","","","","","","","","","","NaN",""
"","S1","","html-keyboard-response","575","914676","0.0-1.0-794.0","0","0","72074","","null","","","null","88","","","","","","","","","","","","","","","",""
"","ISI","","html-keyboard-response","576","916679","0.0-1.0-795.0","0","0","72074","","null","","","null","88","NaN","","","","","","","","","","","","","","",""
"","S2","","html-keyboard-response","577","916840","0.0-1.0-796.0","0","0","72074","","null","","","null","88","","NaN","","","","","","","","","","","","","",""
"","response","","html-keyboard-response","578","917565","0.0-1.0-797.0-0.0","0","0","72074","","723","","","75","88","","","2","88","training","adjacent","CB","3","2","M.jpg","P.jpg","0","0","1","",""
"","feedback","","html-keyboard-response","579","918579","0.0-1.0-798.0-0.0","0","0","72074","","null","","","null","88","","","","","","","","","","","","","","","",""
