"success","ttype","start_time","trial_type","trial_index","time_elapsed","internal_node_id","warning","missed_checkup","PID","view_history","rt","responses","repeat_instructions","key_press","index","keypress_isi","keypress_S2","block","trial_num","phase","group_type","pair_type","S1_stim","S2_stim","S1_img","S2_img","S1_chosen","S1_higher","accuracy","keypress_iti","total_bonus_tally"
"true","full_screen","d03082023hr1557","fullscreen","0","37475","0.0-0.0","0","0","65795","","","","","","","","","","","","","","","","","","","","","",""
"","instructions","","instructions","1","106945","0.0-1.0-0.0-0.0","0","0","65795","[{""page_index"":0,""viewing_time"":18652},{""page_index"":1,""viewing_time"":30960},{""page_index"":2,""viewing_time"":16779},{""page_index"":3,""viewing_time"":3069}]","69461","","","","","","","","","","","","","","","","","","","",""
"","comprehension_check","","survey-multi-choice","2","139245","0.0-1.0-0.0-1.0","0","0","65795","","32277","{""Q0"":""True"",""Q1"":""K"",""Q2"":""Once the second image appears and while the screen 'MAKE A CHOICE' is shown"",""Q3"":""Green mark"",""Q4"":""either D or K""}","0","","","","","","","","","","","","","","","","","",""
"","start_exp","","html-keyboard-response","3","141555","0.0-1.0-1.0","0","0","65795","","2291","","","32","","","","","","","","","","","","","","","","",""
"","S1","","html-keyboard-response","4","141828","0.0-1.0-2.0","0","0","65795","","null","","","null","0","","","","","","","","","","","","","","","",""
"","ISI","","html-keyboard-response","5","142010","0.0-1.0-3.0","0","0","65795","","null","","","null","0","NaN","","","","","","","","","","","","","","",""
"","S2","","html-keyboard-response","6","142276","0.0-1.0-4.0","0","0","65795","","null","","","null","0","","NaN","","","","","","","","","","","","","",""
"","response","","html-keyboard-response","7","143448","0.0-1.0-5.0-0.0","0","0","65795","","1163","","","75","0","","","1","0","training","adjacent","BC","2","3","N.jpg","Q.jpg","1","1","1","",""
"","feedback","","html-keyboard-response","8","144461","0.0-1.0-6.0-0.0","0","0","65795","","null","","","null","0","","","","","","","","","","","","","","","",""
"","ITI","","html-keyboard-response","9","145479","0.0-1.0-9.0","0","0","65795","","null","","","null","0","","","","","","","","","","","","","","","NaN",""
"","S1","","html-keyboard-response","10","145753","0.0-1.0-11.0","0","0","65795","","null","","","null","1","","","","","","","","","","","","","","","",""
"","ISI","","html-keyboard-response","11","145926","0.0-1.0-12.0","0","0","65795","","null","","","null","1","NaN","","","","","","","","","","","","","","",""
"","S2","","html-keyboard-response","12","146189","0.0-1.0-13.0","0","0","65795","","null","","","null","1","","NaN","","","","","","","","","","","","","",""
"","response","","html-keyboard-response","13","146615","0.0-1.0-14.0-0.0","0","0","65795","","416","","","68","1","","","1","1","training","adjacent","EF","5","6","R.jpg","P.jpg","0","1","0","",""
"","feedback","","html-keyboard-response","14","147625","0.0-1.0-15.0-0.0","0","0","65795","","null","","","null","1","","","","","","","","","","","","","","","",""
"","time_out","","html-keyboard-response","15","149644","0.0-1.0-17.0-0.0","0","0","65795","","null","","","null","1","","","","","","","","","","","","","","","",""
"","ITI","","html-keyboard-response","16","150669","0.0-1.0-18.0","0","0","65795","","null","","","null","1","","","","","","","","","","","","","","","NaN",""
"","S1","","html-keyboard-response","17","150942","0.0-1.0-20.0","0","0","65795","","null","","","null","2","","","","","","","","","","","","","","","",""
"","ISI","","html-keyboard-response","18","151113","0.0-1.0-21.0","0","0","65795","","133","","","75","2","k","","","","","","","","","","","","","","",""
"","S2","","html-keyboard-response","19","151385","0.0-1.0-22.0","0","0","65795","","null","","","null","2","","NaN","","","","","","","","","","","","","",""
"","response","","html-keyboard-response","20","151846","0.0-1.0-23.0-0.0","0","0","65795","","454","","","75","2","","","1","2","training","adjacent","CB","3","2","Q.jpg","N.jpg","1","0","0","",""
"","feedback","","html-keyboard-response","21","152859","0.0-1.0-24.0-0.0","0","0","65795","","null","","","null","2","","","","","","","","","","","","","","","",""
"","time_out","","html-keyboard-response","22","154881","0.0-1.0-26.0-0.0","0","0","65795","","null","","","null","2","","","","","","","","","","","","","","","",""
"","ITI","","html-keyboard-response","23","155896","0.0-1.0-27.0","0","0","65795","","null","","","null","2","","","","","","","","","","","","","","","NaN",""
"","S1","","html-keyboard-response","24","156159","0.0-1.0-29.0","0","0","65795","","null","","","null","3","","","","","","","","","","","","","","","",""
"","ISI","","html-keyboard-response","25","156324","0.0-1.0-30.0","0","0","65795","","null","","","null","3","NaN","","","","","","","","","","","","","","",""
"","S2","","html-keyboard-response","26","156588","0.0-1.0-31.0","0","0","65795","","null","","","null","3","","NaN","","","","","","","","","","","","","",""
"","response","","html-keyboard-response","27","156996","0.0-1.0-32.0-0.0","0","0","65795","","401","","","68","3","","","1","3","training","adjacent","BA","2","1","N.jpg","O.jpg","0","0","1","",""
"","feedback","","html-keyboard-response","28","158014","0.0-1.0-33.0-0.0","0","0","65795","","null","","","null","3","","","","","","","","","","","","","","","",""
"","ITI","","html-keyboard-response","29","159031","0.0-1.0-36.0","0","0","65795","","null","","","null","3","","","","","","","","","","","","","","","NaN",""
"","S1","","html-keyboard-response","30","159303","0.0-1.0-38.0","0","0","65795","","null","","","null","4","","","","","","","","","","","","","","","",""
"","ISI","","html-keyboard-response","31","159473","0.0-1.0-39.0","0","0","65795","","null","","","null","4","NaN","","","","","","","","","","","","","","",""
"","S2","","html-keyboard-response","32","159738","0.0-1.0-40.0","0","0","65795","","null","","","null","4","","NaN","","","","","","","","","","","","","",""
"","response","","html-keyboard-response","33","160021","0.0-1.0-41.0-0.0","0","0","65795","","277","","","75","4","","","1","4","training","adjacent","AB","1","2","O.jpg","N.jpg","1","1","1","",""
"","feedback","","html-keyboard-response","34","161040","0.0-1.0-42.0-0.0","0","0","65795","","null","","","null","4","","","","","","","","","","","","","","","",""
"","ITI","","html-keyboard-response","35","162060","0.0-1.0-45.0","0","0","65795","","null","","","null","4","","","","","","","","","","","","","","","NaN",""
"","S1","","html-keyboard-response","36","162330","0.0-1.0-47.0","0","0","65795","","null","","","null","5","","","","","","","","","","","","","","","",""
"","ISI","","html-keyboard-response","37","162489","0.0-1.0-48.0","0","0","65795","","null","","","null","5","NaN","","","","","","","","","","","","","","",""
"","S2","","html-keyboard-response","38","162756","0.0-1.0-49.0","0","0","65795","","null","","","null","5","","NaN","","","","","","","","","","","","","",""
"","response","","html-keyboard-response","39","163439","0.0-1.0-50.0-0.0","0","0","65795","","674","","","75","5","","","1","5","training","adjacent","DC","4","3","L.jpg","Q.jpg","1","0","0","",""
"","feedback","","html-keyboard-response","40","164459","0.0-1.0-51.0-0.0","0","0","65795","","null","","","null","5","","","","","","","","","","","","","","","",""
"","time_out","","html-keyboard-response","41","166473","0.0-1.0-53.0-0.0","0","0","65795","","null","","","null","5","","","","","","","","","","","","","","","",""
"","ITI","","html-keyboard-response","42","167485","0.0-1.0-54.0","0","0","65795","","null","","","null","5","","","","","","","","","","","","","","","NaN",""
"","S1","","html-keyboard-response","43","167755","0.0-1.0-56.0","0","0","65795","","null","","","null","6","","","","","","","","","","","","","","","",""
"","ISI","","html-keyboard-response","44","167923","0.0-1.0-57.0","0","0","65795","","null","","","null","6","NaN","","","","","","","","","","","","","","",""
"","S2","","html-keyboard-response","45","168186","0.0-1.0-58.0","0","0","65795","","null","","","null","6","","NaN","","","","","","","","","","","","","",""
"","response","","html-keyboard-response","46","168521","0.0-1.0-59.0-0.0","0","0","65795","","329","","","68","6","","","1","6","training","adjacent","BA","2","1","N.jpg","O.jpg","0","0","1","",""
"","feedback","","html-keyboard-response","47","169533","0.0-1.0-60.0-0.0","0","0","65795","","null","","","null","6","","","","","","","","","","","","","","","",""
"","ITI","","html-keyboard-response","48","170550","0.0-1.0-63.0","0","0","65795","","null","","","null","6","","","","","","","","","","","","","","","NaN",""
"","S1","","html-keyboard-response","49","170817","0.0-1.0-65.0","0","0","65795","","null","","","null","7","","","","","","","","","","","","","","","",""
"","ISI","","html-keyboard-response","50","170977","0.0-1.0-66.0","0","0","65795","","null","","","null","7","NaN","","","","","","","","","","","","","","",""
"","S2","","html-keyboard-response","51","171243","0.0-1.0-67.0","0","0","65795","","null","","","null","7","","NaN","","","","","","","","","","","","","",""
"","response","","html-keyboard-response","52","171693","0.0-1.0-68.0-0.0","0","0","65795","","444","","","68","7","","","1","7","training","adjacent","GF","7","6","M.jpg","P.jpg","0","0","1","",""
"","feedback","","html-keyboard-response","53","172715","0.0-1.0-69.0-0.0","0","0","65795","","null","","","null","7","","","","","","","","","","","","","","","",""
"","ITI","","html-keyboard-response","54","173735","0.0-1.0-72.0","0","0","65795","","null","","","null","7","","","","","","","","","","","","","","","NaN",""
"","S1","","html-keyboard-response","55","174004","0.0-1.0-74.0","0","0","65795","","null","","","null","8","","","","","","","","","","","","","","","",""
"","ISI","","html-keyboard-response","56","174170","0.0-1.0-75.0","0","0","65795","","null","","","null","8","NaN","","","","","","","","","","","","","","",""
"","S2","","html-keyboard-response","57","174439","0.0-1.0-76.0","0","0","65795","","null","","","null","8","","NaN","","","","","","","","","","","","","",""
"","response","","html-keyboard-response","58","174888","0.0-1.0-77.0-0.0","0","0","65795","","443","","","75","8","","","1","8","training","adjacent","DE","4","5","L.jpg","R.jpg","1","1","1","",""
"","feedback","","html-keyboard-response","59","175907","0.0-1.0-78.0-0.0","0","0","65795","","null","","","null","8","","","","","","","","","","","","","","","",""
"","ITI","","html-keyboard-response","60","176927","0.0-1.0-81.0","0","0","65795","","null","","","null","8","","","","","","","","","","","","","","","NaN",""
"","S1","","html-keyboard-response","61","177188","0.0-1.0-83.0","0","0","65795","","null","","","null","9","","","","","","","","","","","","","","","",""
"","ISI","","html-keyboard-response","62","177353","0.0-1.0-84.0","0","0","65795","","null","","","null","9","NaN","","","","","","","","","","","","","","",""
"","S2","","html-keyboard-response","63","177619","0.0-1.0-85.0","0","0","65795","","null","","","null","9","","NaN","","","","","","","","","","","","","",""
"","response","","html-keyboard-response","64","178009","0.0-1.0-86.0-0.0","0","0","65795","","381","","","75","9","","","1","9","training","adjacent","ED","5","4","R.jpg","L.jpg","1","0","0","",""
"","feedback","","html-keyboard-response","65","179022","0.0-1.0-87.0-0.0","0","0","65795","","null","","","null","9","","","","","","","","","","","","","","","",""
"","time_out","","html-keyboard-response","66","181038","0.0-1.0-89.0-0.0","0","0","65795","","null","","","null","9","","","","","","","","","","","","","","","",""
"","ITI","","html-keyboard-response","67","182047","0.0-1.0-90.0","0","0","65795","","null","","","null","9","","","","","","","","","","","","","","","NaN",""
"","S1","","html-keyboard-response","68","182312","0.0-1.0-92.0","0","0","65795","","null","","","null","10","","","","","","","","","","","","","","","",""
"","ISI","","html-keyboard-response","69","182472","0.0-1.0-93.0","0","0","65795","","null","","","null","10","NaN","","","","","","","","","","","","","","",""
"","S2","","html-keyboard-response","70","182739","0.0-1.0-94.0","0","0","65795","","null","","","null","10","","NaN","","","","","","","","","","","","","",""
"","response","","html-keyboard-response","71","183037","0.0-1.0-95.0-0.0","0","0","65795","","290","","","68","10","","","1","10","training","adjacent","GF","7","6","M.jpg","P.jpg","0","0","1","",""
"","feedback","","html-keyboard-response","72","184054","0.0-1.0-96.0-0.0","0","0","65795","","null","","","null","10","","","","","","","","","","","","","","","",""
"","ITI","","html-keyboard-response","73","185069","0.0-1.0-99.0","0","0","65795","","null","","","null","10","","","","","","","","","","","","","","","NaN",""
"","S1","","html-keyboard-response","74","185338","0.0-1.0-101.0","0","0","65795","","null","","","null","11","","","","","","","","","","","","","","","",""
"","ISI","","html-keyboard-response","75","185507","0.0-1.0-102.0","0","0","65795","","null","","","null","11","NaN","","","","","","","","","","","","","","",""
"","S2","","html-keyboard-response","76","185777","0.0-1.0-103.0","0","0","65795","","null","","","null","11","","NaN","","","","","","","","","","","","","",""
"","response","","html-keyboard-response","77","186214","0.0-1.0-104.0-0.0","0","0","65795","","429","","","75","11","","","1","11","training","adjacent","FG","6","7","P.jpg","M.jpg","1","1","1","",""
"","feedback","","html-keyboard-response","78","187233","0.0-1.0-105.0-0.0","0","0","65795","","null","","","null","11","","","","","","","","","","","","","","","",""
"","ITI","","html-keyboard-response","79","188249","0.0-1.0-108.0","0","0","65795","","null","","","null","11","","","","","","","","","","","","","","","NaN",""
"","S1","","html-keyboard-response","80","188522","0.0-1.0-110.0","0","0","65795","","null","","","null","12","","","","","","","","","","","","","","","",""
"","ISI","","html-keyboard-response","81","188695","0.0-1.0-111.0","0","0","65795","","null","","","null","12","NaN","","","","","","","","","","","","","","",""
"","S2","","html-keyboard-response","82","188953","0.0-1.0-112.0","0","0","65795","","null","","","null","12","","NaN","","","","","","","","","","","","","",""
"","response","","html-keyboard-response","83","189353","0.0-1.0-113.0-0.0","0","0","65795","","392","","","68","12","","","1","12","training","adjacent","BC","2","3","N.jpg","Q.jpg","0","1","0","",""
"","feedback","","html-keyboard-response","84","190376","0.0-1.0-114.0-0.0","0","0","65795","","null","","","null","12","","","","","","","","","","","","","","","",""
"","time_out","","html-keyboard-response","85","192392","0.0-1.0-116.0-0.0","0","0","65795","","null","","","null","12","","","","","","","","","","","","","","","",""
"","ITI","","html-keyboard-response","86","193405","0.0-1.0-117.0","0","0","65795","","null","","","null","12","","","","","","","","","","","","","","","NaN",""
"","S1","","html-keyboard-response","87","193668","0.0-1.0-119.0","0","0","65795","","null","","","null","13","","","","","","","","","","","","","","","",""
"","ISI","","html-keyboard-response","88","193836","0.0-1.0-120.0","0","0","65795","","null","","","null","13","NaN","","","","","","","","","","","","","","",""
"","S2","","html-keyboard-response","89","194099","0.0-1.0-121.0","0","0","65795","","null","","","null","13","","NaN","","","","","","","","","","","","","",""
"","response","","html-keyboard-response","90","194676","0.0-1.0-122.0-0.0","0","0","65795","","569","","","68","13","","","1","13","training","adjacent","FE","6","5","P.jpg","R.jpg","0","0","1","",""
"","feedback","","html-keyboard-response","91","195685","0.0-1.0-123.0-0.0","0","0","65795","","null","","","null","13","","","","","","","","","","","","","","","",""
"","ITI","","html-keyboard-response","92","196699","0.0-1.0-126.0","0","0","65795","","null","","","null","13","","","","","","","","","","","","","","","NaN",""
"","S1","","html-keyboard-response","93","196966","0.0-1.0-128.0","0","0","65795","","null","","","null","14","","","","","","","","","","","","","","","",""
"","ISI","","html-keyboard-response","94","197127","0.0-1.0-129.0","0","0","65795","","null","","","null","14","NaN","","","","","","","","","","","","","","",""
"","S2","","html-keyboard-response","95","197398","0.0-1.0-130.0","0","0","65795","","null","","","null","14","","NaN","","","","","","","","","","","","","",""
"","response","","html-keyboard-response","96","198002","0.0-1.0-131.0-0.0","0","0","65795","","596","","","68","14","","","1","14","training","adjacent","BA","2","1","N.jpg","O.jpg","0","0","1","",""
"","feedback","","html-keyboard-response","97","199010","0.0-1.0-132.0-0.0","0","0","65795","","null","","","null","14","","","","","","","","","","","","","","","",""
"","ITI","","html-keyboard-response","98","200034","0.0-1.0-135.0","0","0","65795","","null","","","null","14","","","","","","","","","","","","","","","NaN",""
"","S1","","html-keyboard-response","99","200297","0.0-1.0-137.0","0","0","65795","","null","","","null","15","","","","","","","","","","","","","","","",""
"","ISI","","html-keyboard-response","100","200466","0.0-1.0-138.0","0","0","65795","","null","","","null","15","NaN","","","","","","","","","","","","","","",""
"","S2","","html-keyboard-response","101","200729","0.0-1.0-139.0","0","0","65795","","null","","","null","15","","NaN","","","","","","","","","","","","","",""
"","response","","html-keyboard-response","102","201114","0.0-1.0-140.0-0.0","0","0","65795","","376","","","75","15","","","1","15","training","adjacent","CD","3","4","Q.jpg","L.jpg","1","1","1","",""
"","feedback","","html-keyboard-response","103","202136","0.0-1.0-141.0-0.0","0","0","65795","","null","","","null","15","","","","","","","","","","","","","","","",""
"","ITI","","html-keyboard-response","104","203144","0.0-1.0-144.0","0","0","65795","","null","","","null","15","","","","","","","","","","","","","","","NaN",""
"","S1","","html-keyboard-response","105","203447","0.0-1.0-146.0","0","0","65795","","null","","","null","16","","","","","","","","","","","","","","","",""
"","ISI","","html-keyboard-response","106","203618","0.0-1.0-147.0","0","0","65795","","null","","","null","16","NaN","","","","","","","","","","","","","","",""
"","S2","","html-keyboard-response","107","203884","0.0-1.0-148.0","0","0","65795","","null","","","null","16","","NaN","","","","","","","","","","","","","",""
"","response","","html-keyboard-response","108","204508","0.0-1.0-149.0-0.0","0","0","65795","","615","","","68","16","","","1","16","training","adjacent","AB","1","2","O.jpg","N.jpg","0","1","0","",""
"","feedback","","html-keyboard-response","109","205524","0.0-1.0-150.0-0.0","0","0","65795","","null","","","null","16","","","","","","","","","","","","","","","",""
"","time_out","","html-keyboard-response","110","207531","0.0-1.0-152.0-0.0","0","0","65795","","null","","","null","16","","","","","","","","","","","","","","","",""
"","ITI","","html-keyboard-response","111","208542","0.0-1.0-153.0","0","0","65795","","null","","","null","16","","","","","","","","","","","","","","","NaN",""
"","S1","","html-keyboard-response","112","208809","0.0-1.0-155.0","0","0","65795","","null","","","null","17","","","","","","","","","","","","","","","",""
"","ISI","","html-keyboard-response","113","208967","0.0-1.0-156.0","0","0","65795","","null","","","null","17","NaN","","","","","","","","","","","","","","",""
"","S2","","html-keyboard-response","114","209233","0.0-1.0-157.0","0","0","65795","","null","","","null","17","","NaN","","","","","","","","","","","","","",""
"","response","","html-keyboard-response","115","209744","0.0-1.0-158.0-0.0","0","0","65795","","504","","","68","17","","","1","17","training","adjacent","CB","3","2","Q.jpg","N.jpg","0","0","1","",""
"","feedback","","html-keyboard-response","116","210760","0.0-1.0-159.0-0.0","0","0","65795","","null","","","null","17","","","","","","","","","","","","","","","",""
"","ITI","","html-keyboard-response","117","211772","0.0-1.0-162.0","0","0","65795","","null","","","null","17","","","","","","","","","","","","","","","NaN",""
"","S1","","html-keyboard-response","118","212039","0.0-1.0-164.0","0","0","65795","","null","","","null","18","","","","","","","","","","","","","","","",""
"","ISI","","html-keyboard-response","119","212201","0.0-1.0-165.0","0","0","65795","","null","","","null","18","NaN","","","","","","","","","","","","","","",""
"","S2","","html-keyboard-response","120","212466","0.0-1.0-166.0","0","0","65795","","null","","","null","18","","NaN","","","","","","","","","","","","","",""
"","response","","html-keyboard-response","121","212854","0.0-1.0-167.0-0.0","0","0","65795","","381","","","75","18","","","1","18","training","adjacent","BC","2","3","N.jpg","Q.jpg","1","1","1","",""
"","feedback","","html-keyboard-response","122","213863","0.0-1.0-168.0-0.0","0","0","65795","","null","","","null","18","","","","","","","","","","","","","","","",""
"","ITI","","html-keyboard-response","123","214885","0.0-1.0-171.0","0","0","65795","","null","","","null","18","","","","","","","","","","","","","","","NaN",""
"","S1","","html-keyboard-response","124","215158","0.0-1.0-173.0","0","0","65795","","null","","","null","19","","","","","","","","","","","","","","","",""
"","ISI","","html-keyboard-response","125","215332","0.0-1.0-174.0","0","0","65795","","null","","","null","19","NaN","","","","","","","","","","","","","","",""
"","S2","","html-keyboard-response","126","215601","0.0-1.0-175.0","0","0","65795","","null","","","null","19","","NaN","","","","","","","","","","","","","",""
"","response","","html-keyboard-response","127","216400","0.0-1.0-176.0-0.0","0","0","65795","","793","","","75","19","","","1","19","training","adjacent","FG","6","7","P.jpg","M.jpg","1","1","1","",""
"","feedback","","html-keyboard-response","128","217420","0.0-1.0-177.0-0.0","0","0","65795","","null","","","null","19","","","","","","","","","","","","","","","",""
"","ITI","","html-keyboard-response","129","218435","0.0-1.0-180.0","0","0","65795","","null","","","null","19","","","","","","","","","","","","","","","NaN",""
"","S1","","html-keyboard-response","130","218698","0.0-1.0-182.0","0","0","65795","","null","","","null","20","","","","","","","","","","","","","","","",""
"","ISI","","html-keyboard-response","131","218865","0.0-1.0-183.0","0","0","65795","","null","","","null","20","NaN","","","","","","","","","","","","","","",""
"","S2","","html-keyboard-response","132","219131","0.0-1.0-184.0","0","0","65795","","null","","","null","20","","NaN","","","","","","","","","","","","","",""
"","response","","html-keyboard-response","133","220001","0.0-1.0-185.0-0.0","0","0","65795","","863","","","68","20","","","1","20","training","adjacent","DC","4","3","L.jpg","Q.jpg","0","0","1","",""
"","feedback","","html-keyboard-response","134","221012","0.0-1.0-186.0-0.0","0","0","65795","","null","","","null","20","","","","","","","","","","","","","","","",""
"","ITI","","html-keyboard-response","135","222031","0.0-1.0-189.0","0","0","65795","","null","","","null","20","","","","","","","","","","","","","","","NaN",""
"","S1","","html-keyboard-response","136","222300","0.0-1.0-191.0","0","0","65795","","null","","","null","21","","","","","","","","","","","","","","","",""
"","ISI","","html-keyboard-response","137","222467","0.0-1.0-192.0","0","0","65795","","null","","","null","21","NaN","","","","","","","","","","","","","","",""
"","S2","","html-keyboard-response","138","222730","0.0-1.0-193.0","0","0","65795","","null","","","null","21","","NaN","","","","","","","","","","","","","",""
"","response","","html-keyboard-response","139","223885","0.0-1.0-194.0-0.0","0","0","65795","","1147","","","68","21","","","1","21","training","adjacent","CB","3","2","Q.jpg","N.jpg","0","0","1","",""
"","feedback","","html-keyboard-response","140","224908","0.0-1.0-195.0-0.0","0","0","65795","","null","","","null","21","","","","","","","","","","","","","","","",""
"","ITI","","html-keyboard-response","141","225917","0.0-1.0-198.0","0","0","65795","","null","","","null","21","","","","","","","","","","","","","","","NaN",""
"","S1","","html-keyboard-response","142","226181","0.0-1.0-200.0","0","0","65795","","null","","","null","22","","","","","","","","","","","","","","","",""
"","ISI","","html-keyboard-response","143","226351","0.0-1.0-201.0","0","0","65795","","null","","","null","22","NaN","","","","","","","","","","","","","","",""
"","S2","","html-keyboard-response","144","226617","0.0-1.0-202.0","0","0","65795","","null","","","null","22","","NaN","","","","","","","","","","","","","",""
"","response","","html-keyboard-response","145","227203","0.0-1.0-203.0-0.0","0","0","65795","","579","","","68","22","","","1","22","training","adjacent","CB","3","2","Q.jpg","N.jpg","0","0","1","",""
"","feedback","","html-keyboard-response","146","228213","0.0-1.0-204.0-0.0","0","0","65795","","null","","","null","22","","","","","","","","","","","","","","","",""
"","ITI","","html-keyboard-response","147","229233","0.0-1.0-207.0","0","0","65795","","null","","","null","22","","","","","","","","","","","","","","","NaN",""
"","S1","","html-keyboard-response","148","229497","0.0-1.0-209.0","0","0","65795","","null","","","null","23","","","","","","","","","","","","","","","",""
"","ISI","","html-keyboard-response","149","229665","0.0-1.0-210.0","0","0","65795","","null","","","null","23","NaN","","","","","","","","","","","","","","",""
"","S2","","html-keyboard-response","150","229930","0.0-1.0-211.0","0","0","65795","","null","","","null","23","","NaN","","","","","","","","","","","","","",""
"","response","","html-keyboard-response","151","230333","0.0-1.0-212.0-0.0","0","0","65795","","393","","","68","23","","","1","23","training","adjacent","DC","4","3","L.jpg","Q.jpg","0","0","1","",""
"","feedback","","html-keyboard-response","152","231353","0.0-1.0-213.0-0.0","0","0","65795","","null","","","null","23","","","","","","","","","","","","","","","",""
"","ITI","","html-keyboard-response","153","232373","0.0-1.0-216.0","0","0","65795","","null","","","null","23","","","","","","","","","","","","","","","NaN",""
"","S1","","html-keyboard-response","154","232632","0.0-1.0-218.0","0","0","65795","","null","","","null","24","","","","","","","","","","","","","","","",""
"","ISI","","html-keyboard-response","155","232803","0.0-1.0-219.0","0","0","65795","","null","","","null","24","NaN","","","","","","","","","","","","","","",""
"","S2","","html-keyboard-response","156","233071","0.0-1.0-220.0","0","0","65795","","null","","","null","24","","NaN","","","","","","","","","","","","","",""
"","response","","html-keyboard-response","157","233301","0.0-1.0-221.0-0.0","0","0","65795","","222","","","75","24","","","1","24","training","adjacent","GF","7","6","M.jpg","P.jpg","1","0","0","",""
"","feedback","","html-keyboard-response","158","234312","0.0-1.0-222.0-0.0","0","0","65795","","null","","","null","24","","","","","","","","","","","","","","","",""
"","time_out","","html-keyboard-response","159","236322","0.0-1.0-224.0-0.0","0","0","65795","","null","","","null","24","","","","","","","","","","","","","","","",""
"","ITI","","html-keyboard-response","160","237335","0.0-1.0-225.0","0","0","65795","","null","","","null","24","","","","","","","","","","","","","","","NaN",""
"","S1","","html-keyboard-response","161","237596","0.0-1.0-227.0","0","0","65795","","null","","","null","25","","","","","","","","","","","","","","","",""
"","ISI","","html-keyboard-response","162","237762","0.0-1.0-228.0","0","0","65795","","null","","","null","25","NaN","","","","","","","","","","","","","","",""
"","S2","","html-keyboard-response","163","238030","0.0-1.0-229.0","0","0","65795","","null","","","null","25","","NaN","","","","","","","","","","","","","",""
"","response","","html-keyboard-response","164","238512","0.0-1.0-230.0-0.0","0","0","65795","","474","","","75","25","","","1","25","training","adjacent","FG","6","7","P.jpg","M.jpg","1","1","1","",""
"","feedback","","html-keyboard-response","165","239525","0.0-1.0-231.0-0.0","0","0","65795","","null","","","null","25","","","","","","","","","","","","","","","",""
"","ITI","","html-keyboard-response","166","240541","0.0-1.0-234.0","0","0","65795","","null","","","null","25","","","","","","","","","","","","","","","NaN",""
"","S1","","html-keyboard-response","167","240814","0.0-1.0-236.0","0","0","65795","","null","","","null","26","","","","","","","","","","","","","","","",""
"","ISI","","html-keyboard-response","168","240978","0.0-1.0-237.0","0","0","65795","","null","","","null","26","NaN","","","","","","","","","","","","","","",""
"","S2","","html-keyboard-response","169","241245","0.0-1.0-238.0","0","0","65795","","null","","","null","26","","NaN","","","","","","","","","","","","","",""
"","response","","html-keyboard-response","170","241595","0.0-1.0-239.0-0.0","0","0","65795","","342","","","75","26","","","1","26","training","adjacent","CD","3","4","Q.jpg","L.jpg","1","1","1","",""
"","feedback","","html-keyboard-response","171","242611","0.0-1.0-240.0-0.0","0","0","65795","","null","","","null","26","","","","","","","","","","","","","","","",""
"","ITI","","html-keyboard-response","172","243619","0.0-1.0-243.0","0","0","65795","","null","","","null","26","","","","","","","","","","","","","","","NaN",""
"","S1","","html-keyboard-response","173","243890","0.0-1.0-245.0","0","0","65795","","null","","","null","27","","","","","","","","","","","","","","","",""
"","ISI","","html-keyboard-response","174","244062","0.0-1.0-246.0","0","0","65795","","null","","","null","27","NaN","","","","","","","","","","","","","","",""
"","S2","","html-keyboard-response","175","244328","0.0-1.0-247.0","0","0","65795","","null","","","null","27","","NaN","","","","","","","","","","","","","",""
"","response","","html-keyboard-response","176","244745","0.0-1.0-248.0-0.0","0","0","65795","","409","","","75","27","","","1","27","training","adjacent","ED","5","4","R.jpg","L.jpg","1","0","0","",""
"","feedback","","html-keyboard-response","177","245769","0.0-1.0-249.0-0.0","0","0","65795","","null","","","null","27","","","","","","","","","","","","","","","",""
"","time_out","","html-keyboard-response","178","247781","0.0-1.0-251.0-0.0","0","0","65795","","null","","","null","27","","","","","","","","","","","","","","","",""
"","ITI","","html-keyboard-response","179","248790","0.0-1.0-252.0","0","0","65795","","null","","","null","27","","","","","","","","","","","","","","","NaN",""
"","S1","","html-keyboard-response","180","249056","0.0-1.0-254.0","0","0","65795","","null","","","null","28","","","","","","","","","","","","","","","",""
"","ISI","","html-keyboard-response","181","249226","0.0-1.0-255.0","0","0","65795","","null","","","null","28","NaN","","","","","","","","","","","","","","",""
"","S2","","html-keyboard-response","182","249489","0.0-1.0-256.0","0","0","65795","","null","","","null","28","","NaN","","","","","","","","","","","","","",""
"","response","","html-keyboard-response","183","250079","0.0-1.0-257.0-0.0","0","0","65795","","582","","","68","28","","","1","28","training","adjacent","BC","2","3","N.jpg","Q.jpg","0","1","0","",""
"","feedback","","html-keyboard-response","184","251088","0.0-1.0-258.0-0.0","0","0","65795","","null","","","null","28","","","","","","","","","","","","","","","",""
"","time_out","","html-keyboard-response","185","253113","0.0-1.0-260.0-0.0","0","0","65795","","null","","","null","28","","","","","","","","","","","","","","","",""
"","ITI","","html-keyboard-response","186","254131","0.0-1.0-261.0","0","0","65795","","null","","","null","28","","","","","","","","","","","","","","","NaN",""
"","S1","","html-keyboard-response","187","254395","0.0-1.0-263.0","0","0","65795","","null","","","null","29","","","","","","","","","","","","","","","",""
"","ISI","","html-keyboard-response","188","254562","0.0-1.0-264.0","0","0","65795","","null","","","null","29","NaN","","","","","","","","","","","","","","",""
"","S2","","html-keyboard-response","189","254828","0.0-1.0-265.0","0","0","65795","","null","","","null","29","","NaN","","","","","","","","","","","","","",""
"","response","","html-keyboard-response","190","255198","0.0-1.0-266.0-0.0","0","0","65795","","361","","","68","29","","","1","29","training","adjacent","EF","5","6","R.jpg","P.jpg","0","1","0","",""
"","feedback","","html-keyboard-response","191","256212","0.0-1.0-267.0-0.0","0","0","65795","","null","","","null","29","","","","","","","","","","","","","","","",""
"","time_out","","html-keyboard-response","192","258227","0.0-1.0-269.0-0.0","0","0","65795","","null","","","null","29","","","","","","","","","","","","","","","",""
"","ITI","","html-keyboard-response","193","259250","0.0-1.0-270.0","0","0","65795","","null","","","null","29","","","","","","","","","","","","","","","NaN",""
"","S1","","html-keyboard-response","194","259517","0.0-1.0-272.0","0","0","65795","","null","","","null","30","","","","","","","","","","","","","","","",""
"","ISI","","html-keyboard-response","195","259676","0.0-1.0-273.0","0","0","65795","","null","","","null","30","NaN","","","","","","","","","","","","","","",""
"","S2","","html-keyboard-response","196","259942","0.0-1.0-274.0","0","0","65795","","null","","","null","30","","NaN","","","","","","","","","","","","","",""
"","response","","html-keyboard-response","197","260217","0.0-1.0-275.0-0.0","0","0","65795","","267","","","75","30","","","1","30","training","adjacent","ED","5","4","R.jpg","L.jpg","1","0","0","",""
"","feedback","","html-keyboard-response","198","261237","0.0-1.0-276.0-0.0","0","0","65795","","null","","","null","30","","","","","","","","","","","","","","","",""
"","time_out","","html-keyboard-response","199","263256","0.0-1.0-278.0-0.0","0","0","65795","","null","","","null","30","","","","","","","","","","","","","","","",""
"","ITI","","html-keyboard-response","200","264272","0.0-1.0-279.0","0","0","65795","","null","","","null","30","","","","","","","","","","","","","","","NaN",""
"","S1","","html-keyboard-response","201","264543","0.0-1.0-281.0","0","0","65795","","null","","","null","31","","","","","","","","","","","","","","","",""
"","ISI","","html-keyboard-response","202","264706","0.0-1.0-282.0","0","0","65795","","null","","","null","31","NaN","","","","","","","","","","","","","","",""
"","S2","","html-keyboard-response","203","264977","0.0-1.0-283.0","0","0","65795","","null","","","null","31","","NaN","","","","","","","","","","","","","",""
"","response","","html-keyboard-response","204","265297","0.0-1.0-284.0-0.0","0","0","65795","","311","","","68","31","","","1","31","training","adjacent","FE","6","5","P.jpg","R.jpg","0","0","1","",""
"","feedback","","html-keyboard-response","205","266314","0.0-1.0-285.0-0.0","0","0","65795","","null","","","null","31","","","","","","","","","","","","","","","",""
"","ITI","","html-keyboard-response","206","267328","0.0-1.0-288.0","0","0","65795","","null","","","null","31","","","","","","","","","","","","","","","NaN",""
"","S1","","html-keyboard-response","207","267592","0.0-1.0-290.0","0","0","65795","","null","","","null","32","","","","","","","","","","","","","","","",""
"","ISI","","html-keyboard-response","208","267764","0.0-1.0-291.0","0","0","65795","","null","","","null","32","NaN","","","","","","","","","","","","","","",""
"","S2","","html-keyboard-response","209","268020","0.0-1.0-292.0","0","0","65795","","null","","","null","32","","NaN","","","","","","","","","","","","","",""
"","response","","html-keyboard-response","210","268325","0.0-1.0-293.0-0.0","0","0","65795","","298","","","75","32","","","1","32","training","adjacent","CD","3","4","Q.jpg","L.jpg","1","1","1","",""
"","feedback","","html-keyboard-response","211","269343","0.0-1.0-294.0-0.0","0","0","65795","","null","","","null","32","","","","","","","","","","","","","","","",""
"","ITI","","html-keyboard-response","212","270358","0.0-1.0-297.0","0","0","65795","","null","","","null","32","","","","","","","","","","","","","","","NaN",""
"","S1","","html-keyboard-response","213","270624","0.0-1.0-299.0","0","0","65795","","null","","","null","33","","","","","","","","","","","","","","","",""
"","ISI","","html-keyboard-response","214","270783","0.0-1.0-300.0","0","0","65795","","null","","","null","33","NaN","","","","","","","","","","","","","","",""
"","S2","","html-keyboard-response","215","271049","0.0-1.0-301.0","0","0","65795","","null","","","null","33","","NaN","","","","","","","","","","","","","",""
"","response","","html-keyboard-response","216","271450","0.0-1.0-302.0-0.0","0","0","65795","","393","","","68","33","","","1","33","training","adjacent","DE","4","5","L.jpg","R.jpg","0","1","0","",""
"","feedback","","html-keyboard-response","217","272460","0.0-1.0-303.0-0.0","0","0","65795","","null","","","null","33","","","","","","","","","","","","","","","",""
"","time_out","","html-keyboard-response","218","274479","0.0-1.0-305.0-0.0","0","0","65795","","null","","","null","33","","","","","","","","","","","","","","","",""
"","ITI","","html-keyboard-response","219","275492","0.0-1.0-306.0","0","0","65795","","null","","","null","33","","","","","","","","","","","","","","","NaN",""
"","S1","","html-keyboard-response","220","275760","0.0-1.0-308.0","0","0","65795","","null","","","null","34","","","","","","","","","","","","","","","",""
"","ISI","","html-keyboard-response","221","275925","0.0-1.0-309.0","0","0","65795","","null","","","null","34","NaN","","","","","","","","","","","","","","",""
"","S2","","html-keyboard-response","222","276192","0.0-1.0-310.0","0","0","65795","","null","","","null","34","","NaN","","","","","","","","","","","","","",""
"","response","","html-keyboard-response","223","277319","0.0-1.0-311.0-0.0","0","0","65795","","1119","","","75","34","","","1","34","training","adjacent","GF","7","6","M.jpg","P.jpg","1","0","0","",""
"","feedback","","html-keyboard-response","224","278343","0.0-1.0-312.0-0.0","0","0","65795","","null","","","null","34","","","","","","","","","","","","","","","",""
"","time_out","","html-keyboard-response","225","280361","0.0-1.0-314.0-0.0","0","0","65795","","null","","","null","34","","","","","","","","","","","","","","","",""
"","ITI","","html-keyboard-response","226","281376","0.0-1.0-315.0","0","0","65795","","null","","","null","34","","","","","","","","","","","","","","","NaN",""
"","S1","","html-keyboard-response","227","281641","0.0-1.0-317.0","0","0","65795","","null","","","null","35","","","","","","","","","","","","","","","",""
"","ISI","","html-keyboard-response","228","281802","0.0-1.0-318.0","0","0","65795","","null","","","null","35","NaN","","","","","","","","","","","","","","",""
"","S2","","html-keyboard-response","229","282076","0.0-1.0-319.0","0","0","65795","","null","","","null","35","","NaN","","","","","","","","","","","","","",""
"","response","","html-keyboard-response","230","282221","0.0-1.0-320.0-0.0","0","0","65795","","137","","","68","35","","","1","35","training","adjacent","EF","5","6","R.jpg","P.jpg","0","1","0","",""
"","feedback","","html-keyboard-response","231","283233","0.0-1.0-321.0-0.0","0","0","65795","","null","","","null","35","","","","","","","","","","","","","","","",""
"","time_out","","html-keyboard-response","232","285253","0.0-1.0-323.0-0.0","0","0","65795","","null","","","null","35","","","","","","","","","","","","","","","",""
"","ITI","","html-keyboard-response","233","286273","0.0-1.0-324.0","0","0","65795","","null","","","null","35","","","","","","","","","","","","","","","NaN",""
"","S1","","html-keyboard-response","234","286535","0.0-1.0-326.0","0","0","65795","","null","","","null","36","","","","","","","","","","","","","","","",""
"","ISI","","html-keyboard-response","235","286707","0.0-1.0-327.0","0","0","65795","","null","","","null","36","NaN","","","","","","","","","","","","","","",""
"","S2","","html-keyboard-response","236","286975","0.0-1.0-328.0","0","0","65795","","null","","","null","36","","NaN","","","","","","","","","","","","","",""
"","response","","html-keyboard-response","237","287271","0.0-1.0-329.0-0.0","0","0","65795","","288","","","68","36","","","1","36","training","adjacent","DC","4","3","L.jpg","Q.jpg","0","0","1","",""
"","feedback","","html-keyboard-response","238","288287","0.0-1.0-330.0-0.0","0","0","65795","","null","","","null","36","","","","","","","","","","","","","","","",""
"","ITI","","html-keyboard-response","239","289303","0.0-1.0-333.0","0","0","65795","","null","","","null","36","","","","","","","","","","","","","","","NaN",""
"","S1","","html-keyboard-response","240","289569","0.0-1.0-335.0","0","0","65795","","null","","","null","37","","","","","","","","","","","","","","","",""
"","ISI","","html-keyboard-response","241","289741","0.0-1.0-336.0","0","0","65795","","null","","","null","37","NaN","","","","","","","","","","","","","","",""
"","S2","","html-keyboard-response","242","290004","0.0-1.0-337.0","0","0","65795","","null","","","null","37","","NaN","","","","","","","","","","","","","",""
"","response","","html-keyboard-response","243","290347","0.0-1.0-338.0-0.0","0","0","65795","","334","","","68","37","","","1","37","training","adjacent","DE","4","5","L.jpg","R.jpg","0","1","0","",""
"","feedback","","html-keyboard-response","244","291370","0.0-1.0-339.0-0.0","0","0","65795","","null","","","null","37","","","","","","","","","","","","","","","",""
"","time_out","","html-keyboard-response","245","293404","0.0-1.0-341.0-0.0","0","0","65795","","null","","","null","37","","","","","","","","","","","","","","","",""
"","ITI","","html-keyboard-response","246","294428","0.0-1.0-342.0","0","0","65795","","null","","","null","37","","","","","","","","","","","","","","","NaN",""
"","S1","","html-keyboard-response","247","294690","0.0-1.0-344.0","0","0","65795","","null","","","null","38","","","","","","","","","","","","","","","",""
"","ISI","","html-keyboard-response","248","294857","0.0-1.0-345.0","0","0","65795","","null","","","null","38","NaN","","","","","","","","","","","","","","",""
"","S2","","html-keyboard-response","249","295123","0.0-1.0-346.0","0","0","65795","","null","","","null","38","","NaN","","","","","","","","","","","","","",""
"","response","","html-keyboard-response","250","295357","0.0-1.0-347.0-0.0","0","0","65795","","225","","","75","38","","","1","38","training","adjacent","AB","1","2","O.jpg","N.jpg","1","1","1","",""
"","feedback","","html-keyboard-response","251","296367","0.0-1.0-348.0-0.0","0","0","65795","","null","","","null","38","","","","","","","","","","","","","","","",""
"","ITI","","html-keyboard-response","252","297388","0.0-1.0-351.0","0","0","65795","","null","","","null","38","","","","","","","","","","","","","","","NaN",""
"","S1","","html-keyboard-response","253","297650","0.0-1.0-353.0","0","0","65795","","null","","","null","39","","","","","","","","","","","","","","","",""
"","ISI","","html-keyboard-response","254","297822","0.0-1.0-354.0","0","0","65795","","null","","","null","39","NaN","","","","","","","","","","","","","","",""
"","S2","","html-keyboard-response","255","298088","0.0-1.0-355.0","0","0","65795","","null","","","null","39","","NaN","","","","","","","","","","","","","",""
"","response","","html-keyboard-response","256","298438","0.0-1.0-356.0-0.0","0","0","65795","","342","","","68","39","","","1","39","training","adjacent","DE","4","5","L.jpg","R.jpg","0","1","0","",""
"","feedback","","html-keyboard-response","257","299458","0.0-1.0-357.0-0.0","0","0","65795","","null","","","null","39","","","","","","","","","","","","","","","",""
"","time_out","","html-keyboard-response","258","301474","0.0-1.0-359.0-0.0","0","0","65795","","null","","","null","39","","","","","","","","","","","","","","","",""
"","ITI","","html-keyboard-response","259","302492","0.0-1.0-360.0","0","0","65795","","null","","","null","39","","","","","","","","","","","","","","","NaN",""
"","S1","","html-keyboard-response","260","302755","0.0-1.0-362.0","0","0","65795","","null","","","null","40","","","","","","","","","","","","","","","",""
"","ISI","","html-keyboard-response","261","302935","0.0-1.0-363.0","0","0","65795","","null","","","null","40","NaN","","","","","","","","","","","","","","",""
"","S2","","html-keyboard-response","262","303206","0.0-1.0-364.0","0","0","65795","","null","","","null","40","","NaN","","","","","","","","","","","","","",""
"","response","","html-keyboard-response","263","303355","0.0-1.0-365.0-0.0","0","0","65795","","142","","","75","40","","","1","40","training","adjacent","ED","5","4","R.jpg","L.jpg","1","0","0","",""
"","feedback","","html-keyboard-response","264","304379","0.0-1.0-366.0-0.0","0","0","65795","","null","","","null","40","","","","","","","","","","","","","","","",""
"","time_out","","html-keyboard-response","265","306395","0.0-1.0-368.0-0.0","0","0","65795","","null","","","null","40","","","","","","","","","","","","","","","",""
"","ITI","","html-keyboard-response","266","307419","0.0-1.0-369.0","0","0","65795","","null","","","null","40","","","","","","","","","","","","","","","NaN",""
"","S1","","html-keyboard-response","267","307685","0.0-1.0-371.0","0","0","65795","","null","","","null","41","","","","","","","","","","","","","","","",""
"","ISI","","html-keyboard-response","268","307856","0.0-1.0-372.0","0","0","65795","","null","","","null","41","NaN","","","","","","","","","","","","","","",""
"","S2","","html-keyboard-response","269","308122","0.0-1.0-373.0","0","0","65795","","null","","","null","41","","NaN","","","","","","","","","","","","","",""
"","response","","html-keyboard-response","270","308529","0.0-1.0-374.0-0.0","0","0","65795","","398","","","68","41","","","1","41","training","adjacent","FE","6","5","P.jpg","R.jpg","0","0","1","",""
"","feedback","","html-keyboard-response","271","309545","0.0-1.0-375.0-0.0","0","0","65795","","null","","","null","41","","","","","","","","","","","","","","","",""
"","ITI","","html-keyboard-response","272","310560","0.0-1.0-378.0","0","0","65795","","null","","","null","41","","","","","","","","","","","","","","","NaN",""
"","S1","","html-keyboard-response","273","310833","0.0-1.0-380.0","0","0","65795","","null","","","null","42","","","","","","","","","","","","","","","",""
"","ISI","","html-keyboard-response","274","311000","0.0-1.0-381.0","0","0","65795","","null","","","null","42","NaN","","","","","","","","","","","","","","",""
"","S2","","html-keyboard-response","275","311266","0.0-1.0-382.0","0","0","65795","","null","","","null","42","","NaN","","","","","","","","","","","","","",""
"","response","","html-keyboard-response","276","312094","0.0-1.0-383.0-0.0","0","0","65795","","821","","","68","42","","","1","42","training","adjacent","CD","3","4","Q.jpg","L.jpg","0","1","0","",""
"","feedback","","html-keyboard-response","277","313118","0.0-1.0-384.0-0.0","0","0","65795","","null","","","null","42","","","","","","","","","","","","","","","",""
"","time_out","","html-keyboard-response","278","315133","0.0-1.0-386.0-0.0","0","0","65795","","null","","","null","42","","","","","","","","","","","","","","","",""
"","ITI","","html-keyboard-response","279","316155","0.0-1.0-387.0","0","0","65795","","null","","","null","42","","","","","","","","","","","","","","","NaN",""
"","S1","","html-keyboard-response","280","316421","0.0-1.0-389.0","0","0","65795","","null","","","null","43","","","","","","","","","","","","","","","",""
"","ISI","","html-keyboard-response","281","316592","0.0-1.0-390.0","0","0","65795","","null","","","null","43","NaN","","","","","","","","","","","","","","",""
"","S2","","html-keyboard-response","282","316853","0.0-1.0-391.0","0","0","65795","","null","","","null","43","","NaN","","","","","","","","","","","","","",""
"","response","","html-keyboard-response","283","317380","0.0-1.0-392.0-0.0","0","0","65795","","518","","","75","43","","","1","43","training","adjacent","BA","2","1","N.jpg","O.jpg","1","0","0","",""
"","feedback","","html-keyboard-response","284","318402","0.0-1.0-393.0-0.0","0","0","65795","","null","","","null","43","","","","","","","","","","","","","","","",""
"","time_out","","html-keyboard-response","285","320410","0.0-1.0-395.0-0.0","0","0","65795","","null","","","null","43","","","","","","","","","","","","","","","",""
"","ITI","","html-keyboard-response","286","321429","0.0-1.0-396.0","0","0","65795","","null","","","null","43","","","","","","","","","","","","","","","NaN",""
"","S1","","html-keyboard-response","287","321699","0.0-1.0-398.0","0","0","65795","","null","","","null","44","","","","","","","","","","","","","","","",""
"","ISI","","html-keyboard-response","288","321871","0.0-1.0-399.0","0","0","65795","","null","","","null","44","NaN","","","","","","","","","","","","","","",""
"","S2","","html-keyboard-response","289","322128","0.0-1.0-400.0","0","0","65795","","null","","","null","44","","NaN","","","","","","","","","","","","","",""
"","response","","html-keyboard-response","290","322558","0.0-1.0-401.0-0.0","0","0","65795","","424","","","68","44","","","1","44","training","adjacent","FE","6","5","P.jpg","R.jpg","0","0","1","",""
"","feedback","","html-keyboard-response","291","323578","0.0-1.0-402.0-0.0","0","0","65795","","null","","","null","44","","","","","","","","","","","","","","","",""
"","ITI","","html-keyboard-response","292","324596","0.0-1.0-405.0","0","0","65795","","null","","","null","44","","","","","","","","","","","","","","","NaN",""
"","S1","","html-keyboard-response","293","324870","0.0-1.0-407.0","0","0","65795","","null","","","null","45","","","","","","","","","","","","","","","",""
"","ISI","","html-keyboard-response","294","325035","0.0-1.0-408.0","0","0","65795","","null","","","null","45","NaN","","","","","","","","","","","","","","",""
"","S2","","html-keyboard-response","295","325307","0.0-1.0-409.0","0","0","65795","","null","","","null","45","","NaN","","","","","","","","","","","","","",""
"","response","","html-keyboard-response","296","325561","0.0-1.0-410.0-0.0","0","0","65795","","248","","","75","45","","","1","45","training","adjacent","FG","6","7","P.jpg","M.jpg","1","1","1","",""
"","feedback","","html-keyboard-response","297","326573","0.0-1.0-411.0-0.0","0","0","65795","","null","","","null","45","","","","","","","","","","","","","","","",""
"","ITI","","html-keyboard-response","298","327593","0.0-1.0-414.0","0","0","65795","","null","","","null","45","","","","","","","","","","","","","","","NaN",""
"","S1","","html-keyboard-response","299","327851","0.0-1.0-416.0","0","0","65795","","null","","","null","46","","","","","","","","","","","","","","","",""
"","ISI","","html-keyboard-response","300","328017","0.0-1.0-417.0","0","0","65795","","null","","","null","46","NaN","","","","","","","","","","","","","","",""
"","S2","","html-keyboard-response","301","328286","0.0-1.0-418.0","0","0","65795","","null","","","null","46","","NaN","","","","","","","","","","","","","",""
"","response","","html-keyboard-response","302","328586","0.0-1.0-419.0-0.0","0","0","65795","","292","","","68","46","","","1","46","training","adjacent","EF","5","6","R.jpg","P.jpg","0","1","0","",""
"","feedback","","html-keyboard-response","303","329597","0.0-1.0-420.0-0.0","0","0","65795","","null","","","null","46","","","","","","","","","","","","","","","",""
"","time_out","","html-keyboard-response","304","331609","0.0-1.0-422.0-0.0","0","0","65795","","null","","","null","46","","","","","","","","","","","","","","","",""
"","ITI","","html-keyboard-response","305","332622","0.0-1.0-423.0","0","0","65795","","null","","","null","46","","","","","","","","","","","","","","","NaN",""
"","S1","","html-keyboard-response","306","332884","0.0-1.0-425.0","0","0","65795","","null","","","null","47","","","","","","","","","","","","","","","",""
"","ISI","","html-keyboard-response","307","333042","0.0-1.0-426.0","0","0","65795","","null","","","null","47","NaN","","","","","","","","","","","","","","",""
"","S2","","html-keyboard-response","308","333310","0.0-1.0-427.0","0","0","65795","","null","","","null","47","","NaN","","","","","","","","","","","","","",""
"","response","","html-keyboard-response","309","333357","0.0-1.0-428.0-0.0","0","0","65795","","42","","","75","47","","","1","47","training","adjacent","AB","1","2","O.jpg","N.jpg","1","1","1","",""
"","feedback","","html-keyboard-response","310","334373","0.0-1.0-429.0-0.0","0","0","65795","","null","","","null","47","","","","","","","","","","","","","","","",""
"","ITI","","html-keyboard-response","311","335392","0.0-1.0-432.0","0","0","65795","","null","","","null","47","","","","","","","","","","","","","","","NaN",""
"","block_over","","html-keyboard-response","312","346879","0.0-1.0-433.0-0.0","0","0","65795","","11475","","","32","47","","","","","","","","","","","","","","","",""
"","S1","","html-keyboard-response","313","347144","0.0-1.0-434.0","0","0","65795","","null","","","null","48","","","","","","","","","","","","","","","",""
"","ISI","","html-keyboard-response","314","347315","0.0-1.0-435.0","0","0","65795","","null","","","null","48","NaN","","","","","","","","","","","","","","",""
"","S2","","html-keyboard-response","315","347582","0.0-1.0-436.0","0","0","65795","","null","","","null","48","","NaN","","","","","","","","","","","","","",""
"","response","","html-keyboard-response","316","348217","0.0-1.0-437.0-0.0","0","0","65795","","628","","","68","48","","","2","48","training","adjacent","FG","6","7","P.jpg","M.jpg","0","1","0","",""
"","feedback","","html-keyboard-response","317","349244","0.0-1.0-438.0-0.0","0","0","65795","","null","","","null","48","","","","","","","","","","","","","","","",""
"","time_out","","html-keyboard-response","318","351261","0.0-1.0-440.0-0.0","0","0","65795","","null","","","null","48","","","","","","","","","","","","","","","",""
"","ITI","","html-keyboard-response","319","352276","0.0-1.0-441.0","0","0","65795","","null","","","null","48","","","","","","","","","","","","","","","NaN",""
"","S1","","html-keyboard-response","320","352544","0.0-1.0-443.0","0","0","65795","","null","","","null","49","","","","","","","","","","","","","","","",""
"","ISI","","html-keyboard-response","321","352717","0.0-1.0-444.0","0","0","65795","","null","","","null","49","NaN","","","","","","","","","","","","","","",""
"","S2","","html-keyboard-response","322","352983","0.0-1.0-445.0","0","0","65795","","null","","","null","49","","NaN","","","","","","","","","","","","","",""
"","response","","html-keyboard-response","323","353274","0.0-1.0-446.0-0.0","0","0","65795","","284","","","75","49","","","2","49","training","adjacent","CB","3","2","Q.jpg","N.jpg","1","0","0","",""
"","feedback","","html-keyboard-response","324","354294","0.0-1.0-447.0-0.0","0","0","65795","","null","","","null","49","","","","","","","","","","","","","","","",""
"","time_out","","html-keyboard-response","325","356306","0.0-1.0-449.0-0.0","0","0","65795","","null","","","null","49","","","","","","","","","","","","","","","",""
"","ITI","","html-keyboard-response","326","357323","0.0-1.0-450.0","0","0","65795","","null","","","null","49","","","","","","","","","","","","","","","NaN",""
"","S1","","html-keyboard-response","327","357591","0.0-1.0-452.0","0","0","65795","","null","","","null","50","","","","","","","","","","","","","","","",""
"","ISI","","html-keyboard-response","328","357756","0.0-1.0-453.0","0","0","65795","","null","","","null","50","NaN","","","","","","","","","","","","","","",""
"","S2","","html-keyboard-response","329","358052","0.0-1.0-454.0","0","0","65795","","null","","","null","50","","NaN","","","","","","","","","","","","","",""
"","response","","html-keyboard-response","330","358354","0.0-1.0-455.0-0.0","0","0","65795","","297","","","68","50","","","2","50","training","adjacent","FE","6","5","P.jpg","R.jpg","0","0","1","",""
"","feedback","","html-keyboard-response","331","359374","0.0-1.0-456.0-0.0","0","0","65795","","null","","","null","50","","","","","","","","","","","","","","","",""
"","ITI","","html-keyboard-response","332","360396","0.0-1.0-459.0","0","0","65795","","null","","","null","50","","","","","","","","","","","","","","","NaN",""
"","S1","","html-keyboard-response","333","360658","0.0-1.0-461.0","0","0","65795","","null","","","null","51","","","","","","","","","","","","","","","",""
"","ISI","","html-keyboard-response","334","360828","0.0-1.0-462.0","0","0","65795","","null","","","null","51","NaN","","","","","","","","","","","","","","",""
"","S2","","html-keyboard-response","335","361089","0.0-1.0-463.0","0","0","65795","","null","","","null","51","","NaN","","","","","","","","","","","","","",""
"","response","","html-keyboard-response","336","361541","0.0-1.0-464.0-0.0","0","0","65795","","442","","","75","51","","","2","51","training","adjacent","GF","7","6","M.jpg","P.jpg","1","0","0","",""
"","feedback","","html-keyboard-response","337","362560","0.0-1.0-465.0-0.0","0","0","65795","","null","","","null","51","","","","","","","","","","","","","","","",""
"","time_out","","html-keyboard-response","338","364579","0.0-1.0-467.0-0.0","0","0","65795","","null","","","null","51","","","","","","","","","","","","","","","",""
"","ITI","","html-keyboard-response","339","365594","0.0-1.0-468.0","0","0","65795","","null","","","null","51","","","","","","","","","","","","","","","NaN",""
"","S1","","html-keyboard-response","340","365856","0.0-1.0-470.0","0","0","65795","","null","","","null","52","","","","","","","","","","","","","","","",""
"","ISI","","html-keyboard-response","341","366029","0.0-1.0-471.0","0","0","65795","","null","","","null","52","NaN","","","","","","","","","","","","","","",""
"","S2","","html-keyboard-response","342","366296","0.0-1.0-472.0","0","0","65795","","null","","","null","52","","NaN","","","","","","","","","","","","","",""
"","response","","html-keyboard-response","343","366537","0.0-1.0-473.0-0.0","0","0","65795","","236","","","68","52","","","2","52","training","adjacent","AB","1","2","O.jpg","N.jpg","0","1","0","",""
"","feedback","","html-keyboard-response","344","367569","0.0-1.0-474.0-0.0","0","0","65795","","null","","","null","52","","","","","","","","","","","","","","","",""
"","time_out","","html-keyboard-response","345","369589","0.0-1.0-476.0-0.0","0","0","65795","","null","","","null","52","","","","","","","","","","","","","","","",""
"","ITI","","html-keyboard-response","346","370597","0.0-1.0-477.0","0","0","65795","","null","","","null","52","","","","","","","","","","","","","","","NaN",""
"","S1","","html-keyboard-response","347","370864","0.0-1.0-479.0","0","0","65795","","null","","","null","53","","","","","","","","","","","","","","","",""
"","ISI","","html-keyboard-response","348","371029","0.0-1.0-480.0","0","0","65795","","null","","","null","53","NaN","","","","","","","","","","","","","","",""
"","S2","","html-keyboard-response","349","371293","0.0-1.0-481.0","0","0","65795","","null","","","null","53","","NaN","","","","","","","","","","","","","",""
"","response","","html-keyboard-response","350","371745","0.0-1.0-482.0-0.0","0","0","65795","","441","","","75","53","","","2","53","training","adjacent","ED","5","4","R.jpg","L.jpg","1","0","0","",""
"","feedback","","html-keyboard-response","351","372758","0.0-1.0-483.0-0.0","0","0","65795","","null","","","null","53","","","","","","","","","","","","","","","",""
"","time_out","","html-keyboard-response","352","374781","0.0-1.0-485.0-0.0","0","0","65795","","null","","","null","53","","","","","","","","","","","","","","","",""
"","ITI","","html-keyboard-response","353","375797","0.0-1.0-486.0","0","0","65795","","null","","","null","53","","","","","","","","","","","","","","","NaN",""
"","S1","","html-keyboard-response","354","376070","0.0-1.0-488.0","0","0","65795","","null","","","null","54","","","","","","","","","","","","","","","",""
"","ISI","","html-keyboard-response","355","376243","0.0-1.0-489.0","0","0","65795","","null","","","null","54","NaN","","","","","","","","","","","","","","",""
"","S2","","html-keyboard-response","356","376511","0.0-1.0-490.0","0","0","65795","","null","","","null","54","","NaN","","","","","","","","","","","","","",""
"","response","","html-keyboard-response","357","377023","0.0-1.0-491.0-0.0","0","0","65795","","506","","","75","54","","","2","54","training","adjacent","GF","7","6","M.jpg","P.jpg","1","0","0","",""
"","feedback","","html-keyboard-response","358","378034","0.0-1.0-492.0-0.0","0","0","65795","","null","","","null","54","","","","","","","","","","","","","","","",""
"","time_out","","html-keyboard-response","359","380048","0.0-1.0-494.0-0.0","0","0","65795","","null","","","null","54","","","","","","","","","","","","","","","",""
"","ITI","","html-keyboard-response","360","381069","0.0-1.0-495.0","0","0","65795","","null","","","null","54","","","","","","","","","","","","","","","NaN",""
"","S1","","html-keyboard-response","361","381329","0.0-1.0-497.0","0","0","65795","","null","","","null","55","","","","","","","","","","","","","","","",""
"","ISI","","html-keyboard-response","362","381495","0.0-1.0-498.0","0","0","65795","","null","","","null","55","NaN","","","","","","","","","","","","","","",""
"","S2","","html-keyboard-response","363","381758","0.0-1.0-499.0","0","0","65795","","null","","","null","55","","NaN","","","","","","","","","","","","","",""
"","response","","html-keyboard-response","364","382212","0.0-1.0-500.0-0.0","0","0","65795","","444","","","68","55","","","2","55","training","adjacent","EF","5","6","R.jpg","P.jpg","0","1","0","",""
"","feedback","","html-keyboard-response","365","383225","0.0-1.0-501.0-0.0","0","0","65795","","null","","","null","55","","","","","","","","","","","","","","","",""
"","time_out","","html-keyboard-response","366","385247","0.0-1.0-503.0-0.0","0","0","65795","","null","","","null","55","","","","","","","","","","","","","","","",""
"","ITI","","html-keyboard-response","367","386264","0.0-1.0-504.0","0","0","65795","","null","","","null","55","","","","","","","","","","","","","","","NaN",""
"","S1","","html-keyboard-response","368","386535","0.0-1.0-506.0","0","0","65795","","null","","","null","56","","","","","","","","","","","","","","","",""
"","ISI","","html-keyboard-response","369","386708","0.0-1.0-507.0","0","0","65795","","null","","","null","56","NaN","","","","","","","","","","","","","","",""
"","S2","","html-keyboard-response","370","386977","0.0-1.0-508.0","0","0","65795","","null","","","null","56","","NaN","","","","","","","","","","","","","",""
"","response","","html-keyboard-response","371","387462","0.0-1.0-509.0-0.0","0","0","65795","","476","","","75","56","","","2","56","training","adjacent","GF","7","6","M.jpg","P.jpg","1","0","0","",""
"","feedback","","html-keyboard-response","372","388476","0.0-1.0-510.0-0.0","0","0","65795","","null","","","null","56","","","","","","","","","","","","","","","",""
"","time_out","","html-keyboard-response","373","390499","0.0-1.0-512.0-0.0","0","0","65795","","null","","","null","56","","","","","","","","","","","","","","","",""
"","ITI","","html-keyboard-response","374","391521","0.0-1.0-513.0","0","0","65795","","null","","","null","56","","","","","","","","","","","","","","","NaN",""
"","S1","","html-keyboard-response","375","391785","0.0-1.0-515.0","0","0","65795","","null","","","null","57","","","","","","","","","","","","","","","",""
"","ISI","","html-keyboard-response","376","391957","0.0-1.0-516.0","0","0","65795","","null","","","null","57","NaN","","","","","","","","","","","","","","",""
"","S2","","html-keyboard-response","377","392220","0.0-1.0-517.0","0","0","65795","","null","","","null","57","","NaN","","","","","","","","","","","","","",""
"","response","","html-keyboard-response","378","393104","0.0-1.0-518.0-0.0","0","0","65795","","876","","","68","57","","","2","57","training","adjacent","EF","5","6","R.jpg","P.jpg","0","1","0","",""
"","feedback","","html-keyboard-response","379","394116","0.0-1.0-519.0-0.0","0","0","65795","","null","","","null","57","","","","","","","","","","","","","","","",""
"","time_out","","html-keyboard-response","380","396141","0.0-1.0-521.0-0.0","0","0","65795","","null","","","null","57","","","","","","","","","","","","","","","",""
"","ITI","","html-keyboard-response","381","397152","0.0-1.0-522.0","0","0","65795","","null","","","null","57","","","","","","","","","","","","","","","NaN",""
"","S1","","html-keyboard-response","382","397411","0.0-1.0-524.0","0","0","65795","","null","","","null","58","","","","","","","","","","","","","","","",""
"","ISI","","html-keyboard-response","383","397576","0.0-1.0-525.0","0","0","65795","","null","","","null","58","NaN","","","","","","","","","","","","","","",""
"","S2","","html-keyboard-response","384","397843","0.0-1.0-526.0","0","0","65795","","null","","","null","58","","NaN","","","","","","","","","","","","","",""
"","response","","html-keyboard-response","385","398578","0.0-1.0-527.0-0.0","0","0","65795","","725","","","75","58","","","2","58","training","adjacent","BA","2","1","N.jpg","O.jpg","1","0","0","",""
"","feedback","","html-keyboard-response","386","399599","0.0-1.0-528.0-0.0","0","0","65795","","null","","","null","58","","","","","","","","","","","","","","","",""
"","time_out","","html-keyboard-response","387","401620","0.0-1.0-530.0-0.0","0","0","65795","","null","","","null","58","","","","","","","","","","","","","","","",""
"","ITI","","html-keyboard-response","388","402629","0.0-1.0-531.0","0","0","65795","","null","","","null","58","","","","","","","","","","","","","","","NaN",""
"","S1","","html-keyboard-response","389","402893","0.0-1.0-533.0","0","0","65795","","null","","","null","59","","","","","","","","","","","","","","","",""
"","ISI","","html-keyboard-response","390","403064","0.0-1.0-534.0","0","0","65795","","null","","","null","59","NaN","","","","","","","","","","","","","","",""
"","S2","","html-keyboard-response","391","403326","0.0-1.0-535.0","0","0","65795","","null","","","null","59","","NaN","","","","","","","","","","","","","",""
"","response","","html-keyboard-response","392","403603","0.0-1.0-536.0-0.0","0","0","65795","","269","","","68","59","","","2","59","training","adjacent","BA","2","1","N.jpg","O.jpg","0","0","1","",""
"","feedback","","html-keyboard-response","393","404617","0.0-1.0-537.0-0.0","0","0","65795","","null","","","null","59","","","","","","","","","","","","","","","",""
"","ITI","","html-keyboard-response","394","405633","0.0-1.0-540.0","0","0","65795","","null","","","null","59","","","","","","","","","","","","","","","NaN",""
"","S1","","html-keyboard-response","395","405903","0.0-1.0-542.0","0","0","65795","","null","","","null","60","","","","","","","","","","","","","","","",""
"","ISI","","html-keyboard-response","396","406075","0.0-1.0-543.0","0","0","65795","","null","","","null","60","NaN","","","","","","","","","","","","","","",""
"","S2","","html-keyboard-response","397","406339","0.0-1.0-544.0","0","0","65795","","null","","","null","60","","NaN","","","","","","","","","","","","","",""
"","response","","html-keyboard-response","398","406625","0.0-1.0-545.0-0.0","0","0","65795","","282","","","68","60","","","2","60","training","adjacent","CB","3","2","Q.jpg","N.jpg","0","0","1","",""
"","feedback","","html-keyboard-response","399","407638","0.0-1.0-546.0-0.0","0","0","65795","","null","","","null","60","","","","","","","","","","","","","","","",""
"","ITI","","html-keyboard-response","400","408653","0.0-1.0-549.0","0","0","65795","","null","","","null","60","","","","","","","","","","","","","","","NaN",""
"","S1","","html-keyboard-response","401","408923","0.0-1.0-551.0","0","0","65795","","null","","","null","61","","","","","","","","","","","","","","","",""
"","ISI","","html-keyboard-response","402","409091","0.0-1.0-552.0","0","0","65795","","null","","","null","61","NaN","","","","","","","","","","","","","","",""
"","S2","","html-keyboard-response","403","409351","0.0-1.0-553.0","0","0","65795","","null","","","null","61","","NaN","","","","","","","","","","","","","",""
"","response","","html-keyboard-response","404","409675","0.0-1.0-554.0-0.0","0","0","65795","","315","","","75","61","","","2","61","training","adjacent","BC","2","3","N.jpg","Q.jpg","1","1","1","",""
"","feedback","","html-keyboard-response","405","410698","0.0-1.0-555.0-0.0","0","0","65795","","null","","","null","61","","","","","","","","","","","","","","","",""
"","ITI","","html-keyboard-response","406","411715","0.0-1.0-558.0","0","0","65795","","null","","","null","61","","","","","","","","","","","","","","","NaN",""
"","S1","","html-keyboard-response","407","411981","0.0-1.0-560.0","0","0","65795","","null","","","null","62","","","","","","","","","","","","","","","",""
"","ISI","","html-keyboard-response","408","412139","0.0-1.0-561.0","0","0","65795","","null","","","null","62","NaN","","","","","","","","","","","","","","",""
"","S2","","html-keyboard-response","409","412407","0.0-1.0-562.0","0","0","65795","","null","","","null","62","","NaN","","","","","","","","","","","","","",""
"","response","","html-keyboard-response","410","412835","0.0-1.0-563.0-0.0","0","0","65795","","421","","","68","62","","","2","62","training","adjacent","FE","6","5","P.jpg","R.jpg","0","0","1","",""
"","feedback","","html-keyboard-response","411","413849","0.0-1.0-564.0-0.0","0","0","65795","","null","","","null","62","","","","","","","","","","","","","","","",""
"","ITI","","html-keyboard-response","412","414871","0.0-1.0-567.0","0","0","65795","","null","","","null","62","","","","","","","","","","","","","","","NaN",""
"","S1","","html-keyboard-response","413","415140","0.0-1.0-569.0","0","0","65795","","null","","","null","63","","","","","","","","","","","","","","","",""
"","ISI","","html-keyboard-response","414","415304","0.0-1.0-570.0","0","0","65795","","null","","","null","63","NaN","","","","","","","","","","","","","","",""
"","S2","","html-keyboard-response","415","415567","0.0-1.0-571.0","0","0","65795","","null","","","null","63","","NaN","","","","","","","","","","","","","",""
"","response","","html-keyboard-response","416","416010","0.0-1.0-572.0-0.0","0","0","65795","","434","","","75","63","","","2","63","training","adjacent","BA","2","1","N.jpg","O.jpg","1","0","0","",""
"","feedback","","html-keyboard-response","417","417025","0.0-1.0-573.0-0.0","0","0","65795","","null","","","null","63","","","","","","","","","","","","","","","",""
"","time_out","","html-keyboard-response","418","419048","0.0-1.0-575.0-0.0","0","0","65795","","null","","","null","63","","","","","","","","","","","","","","","",""
"","ITI","","html-keyboard-response","419","420056","0.0-1.0-576.0","0","0","65795","","null","","","null","63","","","","","","","","","","","","","","","NaN",""
"","S1","","html-keyboard-response","420","420315","0.0-1.0-578.0","0","0","65795","","null","","","null","64","","","","","","","","","","","","","","","",""
"","ISI","","html-keyboard-response","421","420474","0.0-1.0-579.0","0","0","65795","","null","","","null","64","NaN","","","","","","","","","","","","","","",""
"","S2","","html-keyboard-response","422","420739","0.0-1.0-580.0","0","0","65795","","null","","","null","64","","NaN","","","","","","","","","","","","","",""
"","response","","html-keyboard-response","423","421205","0.0-1.0-581.0-0.0","0","0","65795","","457","","","68","64","","","2","64","training","adjacent","FG","6","7","P.jpg","M.jpg","0","1","0","",""
"","feedback","","html-keyboard-response","424","422228","0.0-1.0-582.0-0.0","0","0","65795","","null","","","null","64","","","","","","","","","","","","","","","",""
"","time_out","","html-keyboard-response","425","424252","0.0-1.0-584.0-0.0","0","0","65795","","null","","","null","64","","","","","","","","","","","","","","","",""
"","ITI","","html-keyboard-response","426","425272","0.0-1.0-585.0","0","0","65795","","null","","","null","64","","","","","","","","","","","","","","","NaN",""
"","S1","","html-keyboard-response","427","425535","0.0-1.0-587.0","0","0","65795","","null","","","null","65","","","","","","","","","","","","","","","",""
"","ISI","","html-keyboard-response","428","425707","0.0-1.0-588.0","0","0","65795","","null","","","null","65","NaN","","","","","","","","","","","","","","",""
"","S2","","html-keyboard-response","429","425972","0.0-1.0-589.0","0","0","65795","","null","","","null","65","","NaN","","","","","","","","","","","","","",""
"","response","","html-keyboard-response","430","426657","0.0-1.0-590.0-0.0","0","0","65795","","681","","","75","65","","","2","65","training","adjacent","CD","3","4","Q.jpg","L.jpg","1","1","1","",""
"","feedback","","html-keyboard-response","431","427698","0.0-1.0-591.0-0.0","0","0","65795","","null","","","null","65","","","","","","","","","","","","","","","",""
"","ITI","","html-keyboard-response","432","428722","0.0-1.0-594.0","0","0","65795","","null","","","null","65","","","","","","","","","","","","","","","NaN",""
"","S1","","html-keyboard-response","433","428982","0.0-1.0-596.0","0","0","65795","","null","","","null","66","","","","","","","","","","","","","","","",""
"","ISI","","html-keyboard-response","434","429154","0.0-1.0-597.0","0","0","65795","","null","","","null","66","NaN","","","","","","","","","","","","","","",""
"","S2","","html-keyboard-response","435","429419","0.0-1.0-598.0","0","0","65795","","null","","","null","66","","NaN","","","","","","","","","","","","","",""
"","response","","html-keyboard-response","436","430105","0.0-1.0-599.0-0.0","0","0","65795","","678","","","75","66","","","2","66","training","adjacent","BA","2","1","N.jpg","O.jpg","1","0","0","",""
"","feedback","","html-keyboard-response","437","431129","0.0-1.0-600.0-0.0","0","0","65795","","null","","","null","66","","","","","","","","","","","","","","","",""
"","time_out","","html-keyboard-response","438","433149","0.0-1.0-602.0-0.0","0","0","65795","","null","","","null","66","","","","","","","","","","","","","","","",""
"","ITI","","html-keyboard-response","439","434171","0.0-1.0-603.0","0","0","65795","","null","","","null","66","","","","","","","","","","","","","","","NaN",""
"","S1","","html-keyboard-response","440","434438","0.0-1.0-605.0","0","0","65795","","null","","","null","67","","","","","","","","","","","","","","","",""
"","ISI","","html-keyboard-response","441","434605","0.0-1.0-606.0","0","0","65795","","null","","","null","67","NaN","","","","","","","","","","","","","","",""
"","S2","","html-keyboard-response","442","434869","0.0-1.0-607.0","0","0","65795","","null","","","null","67","","NaN","","","","","","","","","","","","","",""
"","response","","html-keyboard-response","443","435179","0.0-1.0-608.0-0.0","0","0","65795","","304","","","75","67","","","2","67","training","adjacent","AB","1","2","O.jpg","N.jpg","1","1","1","",""
"","feedback","","html-keyboard-response","444","436220","0.0-1.0-609.0-0.0","0","0","65795","","null","","","null","67","","","","","","","","","","","","","","","",""
"","ITI","","html-keyboard-response","445","437241","0.0-1.0-612.0","0","0","65795","","null","","","null","67","","","","","","","","","","","","","","","NaN",""
"","S1","","html-keyboard-response","446","437511","0.0-1.0-614.0","0","0","65795","","null","","","null","68","","","","","","","","","","","","","","","",""
"","ISI","","html-keyboard-response","447","437671","0.0-1.0-615.0","0","0","65795","","null","","","null","68","NaN","","","","","","","","","","","","","","",""
"","S2","","html-keyboard-response","448","437945","0.0-1.0-616.0","0","0","65795","","null","","","null","68","","NaN","","","","","","","","","","","","","",""
"","response","","html-keyboard-response","449","438656","0.0-1.0-617.0-0.0","0","0","65795","","702","","","68","68","","","2","68","training","adjacent","DE","4","5","L.jpg","R.jpg","0","1","0","",""
"","feedback","","html-keyboard-response","450","439675","0.0-1.0-618.0-0.0","0","0","65795","","null","","","null","68","","","","","","","","","","","","","","","",""
"","time_out","","html-keyboard-response","451","441685","0.0-1.0-620.0-0.0","0","0","65795","","null","","","null","68","","","","","","","","","","","","","","","",""
"","ITI","","html-keyboard-response","452","442695","0.0-1.0-621.0","0","0","65795","","null","","","null","68","","","","","","","","","","","","","","","NaN",""
"","S1","","html-keyboard-response","453","442970","0.0-1.0-623.0","0","0","65795","","null","","","null","69","","","","","","","","","","","","","","","",""
"","ISI","","html-keyboard-response","454","443137","0.0-1.0-624.0","0","0","65795","","null","","","null","69","NaN","","","","","","","","","","","","","","",""
"","S2","","html-keyboard-response","455","443401","0.0-1.0-625.0","0","0","65795","","null","","","null","69","","NaN","","","","","","","","","","","","","",""
"","response","","html-keyboard-response","456","443840","0.0-1.0-626.0-0.0","0","0","65795","","431","","","68","69","","","2","69","training","adjacent","ED","5","4","R.jpg","L.jpg","0","0","1","",""
"","feedback","","html-keyboard-response","457","444852","0.0-1.0-627.0-0.0","0","0","65795","","null","","","null","69","","","","","","","","","","","","","","","",""
"","ITI","","html-keyboard-response","458","445875","0.0-1.0-630.0","0","0","65795","","null","","","null","69","","","","","","","","","","","","","","","NaN",""
"","S1","","html-keyboard-response","459","446138","0.0-1.0-632.0","0","0","65795","","null","","","null","70","","","","","","","","","","","","","","","",""
"","ISI","","html-keyboard-response","460","446304","0.0-1.0-633.0","0","0","65795","","null","","","null","70","NaN","","","","","","","","","","","","","","",""
"","S2","","html-keyboard-response","461","446567","0.0-1.0-634.0","0","0","65795","","null","","","null","70","","NaN","","","","","","","","","","","","","",""
"","response","","html-keyboard-response","462","447186","0.0-1.0-635.0-0.0","0","0","65795","","612","","","75","70","","","2","70","training","adjacent","BC","2","3","N.jpg","Q.jpg","1","1","1","",""
"","feedback","","html-keyboard-response","463","448208","0.0-1.0-636.0-0.0","0","0","65795","","null","","","null","70","","","","","","","","","","","","","","","",""
"","ITI","","html-keyboard-response","464","449217","0.0-1.0-639.0","0","0","65795","","null","","","null","70","","","","","","","","","","","","","","","NaN",""
"","S1","","html-keyboard-response","465","449488","0.0-1.0-641.0","0","0","65795","","null","","","null","71","","","","","","","","","","","","","","","",""
"","ISI","","html-keyboard-response","466","449659","0.0-1.0-642.0","0","0","65795","","null","","","null","71","NaN","","","","","","","","","","","","","","",""
"","S2","","html-keyboard-response","467","449920","0.0-1.0-643.0","0","0","65795","","null","","","null","71","","NaN","","","","","","","","","","","","","",""
"","response","","html-keyboard-response","468","450643","0.0-1.0-644.0-0.0","0","0","65795","","716","","","75","71","","","2","71","training","adjacent","DE","4","5","L.jpg","R.jpg","1","1","1","",""
"","feedback","","html-keyboard-response","469","451667","0.0-1.0-645.0-0.0","0","0","65795","","null","","","null","71","","","","","","","","","","","","","","","",""
"","ITI","","html-keyboard-response","470","452683","0.0-1.0-648.0","0","0","65795","","null","","","null","71","","","","","","","","","","","","","","","NaN",""
"","S1","","html-keyboard-response","471","452950","0.0-1.0-650.0","0","0","65795","","null","","","null","72","","","","","","","","","","","","","","","",""
"","ISI","","html-keyboard-response","472","453108","0.0-1.0-651.0","0","0","65795","","null","","","null","72","NaN","","","","","","","","","","","","","","",""
"","S2","","html-keyboard-response","473","453370","0.0-1.0-652.0","0","0","65795","","null","","","null","72","","NaN","","","","","","","","","","","","","",""
"","response","","html-keyboard-response","474","453858","0.0-1.0-653.0-0.0","0","0","65795","","480","","","75","72","","","2","72","training","adjacent","DE","4","5","L.jpg","R.jpg","1","1","1","",""
"","feedback","","html-keyboard-response","475","454884","0.0-1.0-654.0-0.0","0","0","65795","","null","","","null","72","","","","","","","","","","","","","","","",""
"","ITI","","html-keyboard-response","476","455903","0.0-1.0-657.0","0","0","65795","","null","","","null","72","","","","","","","","","","","","","","","NaN",""
"","S1","","html-keyboard-response","477","456170","0.0-1.0-659.0","0","0","65795","","null","","","null","73","","","","","","","","","","","","","","","",""
"","ISI","","html-keyboard-response","478","456338","0.0-1.0-660.0","0","0","65795","","null","","","null","73","NaN","","","","","","","","","","","","","","",""
"","S2","","html-keyboard-response","479","456599","0.0-1.0-661.0","0","0","65795","","null","","","null","73","","NaN","","","","","","","","","","","","","",""
"","response","","html-keyboard-response","480","456995","0.0-1.0-662.0-0.0","0","0","65795","","390","","","75","73","","","2","73","training","adjacent","DC","4","3","L.jpg","Q.jpg","1","0","0","",""
"","feedback","","html-keyboard-response","481","458020","0.0-1.0-663.0-0.0","0","0","65795","","null","","","null","73","","","","","","","","","","","","","","","",""
"","time_out","","html-keyboard-response","482","460044","0.0-1.0-665.0-0.0","0","0","65795","","null","","","null","73","","","","","","","","","","","","","","","",""
"","ITI","","html-keyboard-response","483","461059","0.0-1.0-666.0","0","0","65795","","null","","","null","73","","","","","","","","","","","","","","","NaN",""
"","S1","","html-keyboard-response","484","461329","0.0-1.0-668.0","0","0","65795","","null","","","null","74","","","","","","","","","","","","","","","",""
"","ISI","","html-keyboard-response","485","461498","0.0-1.0-669.0","0","0","65795","","null","","","null","74","NaN","","","","","","","","","","","","","","",""
"","S2","","html-keyboard-response","486","461767","0.0-1.0-670.0","0","0","65795","","null","","","null","74","","NaN","","","","","","","","","","","","","",""
"","response","","html-keyboard-response","487","462060","0.0-1.0-671.0-0.0","0","0","65795","","283","","","68","74","","","2","74","training","adjacent","CB","3","2","Q.jpg","N.jpg","0","0","1","",""
"","feedback","","html-keyboard-response","488","463074","0.0-1.0-672.0-0.0","0","0","65795","","null","","","null","74","","","","","","","","","","","","","","","",""
"","ITI","","html-keyboard-response","489","464094","0.0-1.0-675.0","0","0","65795","","null","","","null","74","","","","","","","","","","","","","","","NaN",""
"","S1","","html-keyboard-response","490","464369","0.0-1.0-677.0","0","0","65795","","null","","","null","75","","","","","","","","","","","","","","","",""
"","ISI","","html-keyboard-response","491","464540","0.0-1.0-678.0","0","0","65795","","null","","","null","75","NaN","","","","","","","","","","","","","","",""
"","S2","","html-keyboard-response","492","464806","0.0-1.0-679.0","0","0","65795","","null","","","null","75","","NaN","","","","","","","","","","","","","",""
"","response","","html-keyboard-response","493","465061","0.0-1.0-680.0-0.0","0","0","65795","","246","","","75","75","","","2","75","training","adjacent","ED","5","4","R.jpg","L.jpg","1","0","0","",""
"","feedback","","html-keyboard-response","494","466070","0.0-1.0-681.0-0.0","0","0","65795","","null","","","null","75","","","","","","","","","","","","","","","",""
"","time_out","","html-keyboard-response","495","468093","0.0-1.0-683.0-0.0","0","0","65795","","null","","","null","75","","","","","","","","","","","","","","","",""
"","ITI","","html-keyboard-response","496","469115","0.0-1.0-684.0","0","0","65795","","null","","","null","75","","","","","","","","","","","","","","","NaN",""
"","S1","","html-keyboard-response","497","469387","0.0-1.0-686.0","0","0","65795","","null","","","null","76","","","","","","","","","","","","","","","",""
"","ISI","","html-keyboard-response","498","469549","0.0-1.0-687.0","0","0","65795","","null","","","null","76","NaN","","","","","","","","","","","","","","",""
"","S2","","html-keyboard-response","499","469816","0.0-1.0-688.0","0","0","65795","","null","","","null","76","","NaN","","","","","","","","","","","","","",""
"","response","","html-keyboard-response","500","470470","0.0-1.0-689.0-0.0","0","0","65795","","648","","","68","76","","","2","76","training","adjacent","FE","6","5","P.jpg","R.jpg","0","0","1","",""
"","feedback","","html-keyboard-response","501","471493","0.0-1.0-690.0-0.0","0","0","65795","","null","","","null","76","","","","","","","","","","","","","","","",""
"","ITI","","html-keyboard-response","502","472518","0.0-1.0-693.0","0","0","65795","","null","","","null","76","","","","","","","","","","","","","","","NaN",""
"","S1","","html-keyboard-response","503","472780","0.0-1.0-695.0","0","0","65795","","null","","","null","77","","","","","","","","","","","","","","","",""
"","ISI","","html-keyboard-response","504","472946","0.0-1.0-696.0","0","0","65795","","null","","","null","77","NaN","","","","","","","","","","","","","","",""
"","S2","","html-keyboard-response","505","473236","0.0-1.0-697.0","0","0","65795","","null","","","null","77","","NaN","","","","","","","","","","","","","",""
"","response","","html-keyboard-response","506","473566","0.0-1.0-698.0-0.0","0","0","65795","","323","","","75","77","","","2","77","training","adjacent","BC","2","3","N.jpg","Q.jpg","1","1","1","",""
"","feedback","","html-keyboard-response","507","474579","0.0-1.0-699.0-0.0","0","0","65795","","null","","","null","77","","","","","","","","","","","","","","","",""
"","ITI","","html-keyboard-response","508","475589","0.0-1.0-702.0","0","0","65795","","null","","","null","77","","","","","","","","","","","","","","","NaN",""
"","S1","","html-keyboard-response","509","475860","0.0-1.0-704.0","0","0","65795","","null","","","null","78","","","","","","","","","","","","","","","",""
"","ISI","","html-keyboard-response","510","476033","0.0-1.0-705.0","0","0","65795","","null","","","null","78","NaN","","","","","","","","","","","","","","",""
"","S2","","html-keyboard-response","511","476293","0.0-1.0-706.0","0","0","65795","","null","","","null","78","","NaN","","","","","","","","","","","","","",""
"","response","","html-keyboard-response","512","476887","0.0-1.0-707.0-0.0","0","0","65795","","586","","","75","78","","","2","78","training","adjacent","EF","5","6","R.jpg","P.jpg","1","1","1","",""
"","feedback","","html-keyboard-response","513","477900","0.0-1.0-708.0-0.0","0","0","65795","","null","","","null","78","","","","","","","","","","","","","","","",""
"","ITI","","html-keyboard-response","514","478917","0.0-1.0-711.0","0","0","65795","","null","","","null","78","","","","","","","","","","","","","","","NaN",""
"","S1","","html-keyboard-response","515","479184","0.0-1.0-713.0","0","0","65795","","null","","","null","79","","","","","","","","","","","","","","","",""
"","ISI","","html-keyboard-response","516","479350","0.0-1.0-714.0","0","0","65795","","null","","","null","79","NaN","","","","","","","","","","","","","","",""
"","S2","","html-keyboard-response","517","479626","0.0-1.0-715.0","0","0","65795","","null","","","null","79","","NaN","","","","","","","","","","","","","",""
"","response","","html-keyboard-response","518","480279","0.0-1.0-716.0-0.0","0","0","65795","","646","","","75","79","","","2","79","training","adjacent","GF","7","6","M.jpg","P.jpg","1","0","0","",""
"","feedback","","html-keyboard-response","519","481291","0.0-1.0-717.0-0.0","0","0","65795","","null","","","null","79","","","","","","","","","","","","","","","",""
"","time_out","","html-keyboard-response","520","483306","0.0-1.0-719.0-0.0","0","0","65795","","null","","","null","79","","","","","","","","","","","","","","","",""
"","ITI","","html-keyboard-response","521","484328","0.0-1.0-720.0","0","0","65795","","null","","","null","79","","","","","","","","","","","","","","","NaN",""
"","S1","","html-keyboard-response","522","484602","0.0-1.0-722.0","0","0","65795","","null","","","null","80","","","","","","","","","","","","","","","",""
"","ISI","","html-keyboard-response","523","484775","0.0-1.0-723.0","0","0","65795","","null","","","null","80","NaN","","","","","","","","","","","","","","",""
"","S2","","html-keyboard-response","524","485045","0.0-1.0-724.0","0","0","65795","","null","","","null","80","","NaN","","","","","","","","","","","","","",""
"","response","","html-keyboard-response","525","485327","0.0-1.0-725.0-0.0","0","0","65795","","274","","","68","80","","","2","80","training","adjacent","CB","3","2","Q.jpg","N.jpg","0","0","1","",""
"","feedback","","html-keyboard-response","526","486342","0.0-1.0-726.0-0.0","0","0","65795","","null","","","null","80","","","","","","","","","","","","","","","",""
"","ITI","","html-keyboard-response","527","487357","0.0-1.0-729.0","0","0","65795","","null","","","null","80","","","","","","","","","","","","","","","NaN",""
"","S1","","html-keyboard-response","528","487616","0.0-1.0-731.0","0","0","65795","","null","","","null","81","","","","","","","","","","","","","","","",""
"","ISI","","html-keyboard-response","529","487779","0.0-1.0-732.0","0","0","65795","","null","","","null","81","NaN","","","","","","","","","","","","","","",""
"","S2","","html-keyboard-response","530","488049","0.0-1.0-733.0","0","0","65795","","null","","","null","81","","NaN","","","","","","","","","","","","","",""
"","response","","html-keyboard-response","531","488310","0.0-1.0-734.0-0.0","0","0","65795","","253","","","75","81","","","2","81","training","adjacent","BC","2","3","N.jpg","Q.jpg","1","1","1","",""
"","feedback","","html-keyboard-response","532","489323","0.0-1.0-735.0-0.0","0","0","65795","","null","","","null","81","","","","","","","","","","","","","","","",""
"","ITI","","html-keyboard-response","533","490347","0.0-1.0-738.0","0","0","65795","","null","","","null","81","","","","","","","","","","","","","","","NaN",""
"","S1","","html-keyboard-response","534","490612","0.0-1.0-740.0","0","0","65795","","null","","","null","82","","","","","","","","","","","","","","","",""
"","ISI","","html-keyboard-response","535","490781","0.0-1.0-741.0","0","0","65795","","null","","","null","82","NaN","","","","","","","","","","","","","","",""
"","S2","","html-keyboard-response","536","491049","0.0-1.0-742.0","0","0","65795","","null","","","null","82","","NaN","","","","","","","","","","","","","",""
"","response","","html-keyboard-response","537","491690","0.0-1.0-743.0-0.0","0","0","65795","","633","","","68","82","","","2","82","training","adjacent","CD","3","4","Q.jpg","L.jpg","0","1","0","",""
"","feedback","","html-keyboard-response","538","492711","0.0-1.0-744.0-0.0","0","0","65795","","null","","","null","82","","","","","","","","","","","","","","","",""
"","time_out","","html-keyboard-response","539","494721","0.0-1.0-746.0-0.0","0","0","65795","","null","","","null","82","","","","","","","","","","","","","","","",""
"","ITI","","html-keyboard-response","540","495745","0.0-1.0-747.0","0","0","65795","","null","","","null","82","","","","","","","","","","","","","","","NaN",""
"","S1","","html-keyboard-response","541","496014","0.0-1.0-749.0","0","0","65795","","null","","","null","83","","","","","","","","","","","","","","","",""
"","ISI","","html-keyboard-response","542","496179","0.0-1.0-750.0","0","0","65795","","null","","","null","83","NaN","","","","","","","","","","","","","","",""
"","S2","","html-keyboard-response","543","496447","0.0-1.0-751.0","0","0","65795","","null","","","null","83","","NaN","","","","","","","","","","","","","",""
"","response","","html-keyboard-response","544","496673","0.0-1.0-752.0-0.0","0","0","65795","","215","","","75","83","","","2","83","training","adjacent","DE","4","5","L.jpg","R.jpg","1","1","1","",""
"","feedback","","html-keyboard-response","545","497687","0.0-1.0-753.0-0.0","0","0","65795","","null","","","null","83","","","","","","","","","","","","","","","",""
"","ITI","","html-keyboard-response","546","498704","0.0-1.0-756.0","0","0","65795","","null","","","null","83","","","","","","","","","","","","","","","NaN",""
"","S1","","html-keyboard-response","547","498962","0.0-1.0-758.0","0","0","65795","","null","","","null","84","","","","","","","","","","","","","","","",""
"","ISI","","html-keyboard-response","548","499129","0.0-1.0-759.0","0","0","65795","","null","","","null","84","NaN","","","","","","","","","","","","","","",""
"","S2","","html-keyboard-response","549","499398","0.0-1.0-760.0","0","0","65795","","null","","","null","84","","NaN","","","","","","","","","","","","","",""
"","response","","html-keyboard-response","550","499926","0.0-1.0-761.0-0.0","0","0","65795","","519","","","75","84","","","2","84","training","adjacent","EF","5","6","R.jpg","P.jpg","1","1","1","",""
"","feedback","","html-keyboard-response","551","500942","0.0-1.0-762.0-0.0","0","0","65795","","null","","","null","84","","","","","","","","","","","","","","","",""
"","ITI","","html-keyboard-response","552","501958","0.0-1.0-765.0","0","0","65795","","null","","","null","84","","","","","","","","","","","","","","","NaN",""
"","S1","","html-keyboard-response","553","502228","0.0-1.0-767.0","0","0","65795","","null","","","null","85","","","","","","","","","","","","","","","",""
"","ISI","","html-keyboard-response","554","502396","0.0-1.0-768.0","0","0","65795","","null","","","null","85","NaN","","","","","","","","","","","","","","",""
"","S2","","html-keyboard-response","555","502662","0.0-1.0-769.0","0","0","65795","","null","","","null","85","","NaN","","","","","","","","","","","","","",""
"","response","","html-keyboard-response","556","502989","0.0-1.0-770.0-0.0","0","0","65795","","319","","","68","85","","","2","85","training","adjacent","AB","1","2","O.jpg","N.jpg","0","1","0","",""
"","feedback","","html-keyboard-response","557","504007","0.0-1.0-771.0-0.0","0","0","65795","","null","","","null","85","","","","","","","","","","","","","","","",""
"","time_out","","html-keyboard-response","558","506032","0.0-1.0-773.0-0.0","0","0","65795","","null","","","null","85","","","","","","","","","","","","","","","",""
"","ITI","","html-keyboard-response","559","507048","0.0-1.0-774.0","0","0","65795","","null","","","null","85","","","","","","","","","","","","","","","NaN",""
"","S1","","html-keyboard-response","560","507315","0.0-1.0-776.0","0","0","65795","","null","","","null","86","","","","","","","","","","","","","","","",""
"","ISI","","html-keyboard-response","561","507478","0.0-1.0-777.0","0","0","65795","","null","","","null","86","NaN","","","","","","","","","","","","","","",""
"","S2","","html-keyboard-response","562","507747","0.0-1.0-778.0","0","0","65795","","null","","","null","86","","NaN","","","","","","","","","","","","","",""
"","response","","html-keyboard-response","563","508067","0.0-1.0-779.0-0.0","0","0","65795","","312","","","68","86","","","2","86","training","adjacent","CD","3","4","Q.jpg","L.jpg","0","1","0","",""
"","feedback","","html-keyboard-response","564","509092","0.0-1.0-780.0-0.0","0","0","65795","","null","","","null","86","","","","","","","","","","","","","","","",""
"","time_out","","html-keyboard-response","565","511108","0.0-1.0-782.0-0.0","0","0","65795","","null","","","null","86","","","","","","","","","","","","","","","",""
"","ITI","","html-keyboard-response","566","512124","0.0-1.0-783.0","0","0","65795","","null","","","null","86","","","","","","","","","","","","","","","NaN",""
"","S1","","html-keyboard-response","567","512397","0.0-1.0-785.0","0","0","65795","","null","","","null","87","","","","","","","","","","","","","","","",""
"","ISI","","html-keyboard-response","568","512560","0.0-1.0-786.0","0","0","65795","","null","","","null","87","NaN","","","","","","","","","","","","","","",""
"","S2","","html-keyboard-response","569","512828","0.0-1.0-787.0","0","0","65795","","null","","","null","87","","NaN","","","","","","","","","","","","","",""
"","response","","html-keyboard-response","570","513120","0.0-1.0-788.0-0.0","0","0","65795","","284","","","75","87","","","2","87","training","adjacent","DC","4","3","L.jpg","Q.jpg","1","0","0","",""
"","feedback","","html-keyboard-response","571","514139","0.0-1.0-789.0-0.0","0","0","65795","","null","","","null","87","","","","","","","","","","","","","","","",""
"","time_out","","html-keyboard-response","572","516163","0.0-1.0-791.0-0.0","0","0","65795","","null","","","null","87","","","","","","","","","","","","","","","",""
"","ITI","","html-keyboard-response","573","517178","0.0-1.0-792.0","0","0","65795","","null","","","null","87","","","","","","","","","","","","","","","NaN",""
"","S1","","html-keyboard-response","574","517441","0.0-1.0-794.0","0","0","65795","","null","","","null","88","","","","","","","","","","","","","","","",""
"","ISI","","html-keyboard-response","575","517611","0.0-1.0-795.0","0","0","65795","","null","","","null","88","NaN","","","","","","","","","","","","","","",""
"","S2","","html-keyboard-response","576","517878","0.0-1.0-796.0","0","0","65795","","null","","","null","88","","NaN","","","","","","","","","","","","","",""
"","response","","html-keyboard-response","577","518232","0.0-1.0-797.0-0.0","0","0","65795","","345","","","75","88","","","2","88","training","adjacent","AB","1","2","O.jpg","N.jpg","1","1","1","",""
"","feedback","","html-keyboard-response","578","519254","0.0-1.0-798.0-0.0","0","0","65795","","null","","","null","88","","","","","","","","","","","","","","","",""
"","ITI","","html-keyboard-response","579","520274","0.0-1.0-801.0","0","0","65795","","null","","","null","88","","","","","","","","","","","","","","","NaN",""
"","S1","","html-keyboard-response","580","520543","0.0-1.0-803.0","0","0","65795","","null","","","null","89","","","","","","","","","","","","","","","",""
"","ISI","","html-keyboard-response","581","520710","0.0-1.0-804.0","0","0","65795","","null","","","null","89","NaN","","","","","","","","","","","","","","",""
"","S2","","html-keyboard-response","582","520984","0.0-1.0-805.0","0","0","65795","","null","","","null","89","","NaN","","","","","","","","","","","","","",""
