"success","ttype","start_time","trial_type","trial_index","time_elapsed","internal_node_id","warning","missed_checkup","PID","view_history","rt","responses","repeat_instructions","key_press","index","keypress_isi","keypress_S2","block","trial_num","phase","group_type","pair_type","S1_stim","S2_stim","S1_img","S2_img","S1_chosen","S1_higher","accuracy","keypress_iti","total_bonus_tally"
"true","full_screen","d04132023hr1355","fullscreen","0","8395","0.0-0.0","0","0","28802","","","","","","","","","","","","","","","","","","","","","",""
"","instructions","","instructions","1","39523","0.0-1.0-0.0-0.0","0","0","28802","[{""page_index"":0,""viewing_time"":12854},{""page_index"":1,""viewing_time"":10325},{""page_index"":2,""viewing_time"":6272},{""page_index"":3,""viewing_time"":1674}]","31126","","","","","","","","","","","","","","","","","","","",""
"","comprehension_check","","survey-multi-choice","2","57501","0.0-1.0-0.0-1.0","0","0","28802","","17971","{""Q0"":""True"",""Q1"":""D"",""Q2"":""Once the second image appears and while the screen 'MAKE A CHOICE' is shown"",""Q3"":""Green mark"",""Q4"":""either D or K""}","0","","","","","","","","","","","","","","","","","",""
"","start_exp","","html-keyboard-response","3","58759","0.0-1.0-1.0","0","0","28802","","1254","","","32","","","","","","","","","","","","","","","","",""
"","S1","","html-keyboard-response","4","59011","0.0-1.0-2.0","0","0","28802","","null","","","null","0","","","","","","","","","","","","","","","",""
"","ISI","","html-keyboard-response","5","60014","0.0-1.0-3.0","0","0","28802","","null","","","null","0","NaN","","","","","","","","","","","","","","",""
"","S2","","html-keyboard-response","6","60267","0.0-1.0-4.0","0","0","28802","","null","","","null","0","","NaN","","","","","","","","","","","","","",""
"","response","","html-keyboard-response","7","61810","0.0-1.0-5.0-0.0","0","0","28802","","1542","","","75","0","","","1","0","training","adjacent","DC","4","3","M.jpg","P.jpg","0","0","1","",""
"","feedback","","html-keyboard-response","8","62813","0.0-1.0-6.0-0.0","0","0","28802","","null","","","null","0","","","","","","","","","","","","","","","",""
"","ITI","","html-keyboard-response","9","63817","0.0-1.0-9.0","0","0","28802","","null","","","null","0","","","","","","","","","","","","","","","NaN",""
"","S1","","html-keyboard-response","10","64071","0.0-1.0-11.0","0","0","28802","","null","","","null","1","","","","","","","","","","","","","","","",""
"","ISI","","html-keyboard-response","11","65072","0.0-1.0-12.0","0","0","28802","","null","","","null","1","NaN","","","","","","","","","","","","","","",""
"","S2","","html-keyboard-response","12","65326","0.0-1.0-13.0","0","0","28802","","null","","","null","1","","NaN","","","","","","","","","","","","","",""
"","response","","html-keyboard-response","13","65703","0.0-1.0-14.0-0.0","0","0","28802","","374","","","75","1","","","1","1","training","adjacent","AB","1","2","N.jpg","O.jpg","0","1","0","",""
"","feedback","","html-keyboard-response","14","66706","0.0-1.0-15.0-0.0","0","0","28802","","null","","","null","1","","","","","","","","","","","","","","","",""
"","time_out","","html-keyboard-response","15","68708","0.0-1.0-17.0-0.0","0","0","28802","","null","","","null","1","","","","","","","","","","","","","","","",""
"","ITI","","html-keyboard-response","16","69710","0.0-1.0-18.0","0","0","28802","","null","","","null","1","","","","","","","","","","","","","","","NaN",""
"","S1","","html-keyboard-response","17","69963","0.0-1.0-20.0","0","0","28802","","null","","","null","2","","","","","","","","","","","","","","","",""
"","ISI","","html-keyboard-response","18","70978","0.0-1.0-21.0","0","0","28802","","null","","","null","2","NaN","","","","","","","","","","","","","","",""
"","S2","","html-keyboard-response","19","71232","0.0-1.0-22.0","0","0","28802","","null","","","null","2","","NaN","","","","","","","","","","","","","",""
"","response","","html-keyboard-response","20","71736","0.0-1.0-23.0-0.0","0","0","28802","","501","","","68","2","","","1","2","training","adjacent","FG","6","7","Q.jpg","R.jpg","1","1","1","",""
"","feedback","","html-keyboard-response","21","72739","0.0-1.0-24.0-0.0","0","0","28802","","null","","","null","2","","","","","","","","","","","","","","","",""
"","ITI","","html-keyboard-response","22","73741","0.0-1.0-27.0","0","0","28802","","null","","","null","2","","","","","","","","","","","","","","","NaN",""
"","S1","","html-keyboard-response","23","73996","0.0-1.0-29.0","0","0","28802","","null","","","null","3","","","","","","","","","","","","","","","",""
"","ISI","","html-keyboard-response","24","74998","0.0-1.0-30.0","0","0","28802","","null","","","null","3","NaN","","","","","","","","","","","","","","",""
"","S2","","html-keyboard-response","25","75250","0.0-1.0-31.0","0","0","28802","","null","","","null","3","","NaN","","","","","","","","","","","","","",""
"","response","","html-keyboard-response","26","75732","0.0-1.0-32.0-0.0","0","0","28802","","480","","","75","3","","","1","3","training","adjacent","DE","4","5","M.jpg","L.jpg","0","1","0","",""
"","feedback","","html-keyboard-response","27","76735","0.0-1.0-33.0-0.0","0","0","28802","","null","","","null","3","","","","","","","","","","","","","","","",""
"","time_out","","html-keyboard-response","28","78737","0.0-1.0-35.0-0.0","0","0","28802","","null","","","null","3","","","","","","","","","","","","","","","",""
"","ITI","","html-keyboard-response","29","79740","0.0-1.0-36.0","0","0","28802","","747","","","68","3","","","","","","","","","","","","","","","d",""
"","S1","","html-keyboard-response","30","79993","0.0-1.0-38.0","0","0","28802","","null","","","null","4","","","","","","","","","","","","","","","",""
"","ISI","","html-keyboard-response","31","80996","0.0-1.0-39.0","0","0","28802","","null","","","null","4","NaN","","","","","","","","","","","","","","",""
"","S2","","html-keyboard-response","32","81249","0.0-1.0-40.0","0","0","28802","","null","","","null","4","","NaN","","","","","","","","","","","","","",""
"","response","","html-keyboard-response","33","81533","0.0-1.0-41.0-0.0","0","0","28802","","283","","","75","4","","","1","4","training","adjacent","BA","2","1","O.jpg","N.jpg","0","0","1","",""
"","feedback","","html-keyboard-response","34","82537","0.0-1.0-42.0-0.0","0","0","28802","","null","","","null","4","","","","","","","","","","","","","","","",""
"","ITI","","html-keyboard-response","35","83540","0.0-1.0-45.0","0","0","28802","","null","","","null","4","","","","","","","","","","","","","","","NaN",""
"","S1","","html-keyboard-response","36","83792","0.0-1.0-47.0","0","0","28802","","null","","","null","5","","","","","","","","","","","","","","","",""
"","ISI","","html-keyboard-response","37","84795","0.0-1.0-48.0","0","0","28802","","null","","","null","5","NaN","","","","","","","","","","","","","","",""
"","S2","","html-keyboard-response","38","85047","0.0-1.0-49.0","0","0","28802","","null","","","null","5","","NaN","","","","","","","","","","","","","",""
"","response","","html-keyboard-response","39","85205","0.0-1.0-50.0-0.0","0","0","28802","","156","","","75","5","","","1","5","training","adjacent","CB","3","2","P.jpg","O.jpg","0","0","1","",""
"","feedback","","html-keyboard-response","40","86208","0.0-1.0-51.0-0.0","0","0","28802","","null","","","null","5","","","","","","","","","","","","","","","",""
"","ITI","","html-keyboard-response","41","87211","0.0-1.0-54.0","0","0","28802","","null","","","null","5","","","","","","","","","","","","","","","NaN",""
"","S1","","html-keyboard-response","42","87464","0.0-1.0-56.0","0","0","28802","","null","","","null","6","","","","","","","","","","","","","","","",""
"","ISI","","html-keyboard-response","43","88468","0.0-1.0-57.0","0","0","28802","","null","","","null","6","NaN","","","","","","","","","","","","","","",""
"","S2","","html-keyboard-response","44","88719","0.0-1.0-58.0","0","0","28802","","null","","","null","6","","NaN","","","","","","","","","","","","","",""
"","response","","html-keyboard-response","45","89091","0.0-1.0-59.0-0.0","0","0","28802","","370","","","75","6","","","1","6","training","adjacent","GF","7","6","R.jpg","Q.jpg","0","0","1","",""
"","feedback","","html-keyboard-response","46","90094","0.0-1.0-60.0-0.0","0","0","28802","","null","","","null","6","","","","","","","","","","","","","","","",""
"","ITI","","html-keyboard-response","47","91103","0.0-1.0-63.0","0","0","28802","","null","","","null","6","","","","","","","","","","","","","","","NaN",""
"","S1","","html-keyboard-response","48","91355","0.0-1.0-65.0","0","0","28802","","null","","","null","7","","","","","","","","","","","","","","","",""
"","ISI","","html-keyboard-response","49","92357","0.0-1.0-66.0","0","0","28802","","null","","","null","7","NaN","","","","","","","","","","","","","","",""
"","S2","","html-keyboard-response","50","92535","0.0-1.0-67.0","0","0","28802","","176","","","68","7","","d","1","7","training","adjacent","AB","1","2","N.jpg","O.jpg","1","1","1","",""
"","feedback","","html-keyboard-response","51","93537","0.0-1.0-69.0-0.0","0","0","28802","","null","","","null","7","","","","","","","","","","","","","","","",""
"","ITI","","html-keyboard-response","52","94540","0.0-1.0-72.0","0","0","28802","","null","","","null","7","","","","","","","","","","","","","","","NaN",""
"","S1","","html-keyboard-response","53","94793","0.0-1.0-74.0","0","0","28802","","null","","","null","8","","","","","","","","","","","","","","","",""
"","ISI","","html-keyboard-response","54","95795","0.0-1.0-75.0","0","0","28802","","null","","","null","8","NaN","","","","","","","","","","","","","","",""
"","S2","","html-keyboard-response","55","96047","0.0-1.0-76.0","0","0","28802","","null","","","null","8","","NaN","","","","","","","","","","","","","",""
"","response","","html-keyboard-response","56","96309","0.0-1.0-77.0-0.0","0","0","28802","","260","","","68","8","","","1","8","training","adjacent","FG","6","7","Q.jpg","R.jpg","1","1","1","",""
"","feedback","","html-keyboard-response","57","97312","0.0-1.0-78.0-0.0","0","0","28802","","null","","","null","8","","","","","","","","","","","","","","","",""
"","ITI","","html-keyboard-response","58","98315","0.0-1.0-81.0","0","0","28802","","null","","","null","8","","","","","","","","","","","","","","","NaN",""
"","S1","","html-keyboard-response","59","98567","0.0-1.0-83.0","0","0","28802","","null","","","null","9","","","","","","","","","","","","","","","",""
"","ISI","","html-keyboard-response","60","99569","0.0-1.0-84.0","0","0","28802","","null","","","null","9","NaN","","","","","","","","","","","","","","",""
"","S2","","html-keyboard-response","61","99823","0.0-1.0-85.0","0","0","28802","","null","","","null","9","","NaN","","","","","","","","","","","","","",""
"","response","","html-keyboard-response","62","99935","0.0-1.0-86.0-0.0","0","0","28802","","111","","","68","9","","","1","9","training","adjacent","BC","2","3","O.jpg","P.jpg","1","1","1","",""
"","feedback","","html-keyboard-response","63","100939","0.0-1.0-87.0-0.0","0","0","28802","","null","","","null","9","","","","","","","","","","","","","","","",""
"","ITI","","html-keyboard-response","64","101942","0.0-1.0-90.0","0","0","28802","","null","","","null","9","","","","","","","","","","","","","","","NaN",""
"","S1","","html-keyboard-response","65","102194","0.0-1.0-92.0","0","0","28802","","null","","","null","10","","","","","","","","","","","","","","","",""
"","ISI","","html-keyboard-response","66","103196","0.0-1.0-93.0","0","0","28802","","null","","","null","10","NaN","","","","","","","","","","","","","","",""
"","S2","","html-keyboard-response","67","103448","0.0-1.0-94.0","0","0","28802","","null","","","null","10","","NaN","","","","","","","","","","","","","",""
"","response","","html-keyboard-response","68","103570","0.0-1.0-95.0-0.0","0","0","28802","","120","","","75","10","","","1","10","training","adjacent","CB","3","2","P.jpg","O.jpg","0","0","1","",""
"","feedback","","html-keyboard-response","69","104574","0.0-1.0-96.0-0.0","0","0","28802","","null","","","null","10","","","","","","","","","","","","","","","",""
"","ITI","","html-keyboard-response","70","105576","0.0-1.0-99.0","0","0","28802","","null","","","null","10","","","","","","","","","","","","","","","NaN",""
"","S1","","html-keyboard-response","71","105829","0.0-1.0-101.0","0","0","28802","","null","","","null","11","","","","","","","","","","","","","","","",""
"","ISI","","html-keyboard-response","72","106832","0.0-1.0-102.0","0","0","28802","","null","","","null","11","NaN","","","","","","","","","","","","","","",""
"","S2","","html-keyboard-response","73","107084","0.0-1.0-103.0","0","0","28802","","null","","","null","11","","NaN","","","","","","","","","","","","","",""
"","response","","html-keyboard-response","74","107388","0.0-1.0-104.0-0.0","0","0","28802","","303","","","75","11","","","1","11","training","adjacent","BA","2","1","O.jpg","N.jpg","0","0","1","",""
"","feedback","","html-keyboard-response","75","108391","0.0-1.0-105.0-0.0","0","0","28802","","null","","","null","11","","","","","","","","","","","","","","","",""
"","ITI","","html-keyboard-response","76","109393","0.0-1.0-108.0","0","0","28802","","null","","","null","11","","","","","","","","","","","","","","","NaN",""
"","S1","","html-keyboard-response","77","109648","0.0-1.0-110.0","0","0","28802","","null","","","null","12","","","","","","","","","","","","","","","",""
"","ISI","","html-keyboard-response","78","110655","0.0-1.0-111.0","0","0","28802","","null","","","null","12","NaN","","","","","","","","","","","","","","",""
"","S2","","html-keyboard-response","79","110909","0.0-1.0-112.0","0","0","28802","","null","","","null","12","","NaN","","","","","","","","","","","","","",""
"","response","","html-keyboard-response","80","111125","0.0-1.0-113.0-0.0","0","0","28802","","214","","","75","12","","","1","12","training","adjacent","CD","3","4","P.jpg","M.jpg","0","1","0","",""
"","feedback","","html-keyboard-response","81","112129","0.0-1.0-114.0-0.0","0","0","28802","","null","","","null","12","","","","","","","","","","","","","","","",""
"","time_out","","html-keyboard-response","82","114131","0.0-1.0-116.0-0.0","0","0","28802","","null","","","null","12","","","","","","","","","","","","","","","",""
"","ITI","","html-keyboard-response","83","115134","0.0-1.0-117.0","0","0","28802","","null","","","null","12","","","","","","","","","","","","","","","NaN",""
"","S1","","html-keyboard-response","84","115387","0.0-1.0-119.0","0","0","28802","","null","","","null","13","","","","","","","","","","","","","","","",""
"","ISI","","html-keyboard-response","85","116390","0.0-1.0-120.0","0","0","28802","","null","","","null","13","NaN","","","","","","","","","","","","","","",""
"","S2","","html-keyboard-response","86","116643","0.0-1.0-121.0","0","0","28802","","null","","","null","13","","NaN","","","","","","","","","","","","","",""
"","response","","html-keyboard-response","87","116877","0.0-1.0-122.0-0.0","0","0","28802","","233","","","75","13","","","1","13","training","adjacent","DC","4","3","M.jpg","P.jpg","0","0","1","",""
"","feedback","","html-keyboard-response","88","117880","0.0-1.0-123.0-0.0","0","0","28802","","null","","","null","13","","","","","","","","","","","","","","","",""
"","ITI","","html-keyboard-response","89","118883","0.0-1.0-126.0","0","0","28802","","null","","","null","13","","","","","","","","","","","","","","","NaN",""
"","S1","","html-keyboard-response","90","119136","0.0-1.0-128.0","0","0","28802","","null","","","null","14","","","","","","","","","","","","","","","",""
"","ISI","","html-keyboard-response","91","120139","0.0-1.0-129.0","0","0","28802","","null","","","null","14","NaN","","","","","","","","","","","","","","",""
"","S2","","html-keyboard-response","92","120395","0.0-1.0-130.0","0","0","28802","","null","","","null","14","","NaN","","","","","","","","","","","","","",""
"","response","","html-keyboard-response","93","120626","0.0-1.0-131.0-0.0","0","0","28802","","228","","","75","14","","","1","14","training","adjacent","EF","5","6","L.jpg","Q.jpg","0","1","0","",""
"","feedback","","html-keyboard-response","94","121628","0.0-1.0-132.0-0.0","0","0","28802","","null","","","null","14","","","","","","","","","","","","","","","",""
"","time_out","","html-keyboard-response","95","123633","0.0-1.0-134.0-0.0","0","0","28802","","null","","","null","14","","","","","","","","","","","","","","","",""
"","ITI","","html-keyboard-response","96","124636","0.0-1.0-135.0","0","0","28802","","null","","","null","14","","","","","","","","","","","","","","","NaN",""
"","S1","","html-keyboard-response","97","124888","0.0-1.0-137.0","0","0","28802","","null","","","null","15","","","","","","","","","","","","","","","",""
"","ISI","","html-keyboard-response","98","125891","0.0-1.0-138.0","0","0","28802","","null","","","null","15","NaN","","","","","","","","","","","","","","",""
"","S2","","html-keyboard-response","99","126143","0.0-1.0-139.0","0","0","28802","","null","","","null","15","","NaN","","","","","","","","","","","","","",""
"","response","","html-keyboard-response","100","126682","0.0-1.0-140.0-0.0","0","0","28802","","537","","","68","15","","","1","15","training","adjacent","FE","6","5","Q.jpg","L.jpg","1","0","0","",""
"","feedback","","html-keyboard-response","101","127685","0.0-1.0-141.0-0.0","0","0","28802","","null","","","null","15","","","","","","","","","","","","","","","",""
"","time_out","","html-keyboard-response","102","129687","0.0-1.0-143.0-0.0","0","0","28802","","null","","","null","15","","","","","","","","","","","","","","","",""
"","ITI","","html-keyboard-response","103","130689","0.0-1.0-144.0","0","0","28802","","null","","","null","15","","","","","","","","","","","","","","","NaN",""
"","S1","","html-keyboard-response","104","130942","0.0-1.0-146.0","0","0","28802","","null","","","null","16","","","","","","","","","","","","","","","",""
"","ISI","","html-keyboard-response","105","131944","0.0-1.0-147.0","0","0","28802","","null","","","null","16","NaN","","","","","","","","","","","","","","",""
"","S2","","html-keyboard-response","106","132196","0.0-1.0-148.0","0","0","28802","","null","","","null","16","","NaN","","","","","","","","","","","","","",""
"","response","","html-keyboard-response","107","132363","0.0-1.0-149.0-0.0","0","0","28802","","166","","","75","16","","","1","16","training","adjacent","DC","4","3","M.jpg","P.jpg","0","0","1","",""
"","feedback","","html-keyboard-response","108","133365","0.0-1.0-150.0-0.0","0","0","28802","","null","","","null","16","","","","","","","","","","","","","","","",""
"","ITI","","html-keyboard-response","109","134376","0.0-1.0-153.0","0","0","28802","","null","","","null","16","","","","","","","","","","","","","","","NaN",""
"","S1","","html-keyboard-response","110","134628","0.0-1.0-155.0","0","0","28802","","null","","","null","17","","","","","","","","","","","","","","","",""
"","ISI","","html-keyboard-response","111","135631","0.0-1.0-156.0","0","0","28802","","null","","","null","17","NaN","","","","","","","","","","","","","","",""
"","S2","","html-keyboard-response","112","135884","0.0-1.0-157.0","0","0","28802","","null","","","null","17","","NaN","","","","","","","","","","","","","",""
"","response","","html-keyboard-response","113","136046","0.0-1.0-158.0-0.0","0","0","28802","","161","","","75","17","","","1","17","training","adjacent","ED","5","4","L.jpg","M.jpg","0","0","1","",""
"","feedback","","html-keyboard-response","114","137048","0.0-1.0-159.0-0.0","0","0","28802","","null","","","null","17","","","","","","","","","","","","","","","",""
"","ITI","","html-keyboard-response","115","138052","0.0-1.0-162.0","0","0","28802","","null","","","null","17","","","","","","","","","","","","","","","NaN",""
"","S1","","html-keyboard-response","116","138305","0.0-1.0-164.0","0","0","28802","","null","","","null","18","","","","","","","","","","","","","","","",""
"","ISI","","html-keyboard-response","117","139307","0.0-1.0-165.0","0","0","28802","","null","","","null","18","NaN","","","","","","","","","","","","","","",""
"","S2","","html-keyboard-response","118","139559","0.0-1.0-166.0","0","0","28802","","null","","","null","18","","NaN","","","","","","","","","","","","","",""
"","response","","html-keyboard-response","119","139922","0.0-1.0-167.0-0.0","0","0","28802","","361","","","68","18","","","1","18","training","adjacent","EF","5","6","L.jpg","Q.jpg","1","1","1","",""
"","feedback","","html-keyboard-response","120","140924","0.0-1.0-168.0-0.0","0","0","28802","","null","","","null","18","","","","","","","","","","","","","","","",""
"","ITI","","html-keyboard-response","121","141927","0.0-1.0-171.0","0","0","28802","","null","","","null","18","","","","","","","","","","","","","","","NaN",""
"","S1","","html-keyboard-response","122","142183","0.0-1.0-173.0","0","0","28802","","null","","","null","19","","","","","","","","","","","","","","","",""
"","ISI","","html-keyboard-response","123","143185","0.0-1.0-174.0","0","0","28802","","568","","","68","19","d","","","","","","","","","","","","","","",""
"","S2","","html-keyboard-response","124","143417","0.0-1.0-175.0","0","0","28802","","230","","","68","19","","d","1","19","training","adjacent","AB","1","2","N.jpg","O.jpg","1","1","1","",""
"","feedback","","html-keyboard-response","125","144420","0.0-1.0-177.0-0.0","0","0","28802","","null","","","null","19","","","","","","","","","","","","","","","",""
"","ITI","","html-keyboard-response","126","145422","0.0-1.0-180.0","0","0","28802","","null","","","null","19","","","","","","","","","","","","","","","NaN",""
"","S1","","html-keyboard-response","127","145674","0.0-1.0-182.0","0","0","28802","","null","","","null","20","","","","","","","","","","","","","","","",""
"","ISI","","html-keyboard-response","128","146678","0.0-1.0-183.0","0","0","28802","","null","","","null","20","NaN","","","","","","","","","","","","","","",""
"","S2","","html-keyboard-response","129","146931","0.0-1.0-184.0","0","0","28802","","null","","","null","20","","NaN","","","","","","","","","","","","","",""
"","response","","html-keyboard-response","130","147313","0.0-1.0-185.0-0.0","0","0","28802","","381","","","68","20","","","1","20","training","adjacent","CD","3","4","P.jpg","M.jpg","1","1","1","",""
"","feedback","","html-keyboard-response","131","148316","0.0-1.0-186.0-0.0","0","0","28802","","null","","","null","20","","","","","","","","","","","","","","","",""
"","ITI","","html-keyboard-response","132","149318","0.0-1.0-189.0","0","0","28802","","null","","","null","20","","","","","","","","","","","","","","","NaN",""
"","S1","","html-keyboard-response","133","149570","0.0-1.0-191.0","0","0","28802","","null","","","null","21","","","","","","","","","","","","","","","",""
"","ISI","","html-keyboard-response","134","150574","0.0-1.0-192.0","0","0","28802","","null","","","null","21","NaN","","","","","","","","","","","","","","",""
"","S2","","html-keyboard-response","135","150830","0.0-1.0-193.0","0","0","28802","","null","","","null","21","","NaN","","","","","","","","","","","","","",""
"","response","","html-keyboard-response","136","151378","0.0-1.0-194.0-0.0","0","0","28802","","546","","","75","21","","","1","21","training","adjacent","BC","2","3","O.jpg","P.jpg","0","1","0","",""
"","feedback","","html-keyboard-response","137","152380","0.0-1.0-195.0-0.0","0","0","28802","","null","","","null","21","","","","","","","","","","","","","","","",""
"","time_out","","html-keyboard-response","138","154382","0.0-1.0-197.0-0.0","0","0","28802","","null","","","null","21","","","","","","","","","","","","","","","",""
"","ITI","","html-keyboard-response","139","155400","0.0-1.0-198.0","0","0","28802","","null","","","null","21","","","","","","","","","","","","","","","NaN",""
"","S1","","html-keyboard-response","140","155654","0.0-1.0-200.0","0","0","28802","","null","","","null","22","","","","","","","","","","","","","","","",""
"","ISI","","html-keyboard-response","141","156668","0.0-1.0-201.0","0","0","28802","","null","","","null","22","NaN","","","","","","","","","","","","","","",""
"","S2","","html-keyboard-response","142","156920","0.0-1.0-202.0","0","0","28802","","null","","","null","22","","NaN","","","","","","","","","","","","","",""
"","response","","html-keyboard-response","143","157223","0.0-1.0-203.0-0.0","0","0","28802","","301","","","68","22","","","1","22","training","adjacent","GF","7","6","R.jpg","Q.jpg","1","0","0","",""
"","feedback","","html-keyboard-response","144","158226","0.0-1.0-204.0-0.0","0","0","28802","","null","","","null","22","","","","","","","","","","","","","","","",""
"","time_out","","html-keyboard-response","145","160228","0.0-1.0-206.0-0.0","0","0","28802","","null","","","null","22","","","","","","","","","","","","","","","",""
"","ITI","","html-keyboard-response","146","161232","0.0-1.0-207.0","0","0","28802","","null","","","null","22","","","","","","","","","","","","","","","NaN",""
"","S1","","html-keyboard-response","147","161484","0.0-1.0-209.0","0","0","28802","","null","","","null","23","","","","","","","","","","","","","","","",""
"","ISI","","html-keyboard-response","148","162486","0.0-1.0-210.0","0","0","28802","","null","","","null","23","NaN","","","","","","","","","","","","","","",""
"","S2","","html-keyboard-response","149","162739","0.0-1.0-211.0","0","0","28802","","null","","","null","23","","NaN","","","","","","","","","","","","","",""
"","response","","html-keyboard-response","150","162964","0.0-1.0-212.0-0.0","0","0","28802","","224","","","75","23","","","1","23","training","adjacent","DC","4","3","M.jpg","P.jpg","0","0","1","",""
"","feedback","","html-keyboard-response","151","163966","0.0-1.0-213.0-0.0","0","0","28802","","null","","","null","23","","","","","","","","","","","","","","","",""
"","ITI","","html-keyboard-response","152","164969","0.0-1.0-216.0","0","0","28802","","null","","","null","23","","","","","","","","","","","","","","","NaN",""
"","S1","","html-keyboard-response","153","165221","0.0-1.0-218.0","0","0","28802","","null","","","null","24","","","","","","","","","","","","","","","",""
"","ISI","","html-keyboard-response","154","166224","0.0-1.0-219.0","0","0","28802","","null","","","null","24","NaN","","","","","","","","","","","","","","",""
"","S2","","html-keyboard-response","155","166478","0.0-1.0-220.0","0","0","28802","","null","","","null","24","","NaN","","","","","","","","","","","","","",""
"","response","","html-keyboard-response","156","166859","0.0-1.0-221.0-0.0","0","0","28802","","380","","","75","24","","","1","24","training","adjacent","DE","4","5","M.jpg","L.jpg","0","1","0","",""
"","feedback","","html-keyboard-response","157","167862","0.0-1.0-222.0-0.0","0","0","28802","","null","","","null","24","","","","","","","","","","","","","","","",""
"","time_out","","html-keyboard-response","158","169866","0.0-1.0-224.0-0.0","0","0","28802","","null","","","null","24","","","","","","","","","","","","","","","",""
"","ITI","","html-keyboard-response","159","170868","0.0-1.0-225.0","0","0","28802","","null","","","null","24","","","","","","","","","","","","","","","NaN",""
"","S1","","html-keyboard-response","160","171122","0.0-1.0-227.0","0","0","28802","","null","","","null","25","","","","","","","","","","","","","","","",""
"","ISI","","html-keyboard-response","161","172125","0.0-1.0-228.0","0","0","28802","","null","","","null","25","NaN","","","","","","","","","","","","","","",""
"","S2","","html-keyboard-response","162","172377","0.0-1.0-229.0","0","0","28802","","null","","","null","25","","NaN","","","","","","","","","","","","","",""
"","response","","html-keyboard-response","163","172888","0.0-1.0-230.0-0.0","0","0","28802","","510","","","68","25","","","1","25","training","adjacent","EF","5","6","L.jpg","Q.jpg","1","1","1","",""
"","feedback","","html-keyboard-response","164","173894","0.0-1.0-231.0-0.0","0","0","28802","","null","","","null","25","","","","","","","","","","","","","","","",""
"","ITI","","html-keyboard-response","165","174896","0.0-1.0-234.0","0","0","28802","","null","","","null","25","","","","","","","","","","","","","","","NaN",""
"","S1","","html-keyboard-response","166","175151","0.0-1.0-236.0","0","0","28802","","null","","","null","26","","","","","","","","","","","","","","","",""
"","ISI","","html-keyboard-response","167","176153","0.0-1.0-237.0","0","0","28802","","null","","","null","26","NaN","","","","","","","","","","","","","","",""
"","S2","","html-keyboard-response","168","176405","0.0-1.0-238.0","0","0","28802","","null","","","null","26","","NaN","","","","","","","","","","","","","",""
"","response","","html-keyboard-response","169","176990","0.0-1.0-239.0-0.0","0","0","28802","","583","","","68","26","","","1","26","training","adjacent","BC","2","3","O.jpg","P.jpg","1","1","1","",""
"","feedback","","html-keyboard-response","170","177992","0.0-1.0-240.0-0.0","0","0","28802","","null","","","null","26","","","","","","","","","","","","","","","",""
"","ITI","","html-keyboard-response","171","178997","0.0-1.0-243.0","0","0","28802","","null","","","null","26","","","","","","","","","","","","","","","NaN",""
"","S1","","html-keyboard-response","172","179249","0.0-1.0-245.0","0","0","28802","","null","","","null","27","","","","","","","","","","","","","","","",""
"","ISI","","html-keyboard-response","173","180252","0.0-1.0-246.0","0","0","28802","","null","","","null","27","NaN","","","","","","","","","","","","","","",""
"","S2","","html-keyboard-response","174","180504","0.0-1.0-247.0","0","0","28802","","null","","","null","27","","NaN","","","","","","","","","","","","","",""
"","response","","html-keyboard-response","175","180582","0.0-1.0-248.0-0.0","0","0","28802","","77","","","75","27","","","1","27","training","adjacent","DE","4","5","M.jpg","L.jpg","0","1","0","",""
"","feedback","","html-keyboard-response","176","181585","0.0-1.0-249.0-0.0","0","0","28802","","null","","","null","27","","","","","","","","","","","","","","","",""
"","time_out","","html-keyboard-response","177","183588","0.0-1.0-251.0-0.0","0","0","28802","","null","","","null","27","","","","","","","","","","","","","","","",""
"","ITI","","html-keyboard-response","178","184592","0.0-1.0-252.0","0","0","28802","","null","","","null","27","","","","","","","","","","","","","","","NaN",""
"","S1","","html-keyboard-response","179","184846","0.0-1.0-254.0","0","0","28802","","null","","","null","28","","","","","","","","","","","","","","","",""
"","ISI","","html-keyboard-response","180","185849","0.0-1.0-255.0","0","0","28802","","null","","","null","28","NaN","","","","","","","","","","","","","","",""
"","S2","","html-keyboard-response","181","186102","0.0-1.0-256.0","0","0","28802","","null","","","null","28","","NaN","","","","","","","","","","","","","",""
"","response","","html-keyboard-response","182","186542","0.0-1.0-257.0-0.0","0","0","28802","","437","","","75","28","","","1","28","training","adjacent","BA","2","1","O.jpg","N.jpg","0","0","1","",""
"","feedback","","html-keyboard-response","183","187544","0.0-1.0-258.0-0.0","0","0","28802","","null","","","null","28","","","","","","","","","","","","","","","",""
"","ITI","","html-keyboard-response","184","188547","0.0-1.0-261.0","0","0","28802","","null","","","null","28","","","","","","","","","","","","","","","NaN",""
"","S1","","html-keyboard-response","185","188799","0.0-1.0-263.0","0","0","28802","","null","","","null","29","","","","","","","","","","","","","","","",""
"","ISI","","html-keyboard-response","186","189803","0.0-1.0-264.0","0","0","28802","","null","","","null","29","NaN","","","","","","","","","","","","","","",""
"","S2","","html-keyboard-response","187","190057","0.0-1.0-265.0","0","0","28802","","null","","","null","29","","NaN","","","","","","","","","","","","","",""
"","response","","html-keyboard-response","188","190575","0.0-1.0-266.0-0.0","0","0","28802","","517","","","68","29","","","1","29","training","adjacent","FG","6","7","Q.jpg","R.jpg","1","1","1","",""
"","feedback","","html-keyboard-response","189","191579","0.0-1.0-267.0-0.0","0","0","28802","","null","","","null","29","","","","","","","","","","","","","","","",""
"","ITI","","html-keyboard-response","190","192581","0.0-1.0-270.0","0","0","28802","","null","","","null","29","","","","","","","","","","","","","","","NaN",""
"","S1","","html-keyboard-response","191","192835","0.0-1.0-272.0","0","0","28802","","null","","","null","30","","","","","","","","","","","","","","","",""
"","ISI","","html-keyboard-response","192","193836","0.0-1.0-273.0","0","0","28802","","null","","","null","30","NaN","","","","","","","","","","","","","","",""
"","S2","","html-keyboard-response","193","194089","0.0-1.0-274.0","0","0","28802","","null","","","null","30","","NaN","","","","","","","","","","","","","",""
"","response","","html-keyboard-response","194","194331","0.0-1.0-275.0-0.0","0","0","28802","","240","","","75","30","","","1","30","training","adjacent","FE","6","5","Q.jpg","L.jpg","0","0","1","",""
"","feedback","","html-keyboard-response","195","195335","0.0-1.0-276.0-0.0","0","0","28802","","null","","","null","30","","","","","","","","","","","","","","","",""
"","ITI","","html-keyboard-response","196","196337","0.0-1.0-279.0","0","0","28802","","null","","","null","30","","","","","","","","","","","","","","","NaN",""
"","S1","","html-keyboard-response","197","196589","0.0-1.0-281.0","0","0","28802","","null","","","null","31","","","","","","","","","","","","","","","",""
"","ISI","","html-keyboard-response","198","197603","0.0-1.0-282.0","0","0","28802","","null","","","null","31","NaN","","","","","","","","","","","","","","",""
"","S2","","html-keyboard-response","199","197854","0.0-1.0-283.0","0","0","28802","","null","","","null","31","","NaN","","","","","","","","","","","","","",""
"","response","","html-keyboard-response","200","198267","0.0-1.0-284.0-0.0","0","0","28802","","411","","","75","31","","","1","31","training","adjacent","DE","4","5","M.jpg","L.jpg","0","1","0","",""
"","feedback","","html-keyboard-response","201","199270","0.0-1.0-285.0-0.0","0","0","28802","","null","","","null","31","","","","","","","","","","","","","","","",""
"","time_out","","html-keyboard-response","202","201282","0.0-1.0-287.0-0.0","0","0","28802","","null","","","null","31","","","","","","","","","","","","","","","",""
"","ITI","","html-keyboard-response","203","202284","0.0-1.0-288.0","0","0","28802","","null","","","null","31","","","","","","","","","","","","","","","NaN",""
"","S1","","html-keyboard-response","204","202537","0.0-1.0-290.0","0","0","28802","","null","","","null","32","","","","","","","","","","","","","","","",""
"","ISI","","html-keyboard-response","205","203540","0.0-1.0-291.0","0","0","28802","","null","","","null","32","NaN","","","","","","","","","","","","","","",""
"","S2","","html-keyboard-response","206","203794","0.0-1.0-292.0","0","0","28802","","null","","","null","32","","NaN","","","","","","","","","","","","","",""
"","response","","html-keyboard-response","207","203930","0.0-1.0-293.0-0.0","0","0","28802","","135","","","68","32","","","1","32","training","adjacent","CD","3","4","P.jpg","M.jpg","1","1","1","",""
"","feedback","","html-keyboard-response","208","204936","0.0-1.0-294.0-0.0","0","0","28802","","null","","","null","32","","","","","","","","","","","","","","","",""
"","ITI","","html-keyboard-response","209","205939","0.0-1.0-297.0","0","0","28802","","null","","","null","32","","","","","","","","","","","","","","","NaN",""
"","S1","","html-keyboard-response","210","206191","0.0-1.0-299.0","0","0","28802","","null","","","null","33","","","","","","","","","","","","","","","",""
"","ISI","","html-keyboard-response","211","207194","0.0-1.0-300.0","0","0","28802","","null","","","null","33","NaN","","","","","","","","","","","","","","",""
"","S2","","html-keyboard-response","212","207446","0.0-1.0-301.0","0","0","28802","","null","","","null","33","","NaN","","","","","","","","","","","","","",""
"","response","","html-keyboard-response","213","207680","0.0-1.0-302.0-0.0","0","0","28802","","232","","","75","33","","","1","33","training","adjacent","FG","6","7","Q.jpg","R.jpg","0","1","0","",""
"","feedback","","html-keyboard-response","214","208696","0.0-1.0-303.0-0.0","0","0","28802","","null","","","null","33","","","","","","","","","","","","","","","",""
"","time_out","","html-keyboard-response","215","210700","0.0-1.0-305.0-0.0","0","0","28802","","null","","","null","33","","","","","","","","","","","","","","","",""
"","ITI","","html-keyboard-response","216","211702","0.0-1.0-306.0","0","0","28802","","null","","","null","33","","","","","","","","","","","","","","","NaN",""
"","S1","","html-keyboard-response","217","211955","0.0-1.0-308.0","0","0","28802","","null","","","null","34","","","","","","","","","","","","","","","",""
"","ISI","","html-keyboard-response","218","212957","0.0-1.0-309.0","0","0","28802","","null","","","null","34","NaN","","","","","","","","","","","","","","",""
"","S2","","html-keyboard-response","219","213211","0.0-1.0-310.0","0","0","28802","","null","","","null","34","","NaN","","","","","","","","","","","","","",""
"","response","","html-keyboard-response","220","213348","0.0-1.0-311.0-0.0","0","0","28802","","135","","","75","34","","","1","34","training","adjacent","GF","7","6","R.jpg","Q.jpg","0","0","1","",""
"","feedback","","html-keyboard-response","221","214351","0.0-1.0-312.0-0.0","0","0","28802","","null","","","null","34","","","","","","","","","","","","","","","",""
"","ITI","","html-keyboard-response","222","215353","0.0-1.0-315.0","0","0","28802","","null","","","null","34","","","","","","","","","","","","","","","NaN",""
"","S1","","html-keyboard-response","223","215606","0.0-1.0-317.0","0","0","28802","","null","","","null","35","","","","","","","","","","","","","","","",""
"","ISI","","html-keyboard-response","224","216608","0.0-1.0-318.0","0","0","28802","","null","","","null","35","NaN","","","","","","","","","","","","","","",""
"","S2","","html-keyboard-response","225","216861","0.0-1.0-319.0","0","0","28802","","null","","","null","35","","NaN","","","","","","","","","","","","","",""
"","response","","html-keyboard-response","226","218006","0.0-1.0-320.0-0.0","0","0","28802","","1143","","","75","35","","","1","35","training","adjacent","FE","6","5","Q.jpg","L.jpg","0","0","1","",""
"","feedback","","html-keyboard-response","227","219009","0.0-1.0-321.0-0.0","0","0","28802","","null","","","null","35","","","","","","","","","","","","","","","",""
"","ITI","","html-keyboard-response","228","220012","0.0-1.0-324.0","0","0","28802","","null","","","null","35","","","","","","","","","","","","","","","NaN",""
"","S1","","html-keyboard-response","229","220265","0.0-1.0-326.0","0","0","28802","","null","","","null","36","","","","","","","","","","","","","","","",""
"","ISI","","html-keyboard-response","230","221267","0.0-1.0-327.0","0","0","28802","","null","","","null","36","NaN","","","","","","","","","","","","","","",""
"","S2","","html-keyboard-response","231","221520","0.0-1.0-328.0","0","0","28802","","null","","","null","36","","NaN","","","","","","","","","","","","","",""
"","response","","html-keyboard-response","232","221923","0.0-1.0-329.0-0.0","0","0","28802","","401","","","68","36","","","1","36","training","adjacent","FE","6","5","Q.jpg","L.jpg","1","0","0","",""
"","feedback","","html-keyboard-response","233","222931","0.0-1.0-330.0-0.0","0","0","28802","","null","","","null","36","","","","","","","","","","","","","","","",""
"","time_out","","html-keyboard-response","234","224933","0.0-1.0-332.0-0.0","0","0","28802","","null","","","null","36","","","","","","","","","","","","","","","",""
"","ITI","","html-keyboard-response","235","225936","0.0-1.0-333.0","0","0","28802","","null","","","null","36","","","","","","","","","","","","","","","NaN",""
"","S1","","html-keyboard-response","236","226188","0.0-1.0-335.0","0","0","28802","","null","","","null","37","","","","","","","","","","","","","","","",""
"","ISI","","html-keyboard-response","237","227191","0.0-1.0-336.0","0","0","28802","","null","","","null","37","NaN","","","","","","","","","","","","","","",""
"","S2","","html-keyboard-response","238","227444","0.0-1.0-337.0","0","0","28802","","null","","","null","37","","NaN","","","","","","","","","","","","","",""
"","response","","html-keyboard-response","239","227586","0.0-1.0-338.0-0.0","0","0","28802","","140","","","75","37","","","1","37","training","adjacent","CD","3","4","P.jpg","M.jpg","0","1","0","",""
"","feedback","","html-keyboard-response","240","228589","0.0-1.0-339.0-0.0","0","0","28802","","null","","","null","37","","","","","","","","","","","","","","","",""
"","time_out","","html-keyboard-response","241","230592","0.0-1.0-341.0-0.0","0","0","28802","","null","","","null","37","","","","","","","","","","","","","","","",""
"","ITI","","html-keyboard-response","242","231594","0.0-1.0-342.0","0","0","28802","","null","","","null","37","","","","","","","","","","","","","","","NaN",""
"","S1","","html-keyboard-response","243","231847","0.0-1.0-344.0","0","0","28802","","null","","","null","38","","","","","","","","","","","","","","","",""
"","ISI","","html-keyboard-response","244","232850","0.0-1.0-345.0","0","0","28802","","null","","","null","38","NaN","","","","","","","","","","","","","","",""
"","S2","","html-keyboard-response","245","233103","0.0-1.0-346.0","0","0","28802","","null","","","null","38","","NaN","","","","","","","","","","","","","",""
"","response","","html-keyboard-response","246","233891","0.0-1.0-347.0-0.0","0","0","28802","","785","","","75","38","","","1","38","training","adjacent","ED","5","4","L.jpg","M.jpg","0","0","1","",""
"","feedback","","html-keyboard-response","247","234895","0.0-1.0-348.0-0.0","0","0","28802","","null","","","null","38","","","","","","","","","","","","","","","",""
"","ITI","","html-keyboard-response","248","235910","0.0-1.0-351.0","0","0","28802","","null","","","null","38","","","","","","","","","","","","","","","NaN",""
"","S1","","html-keyboard-response","249","236163","0.0-1.0-353.0","0","0","28802","","null","","","null","39","","","","","","","","","","","","","","","",""
"","ISI","","html-keyboard-response","250","237165","0.0-1.0-354.0","0","0","28802","","null","","","null","39","NaN","","","","","","","","","","","","","","",""
"","S2","","html-keyboard-response","251","237419","0.0-1.0-355.0","0","0","28802","","null","","","null","39","","NaN","","","","","","","","","","","","","",""
"","response","","html-keyboard-response","252","238159","0.0-1.0-356.0-0.0","0","0","28802","","738","","","75","39","","","1","39","training","adjacent","EF","5","6","L.jpg","Q.jpg","0","1","0","",""
"","feedback","","html-keyboard-response","253","239163","0.0-1.0-357.0-0.0","0","0","28802","","null","","","null","39","","","","","","","","","","","","","","","",""
"","time_out","","html-keyboard-response","254","241168","0.0-1.0-359.0-0.0","0","0","28802","","null","","","null","39","","","","","","","","","","","","","","","",""
"","ITI","","html-keyboard-response","255","242172","0.0-1.0-360.0","0","0","28802","","null","","","null","39","","","","","","","","","","","","","","","NaN",""
"","S1","","html-keyboard-response","256","242424","0.0-1.0-362.0","0","0","28802","","null","","","null","40","","","","","","","","","","","","","","","",""
"","ISI","","html-keyboard-response","257","243428","0.0-1.0-363.0","0","0","28802","","null","","","null","40","NaN","","","","","","","","","","","","","","",""
"","S2","","html-keyboard-response","258","243680","0.0-1.0-364.0","0","0","28802","","null","","","null","40","","NaN","","","","","","","","","","","","","",""
"","response","","html-keyboard-response","259","244330","0.0-1.0-365.0-0.0","0","0","28802","","648","","","75","40","","","1","40","training","adjacent","BC","2","3","O.jpg","P.jpg","0","1","0","",""
"","feedback","","html-keyboard-response","260","245336","0.0-1.0-366.0-0.0","0","0","28802","","null","","","null","40","","","","","","","","","","","","","","","",""
"","time_out","","html-keyboard-response","261","247339","0.0-1.0-368.0-0.0","0","0","28802","","null","","","null","40","","","","","","","","","","","","","","","",""
"","ITI","","html-keyboard-response","262","248341","0.0-1.0-369.0","0","0","28802","","null","","","null","40","","","","","","","","","","","","","","","NaN",""
"","S1","","html-keyboard-response","263","248595","0.0-1.0-371.0","0","0","28802","","null","","","null","41","","","","","","","","","","","","","","","",""
"","ISI","","html-keyboard-response","264","249598","0.0-1.0-372.0","0","0","28802","","null","","","null","41","NaN","","","","","","","","","","","","","","",""
"","S2","","html-keyboard-response","265","249850","0.0-1.0-373.0","0","0","28802","","null","","","null","41","","NaN","","","","","","","","","","","","","",""
"","response","","html-keyboard-response","266","250259","0.0-1.0-374.0-0.0","0","0","28802","","407","","","75","41","","","1","41","training","adjacent","CB","3","2","P.jpg","O.jpg","0","0","1","",""
"","feedback","","html-keyboard-response","267","251263","0.0-1.0-375.0-0.0","0","0","28802","","null","","","null","41","","","","","","","","","","","","","","","",""
"","ITI","","html-keyboard-response","268","252267","0.0-1.0-378.0","0","0","28802","","null","","","null","41","","","","","","","","","","","","","","","NaN",""
"","S1","","html-keyboard-response","269","252520","0.0-1.0-380.0","0","0","28802","","null","","","null","42","","","","","","","","","","","","","","","",""
"","ISI","","html-keyboard-response","270","253524","0.0-1.0-381.0","0","0","28802","","null","","","null","42","NaN","","","","","","","","","","","","","","",""
"","S2","","html-keyboard-response","271","253778","0.0-1.0-382.0","0","0","28802","","null","","","null","42","","NaN","","","","","","","","","","","","","",""
"","response","","html-keyboard-response","272","254395","0.0-1.0-383.0-0.0","0","0","28802","","616","","","75","42","","","1","42","training","adjacent","GF","7","6","R.jpg","Q.jpg","0","0","1","",""
"","feedback","","html-keyboard-response","273","255397","0.0-1.0-384.0-0.0","0","0","28802","","null","","","null","42","","","","","","","","","","","","","","","",""
"","ITI","","html-keyboard-response","274","256400","0.0-1.0-387.0","0","0","28802","","null","","","null","42","","","","","","","","","","","","","","","NaN",""
"","S1","","html-keyboard-response","275","256652","0.0-1.0-389.0","0","0","28802","","null","","","null","43","","","","","","","","","","","","","","","",""
"","ISI","","html-keyboard-response","276","257656","0.0-1.0-390.0","0","0","28802","","null","","","null","43","NaN","","","","","","","","","","","","","","",""
"","S2","","html-keyboard-response","277","257908","0.0-1.0-391.0","0","0","28802","","null","","","null","43","","NaN","","","","","","","","","","","","","",""
"","response","","html-keyboard-response","278","258459","0.0-1.0-392.0-0.0","0","0","28802","","549","","","75","43","","","1","43","training","adjacent","ED","5","4","L.jpg","M.jpg","0","0","1","",""
"","feedback","","html-keyboard-response","279","259463","0.0-1.0-393.0-0.0","0","0","28802","","null","","","null","43","","","","","","","","","","","","","","","",""
"","ITI","","html-keyboard-response","280","260465","0.0-1.0-396.0","0","0","28802","","null","","","null","43","","","","","","","","","","","","","","","NaN",""
"","S1","","html-keyboard-response","281","260720","0.0-1.0-398.0","0","0","28802","","null","","","null","44","","","","","","","","","","","","","","","",""
"","ISI","","html-keyboard-response","282","261721","0.0-1.0-399.0","0","0","28802","","null","","","null","44","NaN","","","","","","","","","","","","","","",""
"","S2","","html-keyboard-response","283","261974","0.0-1.0-400.0","0","0","28802","","null","","","null","44","","NaN","","","","","","","","","","","","","",""
"","response","","html-keyboard-response","284","262364","0.0-1.0-401.0-0.0","0","0","28802","","388","","","75","44","","","1","44","training","adjacent","CB","3","2","P.jpg","O.jpg","0","0","1","",""
"","feedback","","html-keyboard-response","285","263368","0.0-1.0-402.0-0.0","0","0","28802","","null","","","null","44","","","","","","","","","","","","","","","",""
"","ITI","","html-keyboard-response","286","264371","0.0-1.0-405.0","0","0","28802","","null","","","null","44","","","","","","","","","","","","","","","NaN",""
"","S1","","html-keyboard-response","287","264624","0.0-1.0-407.0","0","0","28802","","null","","","null","45","","","","","","","","","","","","","","","",""
"","ISI","","html-keyboard-response","288","265626","0.0-1.0-408.0","0","0","28802","","null","","","null","45","NaN","","","","","","","","","","","","","","",""
"","S2","","html-keyboard-response","289","265879","0.0-1.0-409.0","0","0","28802","","null","","","null","45","","NaN","","","","","","","","","","","","","",""
"","response","","html-keyboard-response","290","266375","0.0-1.0-410.0-0.0","0","0","28802","","492","","","75","45","","","1","45","training","adjacent","BA","2","1","O.jpg","N.jpg","0","0","1","",""
"","feedback","","html-keyboard-response","291","267378","0.0-1.0-411.0-0.0","0","0","28802","","null","","","null","45","","","","","","","","","","","","","","","",""
"","ITI","","html-keyboard-response","292","268381","0.0-1.0-414.0","0","0","28802","","null","","","null","45","","","","","","","","","","","","","","","NaN",""
"","S1","","html-keyboard-response","293","268633","0.0-1.0-416.0","0","0","28802","","null","","","null","46","","","","","","","","","","","","","","","",""
"","ISI","","html-keyboard-response","294","269635","0.0-1.0-417.0","0","0","28802","","null","","","null","46","NaN","","","","","","","","","","","","","","",""
"","S2","","html-keyboard-response","295","269888","0.0-1.0-418.0","0","0","28802","","null","","","null","46","","NaN","","","","","","","","","","","","","",""
"","response","","html-keyboard-response","296","269972","0.0-1.0-419.0-0.0","0","0","28802","","83","","","68","46","","","1","46","training","adjacent","AB","1","2","N.jpg","O.jpg","1","1","1","",""
"","feedback","","html-keyboard-response","297","270977","0.0-1.0-420.0-0.0","0","0","28802","","null","","","null","46","","","","","","","","","","","","","","","",""
"","ITI","","html-keyboard-response","298","271979","0.0-1.0-423.0","0","0","28802","","null","","","null","46","","","","","","","","","","","","","","","NaN",""
"","S1","","html-keyboard-response","299","272231","0.0-1.0-425.0","0","0","28802","","null","","","null","47","","","","","","","","","","","","","","","",""
"","ISI","","html-keyboard-response","300","273234","0.0-1.0-426.0","0","0","28802","","null","","","null","47","NaN","","","","","","","","","","","","","","",""
"","S2","","html-keyboard-response","301","273487","0.0-1.0-427.0","0","0","28802","","null","","","null","47","","NaN","","","","","","","","","","","","","",""
"","response","","html-keyboard-response","302","273952","0.0-1.0-428.0-0.0","0","0","28802","","464","","","75","47","","","1","47","training","adjacent","ED","5","4","L.jpg","M.jpg","0","0","1","",""
"","feedback","","html-keyboard-response","303","274955","0.0-1.0-429.0-0.0","0","0","28802","","null","","","null","47","","","","","","","","","","","","","","","",""
"","ITI","","html-keyboard-response","304","275958","0.0-1.0-432.0","0","0","28802","","null","","","null","47","","","","","","","","","","","","","","","NaN",""
"","block_over","","html-keyboard-response","305","280194","0.0-1.0-433.0-0.0","0","0","28802","","4234","","","32","47","","","","","","","","","","","","","","","",""
"","S1","","html-keyboard-response","306","280446","0.0-1.0-434.0","0","0","28802","","null","","","null","48","","","","","","","","","","","","","","","",""
"","ISI","","html-keyboard-response","307","281451","0.0-1.0-435.0","0","0","28802","","null","","","null","48","NaN","","","","","","","","","","","","","","",""
"","S2","","html-keyboard-response","308","281703","0.0-1.0-436.0","0","0","28802","","null","","","null","48","","NaN","","","","","","","","","","","","","",""
"","response","","html-keyboard-response","309","281960","0.0-1.0-437.0-0.0","0","0","28802","","255","","","75","48","","","2","48","training","adjacent","BA","2","1","O.jpg","N.jpg","0","0","1","",""
"","feedback","","html-keyboard-response","310","282965","0.0-1.0-438.0-0.0","0","0","28802","","null","","","null","48","","","","","","","","","","","","","","","",""
"","ITI","","html-keyboard-response","311","283967","0.0-1.0-441.0","0","0","28802","","null","","","null","48","","","","","","","","","","","","","","","NaN",""
"","S1","","html-keyboard-response","312","284220","0.0-1.0-443.0","0","0","28802","","null","","","null","49","","","","","","","","","","","","","","","",""
"","ISI","","html-keyboard-response","313","285222","0.0-1.0-444.0","0","0","28802","","null","","","null","49","NaN","","","","","","","","","","","","","","",""
"","S2","","html-keyboard-response","314","285475","0.0-1.0-445.0","0","0","28802","","null","","","null","49","","NaN","","","","","","","","","","","","","",""
"","response","","html-keyboard-response","315","285704","0.0-1.0-446.0-0.0","0","0","28802","","228","","","75","49","","","2","49","training","adjacent","ED","5","4","L.jpg","M.jpg","0","0","1","",""
"","feedback","","html-keyboard-response","316","286707","0.0-1.0-447.0-0.0","0","0","28802","","null","","","null","49","","","","","","","","","","","","","","","",""
"","ITI","","html-keyboard-response","317","287724","0.0-1.0-450.0","0","0","28802","","null","","","null","49","","","","","","","","","","","","","","","NaN",""
"","S1","","html-keyboard-response","318","287978","0.0-1.0-452.0","0","0","28802","","null","","","null","50","","","","","","","","","","","","","","","",""
"","ISI","","html-keyboard-response","319","288980","0.0-1.0-453.0","0","0","28802","","null","","","null","50","NaN","","","","","","","","","","","","","","",""
"","S2","","html-keyboard-response","320","289232","0.0-1.0-454.0","0","0","28802","","null","","","null","50","","NaN","","","","","","","","","","","","","",""
"","response","","html-keyboard-response","321","289305","0.0-1.0-455.0-0.0","0","0","28802","","72","","","68","50","","","2","50","training","adjacent","AB","1","2","N.jpg","O.jpg","1","1","1","",""
"","feedback","","html-keyboard-response","322","290316","0.0-1.0-456.0-0.0","0","0","28802","","null","","","null","50","","","","","","","","","","","","","","","",""
"","ITI","","html-keyboard-response","323","291319","0.0-1.0-459.0","0","0","28802","","null","","","null","50","","","","","","","","","","","","","","","NaN",""
"","S1","","html-keyboard-response","324","291573","0.0-1.0-461.0","0","0","28802","","null","","","null","51","","","","","","","","","","","","","","","",""
"","ISI","","html-keyboard-response","325","292576","0.0-1.0-462.0","0","0","28802","","null","","","null","51","NaN","","","","","","","","","","","","","","",""
"","S2","","html-keyboard-response","326","292829","0.0-1.0-463.0","0","0","28802","","null","","","null","51","","NaN","","","","","","","","","","","","","",""
"","response","","html-keyboard-response","327","293332","0.0-1.0-464.0-0.0","0","0","28802","","500","","","75","51","","","2","51","training","adjacent","BA","2","1","O.jpg","N.jpg","0","0","1","",""
"","feedback","","html-keyboard-response","328","294335","0.0-1.0-465.0-0.0","0","0","28802","","null","","","null","51","","","","","","","","","","","","","","","",""
"","ITI","","html-keyboard-response","329","295338","0.0-1.0-468.0","0","0","28802","","null","","","null","51","","","","","","","","","","","","","","","NaN",""
"","S1","","html-keyboard-response","330","295591","0.0-1.0-470.0","0","0","28802","","null","","","null","52","","","","","","","","","","","","","","","",""
"","ISI","","html-keyboard-response","331","296592","0.0-1.0-471.0","0","0","28802","","null","","","null","52","NaN","","","","","","","","","","","","","","",""
"","S2","","html-keyboard-response","332","296844","0.0-1.0-472.0","0","0","28802","","null","","","null","52","","NaN","","","","","","","","","","","","","",""
"","response","","html-keyboard-response","333","297485","0.0-1.0-473.0-0.0","0","0","28802","","639","","","68","52","","","2","52","training","adjacent","FE","6","5","Q.jpg","L.jpg","1","0","0","",""
"","feedback","","html-keyboard-response","334","298488","0.0-1.0-474.0-0.0","0","0","28802","","null","","","null","52","","","","","","","","","","","","","","","",""
"","time_out","","html-keyboard-response","335","300490","0.0-1.0-476.0-0.0","0","0","28802","","null","","","null","52","","","","","","","","","","","","","","","",""
"","ITI","","html-keyboard-response","336","301493","0.0-1.0-477.0","0","0","28802","","null","","","null","52","","","","","","","","","","","","","","","NaN",""
"","S1","","html-keyboard-response","337","301748","0.0-1.0-479.0","0","0","28802","","null","","","null","53","","","","","","","","","","","","","","","",""
"","ISI","","html-keyboard-response","338","302749","0.0-1.0-480.0","0","0","28802","","null","","","null","53","NaN","","","","","","","","","","","","","","",""
"","S2","","html-keyboard-response","339","303001","0.0-1.0-481.0","0","0","28802","","null","","","null","53","","NaN","","","","","","","","","","","","","",""
"","response","","html-keyboard-response","340","303721","0.0-1.0-482.0-0.0","0","0","28802","","718","","","75","53","","","2","53","training","adjacent","ED","5","4","L.jpg","M.jpg","0","0","1","",""
"","feedback","","html-keyboard-response","341","304724","0.0-1.0-483.0-0.0","0","0","28802","","null","","","null","53","","","","","","","","","","","","","","","",""
"","ITI","","html-keyboard-response","342","305727","0.0-1.0-486.0","0","0","28802","","null","","","null","53","","","","","","","","","","","","","","","NaN",""
"","S1","","html-keyboard-response","343","305980","0.0-1.0-488.0","0","0","28802","","null","","","null","54","","","","","","","","","","","","","","","",""
"","ISI","","html-keyboard-response","344","306982","0.0-1.0-489.0","0","0","28802","","null","","","null","54","NaN","","","","","","","","","","","","","","",""
"","S2","","html-keyboard-response","345","307236","0.0-1.0-490.0","0","0","28802","","null","","","null","54","","NaN","","","","","","","","","","","","","",""
"","response","","html-keyboard-response","346","307381","0.0-1.0-491.0-0.0","0","0","28802","","144","","","68","54","","","2","54","training","adjacent","BC","2","3","O.jpg","P.jpg","1","1","1","",""
"","feedback","","html-keyboard-response","347","308384","0.0-1.0-492.0-0.0","0","0","28802","","null","","","null","54","","","","","","","","","","","","","","","",""
"","ITI","","html-keyboard-response","348","309386","0.0-1.0-495.0","0","0","28802","","null","","","null","54","","","","","","","","","","","","","","","NaN",""
"","S1","","html-keyboard-response","349","309640","0.0-1.0-497.0","0","0","28802","","null","","","null","55","","","","","","","","","","","","","","","",""
"","ISI","","html-keyboard-response","350","310643","0.0-1.0-498.0","0","0","28802","","null","","","null","55","NaN","","","","","","","","","","","","","","",""
"","S2","","html-keyboard-response","351","310895","0.0-1.0-499.0","0","0","28802","","null","","","null","55","","NaN","","","","","","","","","","","","","",""
"","response","","html-keyboard-response","352","311385","0.0-1.0-500.0-0.0","0","0","28802","","488","","","75","55","","","2","55","training","adjacent","EF","5","6","L.jpg","Q.jpg","0","1","0","",""
"","feedback","","html-keyboard-response","353","312389","0.0-1.0-501.0-0.0","0","0","28802","","null","","","null","55","","","","","","","","","","","","","","","",""
"","time_out","","html-keyboard-response","354","314391","0.0-1.0-503.0-0.0","0","0","28802","","null","","","null","55","","","","","","","","","","","","","","","",""
"","ITI","","html-keyboard-response","355","315395","0.0-1.0-504.0","0","0","28802","","null","","","null","55","","","","","","","","","","","","","","","NaN",""
"","S1","","html-keyboard-response","356","315648","0.0-1.0-506.0","0","0","28802","","null","","","null","56","","","","","","","","","","","","","","","",""
"","ISI","","html-keyboard-response","357","316653","0.0-1.0-507.0","0","0","28802","","null","","","null","56","NaN","","","","","","","","","","","","","","",""
"","S2","","html-keyboard-response","358","316906","0.0-1.0-508.0","0","0","28802","","null","","","null","56","","NaN","","","","","","","","","","","","","",""
"","response","","html-keyboard-response","359","317445","0.0-1.0-509.0-0.0","0","0","28802","","536","","","68","56","","","2","56","training","adjacent","BC","2","3","O.jpg","P.jpg","1","1","1","",""
"","feedback","","html-keyboard-response","360","318448","0.0-1.0-510.0-0.0","0","0","28802","","null","","","null","56","","","","","","","","","","","","","","","",""
"","ITI","","html-keyboard-response","361","319451","0.0-1.0-513.0","0","0","28802","","null","","","null","56","","","","","","","","","","","","","","","NaN",""
"","S1","","html-keyboard-response","362","319703","0.0-1.0-515.0","0","0","28802","","null","","","null","57","","","","","","","","","","","","","","","",""
"","ISI","","html-keyboard-response","363","320705","0.0-1.0-516.0","0","0","28802","","null","","","null","57","NaN","","","","","","","","","","","","","","",""
"","S2","","html-keyboard-response","364","320957","0.0-1.0-517.0","0","0","28802","","null","","","null","57","","NaN","","","","","","","","","","","","","",""
"","response","","html-keyboard-response","365","321274","0.0-1.0-518.0-0.0","0","0","28802","","314","","","75","57","","","2","57","training","adjacent","CB","3","2","P.jpg","O.jpg","0","0","1","",""
"","feedback","","html-keyboard-response","366","322277","0.0-1.0-519.0-0.0","0","0","28802","","null","","","null","57","","","","","","","","","","","","","","","",""
"","ITI","","html-keyboard-response","367","323280","0.0-1.0-522.0","0","0","28802","","null","","","null","57","","","","","","","","","","","","","","","NaN",""
"","S1","","html-keyboard-response","368","323532","0.0-1.0-524.0","0","0","28802","","null","","","null","58","","","","","","","","","","","","","","","",""
"","ISI","","html-keyboard-response","369","324535","0.0-1.0-525.0","0","0","28802","","null","","","null","58","NaN","","","","","","","","","","","","","","",""
"","S2","","html-keyboard-response","370","324787","0.0-1.0-526.0","0","0","28802","","null","","","null","58","","NaN","","","","","","","","","","","","","",""
"","response","","html-keyboard-response","371","324960","0.0-1.0-527.0-0.0","0","0","28802","","172","","","68","58","","","2","58","training","adjacent","AB","1","2","N.jpg","O.jpg","1","1","1","",""
"","feedback","","html-keyboard-response","372","325963","0.0-1.0-528.0-0.0","0","0","28802","","null","","","null","58","","","","","","","","","","","","","","","",""
"","ITI","","html-keyboard-response","373","326966","0.0-1.0-531.0","0","0","28802","","null","","","null","58","","","","","","","","","","","","","","","NaN",""
"","S1","","html-keyboard-response","374","327219","0.0-1.0-533.0","0","0","28802","","null","","","null","59","","","","","","","","","","","","","","","",""
"","ISI","","html-keyboard-response","375","328223","0.0-1.0-534.0","0","0","28802","","null","","","null","59","NaN","","","","","","","","","","","","","","",""
"","S2","","html-keyboard-response","376","328476","0.0-1.0-535.0","0","0","28802","","null","","","null","59","","NaN","","","","","","","","","","","","","",""
"","response","","html-keyboard-response","377","329145","0.0-1.0-536.0-0.0","0","0","28802","","667","","","68","59","","","2","59","training","adjacent","EF","5","6","L.jpg","Q.jpg","1","1","1","",""
"","feedback","","html-keyboard-response","378","330147","0.0-1.0-537.0-0.0","0","0","28802","","null","","","null","59","","","","","","","","","","","","","","","",""
"","ITI","","html-keyboard-response","379","331149","0.0-1.0-540.0","0","0","28802","","null","","","null","59","","","","","","","","","","","","","","","NaN",""
"","S1","","html-keyboard-response","380","331403","0.0-1.0-542.0","0","0","28802","","null","","","null","60","","","","","","","","","","","","","","","",""
"","ISI","","html-keyboard-response","381","332407","0.0-1.0-543.0","0","0","28802","","null","","","null","60","NaN","","","","","","","","","","","","","","",""
"","S2","","html-keyboard-response","382","332659","0.0-1.0-544.0","0","0","28802","","null","","","null","60","","NaN","","","","","","","","","","","","","",""
"","response","","html-keyboard-response","383","332957","0.0-1.0-545.0-0.0","0","0","28802","","297","","","75","60","","","2","60","training","adjacent","GF","7","6","R.jpg","Q.jpg","0","0","1","",""
"","feedback","","html-keyboard-response","384","333959","0.0-1.0-546.0-0.0","0","0","28802","","null","","","null","60","","","","","","","","","","","","","","","",""
"","ITI","","html-keyboard-response","385","334962","0.0-1.0-549.0","0","0","28802","","null","","","null","60","","","","","","","","","","","","","","","NaN",""
"","S1","","html-keyboard-response","386","335216","0.0-1.0-551.0","0","0","28802","","null","","","null","61","","","","","","","","","","","","","","","",""
"","ISI","","html-keyboard-response","387","336228","0.0-1.0-552.0","0","0","28802","","null","","","null","61","NaN","","","","","","","","","","","","","","",""
"","S2","","html-keyboard-response","388","336482","0.0-1.0-553.0","0","0","28802","","null","","","null","61","","NaN","","","","","","","","","","","","","",""
"","response","","html-keyboard-response","389","336894","0.0-1.0-554.0-0.0","0","0","28802","","410","","","68","61","","","2","61","training","adjacent","BC","2","3","O.jpg","P.jpg","1","1","1","",""
"","feedback","","html-keyboard-response","390","337897","0.0-1.0-555.0-0.0","0","0","28802","","null","","","null","61","","","","","","","","","","","","","","","",""
"","ITI","","html-keyboard-response","391","338913","0.0-1.0-558.0","0","0","28802","","null","","","null","61","","","","","","","","","","","","","","","NaN",""
"","S1","","html-keyboard-response","392","339166","0.0-1.0-560.0","0","0","28802","","null","","","null","62","","","","","","","","","","","","","","","",""
"","ISI","","html-keyboard-response","393","340168","0.0-1.0-561.0","0","0","28802","","null","","","null","62","NaN","","","","","","","","","","","","","","",""
"","S2","","html-keyboard-response","394","340420","0.0-1.0-562.0","0","0","28802","","null","","","null","62","","NaN","","","","","","","","","","","","","",""
"","response","","html-keyboard-response","395","340507","0.0-1.0-563.0-0.0","0","0","28802","","85","","","75","62","","","2","62","training","adjacent","DE","4","5","M.jpg","L.jpg","0","1","0","",""
"","feedback","","html-keyboard-response","396","341511","0.0-1.0-564.0-0.0","0","0","28802","","null","","","null","62","","","","","","","","","","","","","","","",""
"","time_out","","html-keyboard-response","397","343513","0.0-1.0-566.0-0.0","0","0","28802","","null","","","null","62","","","","","","","","","","","","","","","",""
"","ITI","","html-keyboard-response","398","344516","0.0-1.0-567.0","0","0","28802","","null","","","null","62","","","","","","","","","","","","","","","NaN",""
"","S1","","html-keyboard-response","399","344768","0.0-1.0-569.0","0","0","28802","","null","","","null","63","","","","","","","","","","","","","","","",""
"","ISI","","html-keyboard-response","400","345772","0.0-1.0-570.0","0","0","28802","","609","","","68","63","d","","","","","","","","","","","","","","",""
"","S2","","html-keyboard-response","401","346025","0.0-1.0-571.0","0","0","28802","","null","","","null","63","","NaN","","","","","","","","","","","","","",""
"","response","","html-keyboard-response","402","346135","0.0-1.0-572.0-0.0","0","0","28802","","109","","","68","63","","","2","63","training","adjacent","AB","1","2","N.jpg","O.jpg","1","1","1","",""
"","feedback","","html-keyboard-response","403","347139","0.0-1.0-573.0-0.0","0","0","28802","","null","","","null","63","","","","","","","","","","","","","","","",""
"","ITI","","html-keyboard-response","404","348141","0.0-1.0-576.0","0","0","28802","","null","","","null","63","","","","","","","","","","","","","","","NaN",""
"","S1","","html-keyboard-response","405","348393","0.0-1.0-578.0","0","0","28802","","null","","","null","64","","","","","","","","","","","","","","","",""
"","ISI","","html-keyboard-response","406","349395","0.0-1.0-579.0","0","0","28802","","null","","","null","64","NaN","","","","","","","","","","","","","","",""
"","S2","","html-keyboard-response","407","349649","0.0-1.0-580.0","0","0","28802","","null","","","null","64","","NaN","","","","","","","","","","","","","",""
"","response","","html-keyboard-response","408","351175","0.0-1.0-581.0-0.0","0","0","28802","","1524","","","75","64","","","2","64","training","adjacent","BA","2","1","O.jpg","N.jpg","0","0","1","",""
"","feedback","","html-keyboard-response","409","352177","0.0-1.0-582.0-0.0","0","0","28802","","null","","","null","64","","","","","","","","","","","","","","","",""
"","ITI","","html-keyboard-response","410","353179","0.0-1.0-585.0","0","0","28802","","null","","","null","64","","","","","","","","","","","","","","","NaN",""
"","S1","","html-keyboard-response","411","353433","0.0-1.0-587.0","0","0","28802","","null","","","null","65","","","","","","","","","","","","","","","",""
"","ISI","","html-keyboard-response","412","354435","0.0-1.0-588.0","0","0","28802","","null","","","null","65","NaN","","","","","","","","","","","","","","",""
"","S2","","html-keyboard-response","413","354688","0.0-1.0-589.0","0","0","28802","","null","","","null","65","","NaN","","","","","","","","","","","","","",""
"","response","","html-keyboard-response","414","355057","0.0-1.0-590.0-0.0","0","0","28802","","367","","","75","65","","","2","65","training","adjacent","FE","6","5","Q.jpg","L.jpg","0","0","1","",""
"","feedback","","html-keyboard-response","415","356060","0.0-1.0-591.0-0.0","0","0","28802","","null","","","null","65","","","","","","","","","","","","","","","",""
"","ITI","","html-keyboard-response","416","357063","0.0-1.0-594.0","0","0","28802","","null","","","null","65","","","","","","","","","","","","","","","NaN",""
"","S1","","html-keyboard-response","417","357316","0.0-1.0-596.0","0","0","28802","","null","","","null","66","","","","","","","","","","","","","","","",""
"","ISI","","html-keyboard-response","418","358330","0.0-1.0-597.0","0","0","28802","","null","","","null","66","NaN","","","","","","","","","","","","","","",""
"","S2","","html-keyboard-response","419","358583","0.0-1.0-598.0","0","0","28802","","null","","","null","66","","NaN","","","","","","","","","","","","","",""
"","response","","html-keyboard-response","420","359028","0.0-1.0-599.0-0.0","0","0","28802","","443","","","68","66","","","2","66","training","adjacent","CB","3","2","P.jpg","O.jpg","1","0","0","",""
"","feedback","","html-keyboard-response","421","360032","0.0-1.0-600.0-0.0","0","0","28802","","null","","","null","66","","","","","","","","","","","","","","","",""
"","time_out","","html-keyboard-response","422","362035","0.0-1.0-602.0-0.0","0","0","28802","","null","","","null","66","","","","","","","","","","","","","","","",""
"","ITI","","html-keyboard-response","423","363037","0.0-1.0-603.0","0","0","28802","","null","","","null","66","","","","","","","","","","","","","","","NaN",""
"","S1","","html-keyboard-response","424","363291","0.0-1.0-605.0","0","0","28802","","null","","","null","67","","","","","","","","","","","","","","","",""
"","ISI","","html-keyboard-response","425","364294","0.0-1.0-606.0","0","0","28802","","null","","","null","67","NaN","","","","","","","","","","","","","","",""
"","S2","","html-keyboard-response","426","364547","0.0-1.0-607.0","0","0","28802","","null","","","null","67","","NaN","","","","","","","","","","","","","",""
"","response","","html-keyboard-response","427","365401","0.0-1.0-608.0-0.0","0","0","28802","","853","","","75","67","","","2","67","training","adjacent","CD","3","4","P.jpg","M.jpg","0","1","0","",""
"","feedback","","html-keyboard-response","428","366404","0.0-1.0-609.0-0.0","0","0","28802","","null","","","null","67","","","","","","","","","","","","","","","",""
"","time_out","","html-keyboard-response","429","368407","0.0-1.0-611.0-0.0","0","0","28802","","null","","","null","67","","","","","","","","","","","","","","","",""
"","ITI","","html-keyboard-response","430","369409","0.0-1.0-612.0","0","0","28802","","null","","","null","67","","","","","","","","","","","","","","","NaN",""
"","S1","","html-keyboard-response","431","369667","0.0-1.0-614.0","0","0","28802","","null","","","null","68","","","","","","","","","","","","","","","",""
"","ISI","","html-keyboard-response","432","370671","0.0-1.0-615.0","0","0","28802","","null","","","null","68","NaN","","","","","","","","","","","","","","",""
"","S2","","html-keyboard-response","433","370924","0.0-1.0-616.0","0","0","28802","","null","","","null","68","","NaN","","","","","","","","","","","","","",""
"","response","","html-keyboard-response","434","371589","0.0-1.0-617.0-0.0","0","0","28802","","664","","","68","68","","","2","68","training","adjacent","FE","6","5","Q.jpg","L.jpg","1","0","0","",""
"","feedback","","html-keyboard-response","435","372592","0.0-1.0-618.0-0.0","0","0","28802","","null","","","null","68","","","","","","","","","","","","","","","",""
"","time_out","","html-keyboard-response","436","374596","0.0-1.0-620.0-0.0","0","0","28802","","null","","","null","68","","","","","","","","","","","","","","","",""
"","ITI","","html-keyboard-response","437","375598","0.0-1.0-621.0","0","0","28802","","null","","","null","68","","","","","","","","","","","","","","","NaN",""
"","S1","","html-keyboard-response","438","375851","0.0-1.0-623.0","0","0","28802","","null","","","null","69","","","","","","","","","","","","","","","",""
"","ISI","","html-keyboard-response","439","376853","0.0-1.0-624.0","0","0","28802","","null","","","null","69","NaN","","","","","","","","","","","","","","",""
"","S2","","html-keyboard-response","440","377105","0.0-1.0-625.0","0","0","28802","","null","","","null","69","","NaN","","","","","","","","","","","","","",""
"","response","","html-keyboard-response","441","377628","0.0-1.0-626.0-0.0","0","0","28802","","520","","","75","69","","","2","69","training","adjacent","CB","3","2","P.jpg","O.jpg","0","0","1","",""
"","feedback","","html-keyboard-response","442","378630","0.0-1.0-627.0-0.0","0","0","28802","","null","","","null","69","","","","","","","","","","","","","","","",""
"","ITI","","html-keyboard-response","443","379632","0.0-1.0-630.0","0","0","28802","","null","","","null","69","","","","","","","","","","","","","","","NaN",""
"","S1","","html-keyboard-response","444","379885","0.0-1.0-632.0","0","0","28802","","null","","","null","70","","","","","","","","","","","","","","","",""
"","ISI","","html-keyboard-response","445","380887","0.0-1.0-633.0","0","0","28802","","null","","","null","70","NaN","","","","","","","","","","","","","","",""
"","S2","","html-keyboard-response","446","381140","0.0-1.0-634.0","0","0","28802","","null","","","null","70","","NaN","","","","","","","","","","","","","",""
"","response","","html-keyboard-response","447","381993","0.0-1.0-635.0-0.0","0","0","28802","","852","","","68","70","","","2","70","training","adjacent","DE","4","5","M.jpg","L.jpg","1","1","1","",""
"","feedback","","html-keyboard-response","448","382995","0.0-1.0-636.0-0.0","0","0","28802","","null","","","null","70","","","","","","","","","","","","","","","",""
"","ITI","","html-keyboard-response","449","383997","0.0-1.0-639.0","0","0","28802","","null","","","null","70","","","","","","","","","","","","","","","NaN",""
"","S1","","html-keyboard-response","450","384250","0.0-1.0-641.0","0","0","28802","","null","","","null","71","","","","","","","","","","","","","","","",""
"","ISI","","html-keyboard-response","451","385254","0.0-1.0-642.0","0","0","28802","","null","","","null","71","NaN","","","","","","","","","","","","","","",""
"","S2","","html-keyboard-response","452","385506","0.0-1.0-643.0","0","0","28802","","null","","","null","71","","NaN","","","","","","","","","","","","","",""
"","response","","html-keyboard-response","453","386568","0.0-1.0-644.0-0.0","0","0","28802","","1061","","","75","71","","","2","71","training","adjacent","ED","5","4","L.jpg","M.jpg","0","0","1","",""
"","feedback","","html-keyboard-response","454","387571","0.0-1.0-645.0-0.0","0","0","28802","","null","","","null","71","","","","","","","","","","","","","","","",""
"","ITI","","html-keyboard-response","455","388573","0.0-1.0-648.0","0","0","28802","","null","","","null","71","","","","","","","","","","","","","","","NaN",""
"","S1","","html-keyboard-response","456","388825","0.0-1.0-650.0","0","0","28802","","null","","","null","72","","","","","","","","","","","","","","","",""
"","ISI","","html-keyboard-response","457","389827","0.0-1.0-651.0","0","0","28802","","null","","","null","72","NaN","","","","","","","","","","","","","","",""
"","S2","","html-keyboard-response","458","390081","0.0-1.0-652.0","0","0","28802","","null","","","null","72","","NaN","","","","","","","","","","","","","",""
"","response","","html-keyboard-response","459","390927","0.0-1.0-653.0-0.0","0","0","28802","","844","","","75","72","","","2","72","training","adjacent","FG","6","7","Q.jpg","R.jpg","0","1","0","",""
"","feedback","","html-keyboard-response","460","391931","0.0-1.0-654.0-0.0","0","0","28802","","null","","","null","72","","","","","","","","","","","","","","","",""
"","time_out","","html-keyboard-response","461","393932","0.0-1.0-656.0-0.0","0","0","28802","","null","","","null","72","","","","","","","","","","","","","","","",""
"","ITI","","html-keyboard-response","462","394935","0.0-1.0-657.0","0","0","28802","","null","","","null","72","","","","","","","","","","","","","","","NaN",""
"","S1","","html-keyboard-response","463","395188","0.0-1.0-659.0","0","0","28802","","null","","","null","73","","","","","","","","","","","","","","","",""
"","ISI","","html-keyboard-response","464","396191","0.0-1.0-660.0","0","0","28802","","null","","","null","73","NaN","","","","","","","","","","","","","","",""
"","S2","","html-keyboard-response","465","396444","0.0-1.0-661.0","0","0","28802","","null","","","null","73","","NaN","","","","","","","","","","","","","",""
"","response","","html-keyboard-response","466","397328","0.0-1.0-662.0-0.0","0","0","28802","","882","","","75","73","","","2","73","training","adjacent","ED","5","4","L.jpg","M.jpg","0","0","1","",""
"","feedback","","html-keyboard-response","467","398331","0.0-1.0-663.0-0.0","0","0","28802","","null","","","null","73","","","","","","","","","","","","","","","",""
"","ITI","","html-keyboard-response","468","399334","0.0-1.0-666.0","0","0","28802","","null","","","null","73","","","","","","","","","","","","","","","NaN",""
"","S1","","html-keyboard-response","469","399587","0.0-1.0-668.0","0","0","28802","","null","","","null","74","","","","","","","","","","","","","","","",""
"","ISI","","html-keyboard-response","470","400590","0.0-1.0-669.0","0","0","28802","","null","","","null","74","NaN","","","","","","","","","","","","","","",""
"","S2","","html-keyboard-response","471","400843","0.0-1.0-670.0","0","0","28802","","null","","","null","74","","NaN","","","","","","","","","","","","","",""
"","response","","html-keyboard-response","472","401476","0.0-1.0-671.0-0.0","0","0","28802","","631","","","68","74","","","2","74","training","adjacent","FG","6","7","Q.jpg","R.jpg","1","1","1","",""
"","feedback","","html-keyboard-response","473","402479","0.0-1.0-672.0-0.0","0","0","28802","","null","","","null","74","","","","","","","","","","","","","","","",""
"","ITI","","html-keyboard-response","474","403483","0.0-1.0-675.0","0","0","28802","","null","","","null","74","","","","","","","","","","","","","","","NaN",""
"","S1","","html-keyboard-response","475","403736","0.0-1.0-677.0","0","0","28802","","null","","","null","75","","","","","","","","","","","","","","","",""
"","ISI","","html-keyboard-response","476","404738","0.0-1.0-678.0","0","0","28802","","null","","","null","75","NaN","","","","","","","","","","","","","","",""
"","S2","","html-keyboard-response","477","404990","0.0-1.0-679.0","0","0","28802","","null","","","null","75","","NaN","","","","","","","","","","","","","",""
"","response","","html-keyboard-response","478","405082","0.0-1.0-680.0-0.0","0","0","28802","","88","","","68","75","","","2","75","training","adjacent","AB","1","2","N.jpg","O.jpg","1","1","1","",""
"","feedback","","html-keyboard-response","479","406084","0.0-1.0-681.0-0.0","0","0","28802","","null","","","null","75","","","","","","","","","","","","","","","",""
"","ITI","","html-keyboard-response","480","407087","0.0-1.0-684.0","0","0","28802","","null","","","null","75","","","","","","","","","","","","","","","NaN",""
"","S1","","html-keyboard-response","481","407338","0.0-1.0-686.0","0","0","28802","","null","","","null","76","","","","","","","","","","","","","","","",""
"","ISI","","html-keyboard-response","482","408343","0.0-1.0-687.0","0","0","28802","","null","","","null","76","NaN","","","","","","","","","","","","","","",""
"","S2","","html-keyboard-response","483","408596","0.0-1.0-688.0","0","0","28802","","null","","","null","76","","NaN","","","","","","","","","","","","","",""
"","response","","html-keyboard-response","484","409167","0.0-1.0-689.0-0.0","0","0","28802","","569","","","68","76","","","2","76","training","adjacent","CB","3","2","P.jpg","O.jpg","1","0","0","",""
"","feedback","","html-keyboard-response","485","410170","0.0-1.0-690.0-0.0","0","0","28802","","null","","","null","76","","","","","","","","","","","","","","","",""
"","time_out","","html-keyboard-response","486","412173","0.0-1.0-692.0-0.0","0","0","28802","","null","","","null","76","","","","","","","","","","","","","","","",""
"","ITI","","html-keyboard-response","487","413178","0.0-1.0-693.0","0","0","28802","","null","","","null","76","","","","","","","","","","","","","","","NaN",""
"","S1","","html-keyboard-response","488","413431","0.0-1.0-695.0","0","0","28802","","null","","","null","77","","","","","","","","","","","","","","","",""
"","ISI","","html-keyboard-response","489","414434","0.0-1.0-696.0","0","0","28802","","null","","","null","77","NaN","","","","","","","","","","","","","","",""
"","S2","","html-keyboard-response","490","414686","0.0-1.0-697.0","0","0","28802","","null","","","null","77","","NaN","","","","","","","","","","","","","",""
"","response","","html-keyboard-response","491","415293","0.0-1.0-698.0-0.0","0","0","28802","","605","","","68","77","","","2","77","training","adjacent","DE","4","5","M.jpg","L.jpg","1","1","1","",""
"","feedback","","html-keyboard-response","492","416296","0.0-1.0-699.0-0.0","0","0","28802","","null","","","null","77","","","","","","","","","","","","","","","",""
"","ITI","","html-keyboard-response","493","417298","0.0-1.0-702.0","0","0","28802","","null","","","null","77","","","","","","","","","","","","","","","NaN",""
"","S1","","html-keyboard-response","494","417552","0.0-1.0-704.0","0","0","28802","","null","","","null","78","","","","","","","","","","","","","","","",""
"","ISI","","html-keyboard-response","495","418556","0.0-1.0-705.0","0","0","28802","","null","","","null","78","NaN","","","","","","","","","","","","","","",""
"","S2","","html-keyboard-response","496","418808","0.0-1.0-706.0","0","0","28802","","null","","","null","78","","NaN","","","","","","","","","","","","","",""
"","response","","html-keyboard-response","497","419486","0.0-1.0-707.0-0.0","0","0","28802","","676","","","75","78","","","2","78","training","adjacent","CD","3","4","P.jpg","M.jpg","0","1","0","",""
"","feedback","","html-keyboard-response","498","420490","0.0-1.0-708.0-0.0","0","0","28802","","null","","","null","78","","","","","","","","","","","","","","","",""
"","time_out","","html-keyboard-response","499","422493","0.0-1.0-710.0-0.0","0","0","28802","","null","","","null","78","","","","","","","","","","","","","","","",""
"","ITI","","html-keyboard-response","500","423495","0.0-1.0-711.0","0","0","28802","","null","","","null","78","","","","","","","","","","","","","","","NaN",""
"","S1","","html-keyboard-response","501","423748","0.0-1.0-713.0","0","0","28802","","null","","","null","79","","","","","","","","","","","","","","","",""
"","ISI","","html-keyboard-response","502","424751","0.0-1.0-714.0","0","0","28802","","null","","","null","79","NaN","","","","","","","","","","","","","","",""
"","S2","","html-keyboard-response","503","425003","0.0-1.0-715.0","0","0","28802","","null","","","null","79","","NaN","","","","","","","","","","","","","",""
"","response","","html-keyboard-response","504","425705","0.0-1.0-716.0-0.0","0","0","28802","","700","","","75","79","","","2","79","training","adjacent","BC","2","3","O.jpg","P.jpg","0","1","0","",""
"","feedback","","html-keyboard-response","505","426707","0.0-1.0-717.0-0.0","0","0","28802","","null","","","null","79","","","","","","","","","","","","","","","",""
"","time_out","","html-keyboard-response","506","428710","0.0-1.0-719.0-0.0","0","0","28802","","null","","","null","79","","","","","","","","","","","","","","","",""
"","ITI","","html-keyboard-response","507","429713","0.0-1.0-720.0","0","0","28802","","null","","","null","79","","","","","","","","","","","","","","","NaN",""
"","S1","","html-keyboard-response","508","429966","0.0-1.0-722.0","0","0","28802","","null","","","null","80","","","","","","","","","","","","","","","",""
"","ISI","","html-keyboard-response","509","430968","0.0-1.0-723.0","0","0","28802","","null","","","null","80","NaN","","","","","","","","","","","","","","",""
"","S2","","html-keyboard-response","510","431222","0.0-1.0-724.0","0","0","28802","","null","","","null","80","","NaN","","","","","","","","","","","","","",""
"","response","","html-keyboard-response","511","431610","0.0-1.0-725.0-0.0","0","0","28802","","387","","","75","80","","","2","80","training","adjacent","BA","2","1","O.jpg","N.jpg","0","0","1","",""
"","feedback","","html-keyboard-response","512","432612","0.0-1.0-726.0-0.0","0","0","28802","","null","","","null","80","","","","","","","","","","","","","","","",""
"","ITI","","html-keyboard-response","513","433615","0.0-1.0-729.0","0","0","28802","","null","","","null","80","","","","","","","","","","","","","","","NaN",""
"","S1","","html-keyboard-response","514","433867","0.0-1.0-731.0","0","0","28802","","null","","","null","81","","","","","","","","","","","","","","","",""
"","ISI","","html-keyboard-response","515","434868","0.0-1.0-732.0","0","0","28802","","null","","","null","81","NaN","","","","","","","","","","","","","","",""
"","S2","","html-keyboard-response","516","435122","0.0-1.0-733.0","0","0","28802","","null","","","null","81","","NaN","","","","","","","","","","","","","",""
"","response","","html-keyboard-response","517","435744","0.0-1.0-734.0-0.0","0","0","28802","","620","","","75","81","","","2","81","training","adjacent","FG","6","7","Q.jpg","R.jpg","0","1","0","",""
"","feedback","","html-keyboard-response","518","436746","0.0-1.0-735.0-0.0","0","0","28802","","null","","","null","81","","","","","","","","","","","","","","","",""
"","time_out","","html-keyboard-response","519","438751","0.0-1.0-737.0-0.0","0","0","28802","","null","","","null","81","","","","","","","","","","","","","","","",""
"","ITI","","html-keyboard-response","520","439754","0.0-1.0-738.0","0","0","28802","","null","","","null","81","","","","","","","","","","","","","","","NaN",""
"","S1","","html-keyboard-response","521","440007","0.0-1.0-740.0","0","0","28802","","null","","","null","82","","","","","","","","","","","","","","","",""
"","ISI","","html-keyboard-response","522","441008","0.0-1.0-741.0","0","0","28802","","null","","","null","82","NaN","","","","","","","","","","","","","","",""
"","S2","","html-keyboard-response","523","441262","0.0-1.0-742.0","0","0","28802","","null","","","null","82","","NaN","","","","","","","","","","","","","",""
"","response","","html-keyboard-response","524","442162","0.0-1.0-743.0-0.0","0","0","28802","","898","","","68","82","","","2","82","training","adjacent","CD","3","4","P.jpg","M.jpg","1","1","1","",""
"","feedback","","html-keyboard-response","525","443166","0.0-1.0-744.0-0.0","0","0","28802","","null","","","null","82","","","","","","","","","","","","","","","",""
"","ITI","","html-keyboard-response","526","444168","0.0-1.0-747.0","0","0","28802","","null","","","null","82","","","","","","","","","","","","","","","NaN",""
"","S1","","html-keyboard-response","527","444421","0.0-1.0-749.0","0","0","28802","","null","","","null","83","","","","","","","","","","","","","","","",""
"","ISI","","html-keyboard-response","528","445424","0.0-1.0-750.0","0","0","28802","","null","","","null","83","NaN","","","","","","","","","","","","","","",""
"","S2","","html-keyboard-response","529","445678","0.0-1.0-751.0","0","0","28802","","null","","","null","83","","NaN","","","","","","","","","","","","","",""
"","response","","html-keyboard-response","530","446135","0.0-1.0-752.0-0.0","0","0","28802","","456","","","75","83","","","2","83","training","adjacent","DC","4","3","M.jpg","P.jpg","0","0","1","",""
"","feedback","","html-keyboard-response","531","447139","0.0-1.0-753.0-0.0","0","0","28802","","null","","","null","83","","","","","","","","","","","","","","","",""
"","ITI","","html-keyboard-response","532","448143","0.0-1.0-756.0","0","0","28802","","null","","","null","83","","","","","","","","","","","","","","","NaN",""
"","S1","","html-keyboard-response","533","448395","0.0-1.0-758.0","0","0","28802","","null","","","null","84","","","","","","","","","","","","","","","",""
"","ISI","","html-keyboard-response","534","449397","0.0-1.0-759.0","0","0","28802","","null","","","null","84","NaN","","","","","","","","","","","","","","",""
"","S2","","html-keyboard-response","535","449651","0.0-1.0-760.0","0","0","28802","","null","","","null","84","","NaN","","","","","","","","","","","","","",""
"","response","","html-keyboard-response","536","450567","0.0-1.0-761.0-0.0","0","0","28802","","914","","","68","84","","","2","84","training","adjacent","EF","5","6","L.jpg","Q.jpg","1","1","1","",""
"","feedback","","html-keyboard-response","537","451572","0.0-1.0-762.0-0.0","0","0","28802","","null","","","null","84","","","","","","","","","","","","","","","",""
"","ITI","","html-keyboard-response","538","452575","0.0-1.0-765.0","0","0","28802","","null","","","null","84","","","","","","","","","","","","","","","NaN",""
"","S1","","html-keyboard-response","539","452827","0.0-1.0-767.0","0","0","28802","","null","","","null","85","","","","","","","","","","","","","","","",""
"","ISI","","html-keyboard-response","540","453830","0.0-1.0-768.0","0","0","28802","","null","","","null","85","NaN","","","","","","","","","","","","","","",""
"","S2","","html-keyboard-response","541","454083","0.0-1.0-769.0","0","0","28802","","null","","","null","85","","NaN","","","","","","","","","","","","","",""
"","response","","html-keyboard-response","542","454495","0.0-1.0-770.0-0.0","0","0","28802","","410","","","75","85","","","2","85","training","adjacent","DC","4","3","M.jpg","P.jpg","0","0","1","",""
"","feedback","","html-keyboard-response","543","455497","0.0-1.0-771.0-0.0","0","0","28802","","null","","","null","85","","","","","","","","","","","","","","","",""
"","ITI","","html-keyboard-response","544","456501","0.0-1.0-774.0","0","0","28802","","null","","","null","85","","","","","","","","","","","","","","","NaN",""
"","S1","","html-keyboard-response","545","456755","0.0-1.0-776.0","0","0","28802","","null","","","null","86","","","","","","","","","","","","","","","",""
"","ISI","","html-keyboard-response","546","457756","0.0-1.0-777.0","0","0","28802","","null","","","null","86","NaN","","","","","","","","","","","","","","",""
"","S2","","html-keyboard-response","547","458009","0.0-1.0-778.0","0","0","28802","","null","","","null","86","","NaN","","","","","","","","","","","","","",""
"","response","","html-keyboard-response","548","458634","0.0-1.0-779.0-0.0","0","0","28802","","623","","","68","86","","","2","86","training","adjacent","FG","6","7","Q.jpg","R.jpg","1","1","1","",""
"","feedback","","html-keyboard-response","549","459637","0.0-1.0-780.0-0.0","0","0","28802","","null","","","null","86","","","","","","","","","","","","","","","",""
"","ITI","","html-keyboard-response","550","460639","0.0-1.0-783.0","0","0","28802","","null","","","null","86","","","","","","","","","","","","","","","NaN",""
"","S1","","html-keyboard-response","551","460891","0.0-1.0-785.0","0","0","28802","","null","","","null","87","","","","","","","","","","","","","","","",""
"","ISI","","html-keyboard-response","552","461893","0.0-1.0-786.0","0","0","28802","","null","","","null","87","NaN","","","","","","","","","","","","","","",""
"","S2","","html-keyboard-response","553","462148","0.0-1.0-787.0","0","0","28802","","null","","","null","87","","NaN","","","","","","","","","","","","","",""
"","response","","html-keyboard-response","554","462594","0.0-1.0-788.0-0.0","0","0","28802","","443","","","75","87","","","2","87","training","adjacent","DE","4","5","M.jpg","L.jpg","0","1","0","",""
"","feedback","","html-keyboard-response","555","463598","0.0-1.0-789.0-0.0","0","0","28802","","null","","","null","87","","","","","","","","","","","","","","","",""
"","time_out","","html-keyboard-response","556","465601","0.0-1.0-791.0-0.0","0","0","28802","","null","","","null","87","","","","","","","","","","","","","","","",""
"","ITI","","html-keyboard-response","557","466604","0.0-1.0-792.0","0","0","28802","","null","","","null","87","","","","","","","","","","","","","","","NaN",""
"","S1","","html-keyboard-response","558","466858","0.0-1.0-794.0","0","0","28802","","null","","","null","88","","","","","","","","","","","","","","","",""
"","ISI","","html-keyboard-response","559","467860","0.0-1.0-795.0","0","0","28802","","null","","","null","88","NaN","","","","","","","","","","","","","","",""
"","S2","","html-keyboard-response","560","468112","0.0-1.0-796.0","0","0","28802","","null","","","null","88","","NaN","","","","","","","","","","","","","",""
"","response","","html-keyboard-response","561","468662","0.0-1.0-797.0-0.0","0","0","28802","","547","","","68","88","","","2","88","training","adjacent","CD","3","4","P.jpg","M.jpg","1","1","1","",""
"","feedback","","html-keyboard-response","562","469664","0.0-1.0-798.0-0.0","0","0","28802","","null","","","null","88","","","","","","","","","","","","","","","",""
"","ITI","","html-keyboard-response","563","470666","0.0-1.0-801.0","0","0","28802","","null","","","null","88","","","","","","","","","","","","","","","NaN",""
"","S1","","html-keyboard-response","564","470920","0.0-1.0-803.0","0","0","28802","","null","","","null","89","","","","","","","","","","","","","","","",""
"","ISI","","html-keyboard-response","565","471923","0.0-1.0-804.0","0","0","28802","","null","","","null","89","NaN","","","","","","","","","","","","","","",""
"","S2","","html-keyboard-response","566","472175","0.0-1.0-805.0","0","0","28802","","null","","","null","89","","NaN","","","","","","","","","","","","","",""
"","response","","html-keyboard-response","567","472204","0.0-1.0-806.0-0.0","0","0","28802","","28","","","75","89","","","2","89","training","adjacent","GF","7","6","R.jpg","Q.jpg","0","0","1","",""
"","feedback","","html-keyboard-response","568","473207","0.0-1.0-807.0-0.0","0","0","28802","","null","","","null","89","","","","","","","","","","","","","","","",""
"","ITI","","html-keyboard-response","569","474218","0.0-1.0-810.0","0","0","28802","","null","","","null","89","","","","","","","","","","","","","","","NaN",""
"","S1","","html-keyboard-response","570","474471","0.0-1.0-812.0","0","0","28802","","null","","","null","90","","","","","","","","","","","","","","","",""
"","ISI","","html-keyboard-response","571","475473","0.0-1.0-813.0","0","0","28802","","null","","","null","90","NaN","","","","","","","","","","","","","","",""
"","S2","","html-keyboard-response","572","475726","0.0-1.0-814.0","0","0","28802","","null","","","null","90","","NaN","","","","","","","","","","","","","",""
"","response","","html-keyboard-response","573","475732","0.0-1.0-815.0-0.0","0","0","28802","","4","","","75","90","","","2","90","training","adjacent","GF","7","6","R.jpg","Q.jpg","0","0","1","",""
"","feedback","","html-keyboard-response","574","476735","0.0-1.0-816.0-0.0","0","0","28802","","null","","","null","90","","","","","","","","","","","","","","","",""
"","ITI","","html-keyboard-response","575","477736","0.0-1.0-819.0","0","0","28802","","null","","","null","90","","","","","","","","","","","","","","","NaN",""
"","S1","","html-keyboard-response","576","477989","0.0-1.0-821.0","0","0","28802","","null","","","null","91","","","","","","","","","","","","","","","",""
"","ISI","","html-keyboard-response","577","478991","0.0-1.0-822.0","0","0","28802","","null","","","null","91","NaN","","","","","","","","","","","","","","",""
"","S2","","html-keyboard-response","578","479254","0.0-1.0-823.0","0","0","28802","","null","","","null","91","","NaN","","","","","","","","","","","","","",""
"","response","","html-keyboard-response","579","479307","0.0-1.0-824.0-0.0","0","0","28802","","51","","","75","91","","","2","91","training","adjacent","GF","7","6","R.jpg","Q.jpg","0","0","1","",""
"","feedback","","html-keyboard-response","580","480312","0.0-1.0-825.0-0.0","0","0","28802","","null","","","null","91","","","","","","","","","","","","","","","",""
"","ITI","","html-keyboard-response","581","481314","0.0-1.0-828.0","0","0","28802","","null","","","null","91","","","","","","","","","","","","","","","NaN",""
"","S1","","html-keyboard-response","582","481567","0.0-1.0-830.0","0","0","28802","","null","","","null","92","","","","","","","","","","","","","","","",""
"","ISI","","html-keyboard-response","583","482571","0.0-1.0-831.0","0","0","28802","","null","","","null","92","NaN","","","","","","","","","","","","","","",""
