"success","ttype","start_time","trial_type","trial_index","time_elapsed","internal_node_id","warning","missed_checkup","PID","view_history","rt","responses","repeat_instructions","key_press","index","keypress_isi","keypress_S2","block","trial_num","phase","group_type","pair_type","S1_stim","S2_stim","S1_img","S2_img","S1_chosen","S1_higher","accuracy","keypress_iti","total_bonus_tally"
"true","full_screen","d03072023hr1754","fullscreen","0","108866","0.0-0.0","0","0","45707","","","","","","","","","","","","","","","","","","","","","",""
"","instructions","","instructions","1","141826","0.0-1.0-0.0-0.0","0","0","45707","[{""page_index"":0,""viewing_time"":3841},{""page_index"":1,""viewing_time"":15491},{""page_index"":2,""viewing_time"":10247},{""page_index"":3,""viewing_time"":3376}]","32956","","","","","","","","","","","","","","","","","","","",""
"","comprehension_check","","survey-multi-choice","2","172073","0.0-1.0-0.0-1.0","0","0","45707","","30240","{""Q0"":""True"",""Q1"":""D"",""Q2"":""Once the second image appears and while the screen 'MAKE A CHOICE' is shown"",""Q3"":""Green mark"",""Q4"":""either D or K""}","1","","","","","","","","","","","","","","","","","",""
"","missed_instruction_checkup","","html-keyboard-response","3","173859","0.0-1.0-0.0-2.0-0.0","0","1","45707","","1780","","","32","","","","","","","","","","","","","","","","",""
"","instructions","","instructions","4","184606","0.0-1.0-0.1-0.1","0","0","45707","[{""page_index"":0,""viewing_time"":2487},{""page_index"":1,""viewing_time"":6822},{""page_index"":2,""viewing_time"":677},{""page_index"":3,""viewing_time"":759}]","10745","","","","","","","","","","","","","","","","","","","",""
"","comprehension_check","","survey-multi-choice","5","194143","0.0-1.0-0.1-1.1","0","0","45707","","9529","{""Q0"":""True"",""Q1"":""K"",""Q2"":""Once the second image appears and while the screen 'MAKE A CHOICE' is shown"",""Q3"":""Green mark"",""Q4"":""either D or K""}","0","","","","","","","","","","","","","","","","","",""
"","start_exp","","html-keyboard-response","6","195809","0.0-1.0-1.0","0","0","45707","","1661","","","32","","","","","","","","","","","","","","","","",""
"","S1","","html-keyboard-response","7","196068","0.0-1.0-2.0","0","0","45707","","null","","","null","0","","","","","","","","","","","","","","","",""
"","ISI","","html-keyboard-response","8","197074","0.0-1.0-3.0","0","0","45707","","null","","","null","0","NaN","","","","","","","","","","","","","","",""
"","S2","","html-keyboard-response","9","197330","0.0-1.0-4.0","0","0","45707","","null","","","null","0","","NaN","","","","","","","","","","","","","",""
"","response","","html-keyboard-response","10","198223","0.0-1.0-5.0-0.0","0","0","45707","","890","","","68","0","","","1","0","training","adjacent","DE","4","5","L.jpg","O.jpg","0","1","0","",""
"","feedback","","html-keyboard-response","11","199229","0.0-1.0-6.0-0.0","0","0","45707","","null","","","null","0","","","","","","","","","","","","","","","",""
"","time_out","","html-keyboard-response","12","201233","0.0-1.0-8.0-0.0","0","0","45707","","null","","","null","0","","","","","","","","","","","","","","","",""
"","ITI","","html-keyboard-response","13","202239","0.0-1.0-9.0","0","0","45707","","728","","","32","0","","","","","","","","","","","","","","","space",""
"","S1","","html-keyboard-response","14","202507","0.0-1.0-11.0","0","0","45707","","null","","","null","1","","","","","","","","","","","","","","","",""
"","ISI","","html-keyboard-response","15","203515","0.0-1.0-12.0","0","0","45707","","null","","","null","1","NaN","","","","","","","","","","","","","","",""
"","S2","","html-keyboard-response","16","203769","0.0-1.0-13.0","0","0","45707","","null","","","null","1","","NaN","","","","","","","","","","","","","",""
"","response","","html-keyboard-response","17","204217","0.0-1.0-14.0-0.0","0","0","45707","","445","","","75","1","","","1","1","training","adjacent","CD","3","4","M.jpg","L.jpg","1","1","1","",""
"","feedback","","html-keyboard-response","18","205225","0.0-1.0-15.0-0.0","0","0","45707","","null","","","null","1","","","","","","","","","","","","","","","",""
"","ITI","","html-keyboard-response","19","206242","0.0-1.0-18.0","0","0","45707","","null","","","null","1","","","","","","","","","","","","","","","NaN",""
"","S1","","html-keyboard-response","20","206497","0.0-1.0-20.0","0","0","45707","","null","","","null","2","","","","","","","","","","","","","","","",""
"","ISI","","html-keyboard-response","21","207506","0.0-1.0-21.0","0","0","45707","","null","","","null","2","NaN","","","","","","","","","","","","","","",""
"","S2","","html-keyboard-response","22","207767","0.0-1.0-22.0","0","0","45707","","null","","","null","2","","NaN","","","","","","","","","","","","","",""
"","response","","html-keyboard-response","23","208287","0.0-1.0-23.0-0.0","0","0","45707","","518","","","75","2","","","1","2","training","adjacent","ED","5","4","O.jpg","L.jpg","1","0","0","",""
"","feedback","","html-keyboard-response","24","209293","0.0-1.0-24.0-0.0","0","0","45707","","null","","","null","2","","","","","","","","","","","","","","","",""
"","time_out","","html-keyboard-response","25","211309","0.0-1.0-26.0-0.0","0","0","45707","","null","","","null","2","","","","","","","","","","","","","","","",""
"","ITI","","html-keyboard-response","26","212319","0.0-1.0-27.0","0","0","45707","","null","","","null","2","","","","","","","","","","","","","","","NaN",""
"","S1","","html-keyboard-response","27","212579","0.0-1.0-29.0","0","0","45707","","null","","","null","3","","","","","","","","","","","","","","","",""
"","ISI","","html-keyboard-response","28","213590","0.0-1.0-30.0","0","0","45707","","null","","","null","3","NaN","","","","","","","","","","","","","","",""
"","S2","","html-keyboard-response","29","213844","0.0-1.0-31.0","0","0","45707","","null","","","null","3","","NaN","","","","","","","","","","","","","",""
"","response","","html-keyboard-response","30","214738","0.0-1.0-32.0-0.0","0","0","45707","","892","","","75","3","","","1","3","training","adjacent","DE","4","5","L.jpg","O.jpg","1","1","1","",""
"","feedback","","html-keyboard-response","31","215748","0.0-1.0-33.0-0.0","0","0","45707","","null","","","null","3","","","","","","","","","","","","","","","",""
"","ITI","","html-keyboard-response","32","216757","0.0-1.0-36.0","0","0","45707","","null","","","null","3","","","","","","","","","","","","","","","NaN",""
"","S1","","html-keyboard-response","33","217014","0.0-1.0-38.0","0","0","45707","","null","","","null","4","","","","","","","","","","","","","","","",""
"","ISI","","html-keyboard-response","34","218022","0.0-1.0-39.0","0","0","45707","","null","","","null","4","NaN","","","","","","","","","","","","","","",""
"","S2","","html-keyboard-response","35","218276","0.0-1.0-40.0","0","0","45707","","null","","","null","4","","NaN","","","","","","","","","","","","","",""
"","response","","html-keyboard-response","36","219353","0.0-1.0-41.0-0.0","0","0","45707","","1074","","","75","4","","","1","4","training","adjacent","EF","5","6","O.jpg","Q.jpg","1","1","1","",""
"","feedback","","html-keyboard-response","37","220364","0.0-1.0-42.0-0.0","0","0","45707","","null","","","null","4","","","","","","","","","","","","","","","",""
"","ITI","","html-keyboard-response","38","221369","0.0-1.0-45.0","0","0","45707","","null","","","null","4","","","","","","","","","","","","","","","NaN",""
"","S1","","html-keyboard-response","39","221622","0.0-1.0-47.0","0","0","45707","","null","","","null","5","","","","","","","","","","","","","","","",""
"","ISI","","html-keyboard-response","40","222627","0.0-1.0-48.0","0","0","45707","","null","","","null","5","NaN","","","","","","","","","","","","","","",""
"","S2","","html-keyboard-response","41","222880","0.0-1.0-49.0","0","0","45707","","null","","","null","5","","NaN","","","","","","","","","","","","","",""
"","response","","html-keyboard-response","42","222919","0.0-1.0-50.0-0.0","0","0","45707","","36","","","68","5","","","1","5","training","adjacent","GF","7","6","N.jpg","Q.jpg","0","0","1","",""
"","feedback","","html-keyboard-response","43","223925","0.0-1.0-51.0-0.0","0","0","45707","","null","","","null","5","","","","","","","","","","","","","","","",""
"","ITI","","html-keyboard-response","44","224929","0.0-1.0-54.0","0","0","45707","","null","","","null","5","","","","","","","","","","","","","","","NaN",""
"","S1","","html-keyboard-response","45","225183","0.0-1.0-56.0","0","0","45707","","null","","","null","6","","","","","","","","","","","","","","","",""
"","ISI","","html-keyboard-response","46","226191","0.0-1.0-57.0","0","0","45707","","null","","","null","6","NaN","","","","","","","","","","","","","","",""
"","S2","","html-keyboard-response","47","226444","0.0-1.0-58.0","0","0","45707","","null","","","null","6","","NaN","","","","","","","","","","","","","",""
"","response","","html-keyboard-response","48","226704","0.0-1.0-59.0-0.0","0","0","45707","","257","","","75","6","","","1","6","training","adjacent","DC","4","3","L.jpg","M.jpg","1","0","0","",""
"","feedback","","html-keyboard-response","49","227707","0.0-1.0-60.0-0.0","0","0","45707","","null","","","null","6","","","","","","","","","","","","","","","",""
"","time_out","","html-keyboard-response","50","229716","0.0-1.0-62.0-0.0","0","0","45707","","null","","","null","6","","","","","","","","","","","","","","","",""
"","ITI","","html-keyboard-response","51","230718","0.0-1.0-63.0","0","0","45707","","null","","","null","6","","","","","","","","","","","","","","","NaN",""
"","S1","","html-keyboard-response","52","230972","0.0-1.0-65.0","0","0","45707","","null","","","null","7","","","","","","","","","","","","","","","",""
"","ISI","","html-keyboard-response","53","231977","0.0-1.0-66.0","0","0","45707","","350","","","68","7","d","","","","","","","","","","","","","","",""
"","S2","","html-keyboard-response","54","232238","0.0-1.0-67.0","0","0","45707","","null","","","null","7","","NaN","","","","","","","","","","","","","",""
"","response","","html-keyboard-response","55","232305","0.0-1.0-68.0-0.0","0","0","45707","","64","","","68","7","","","1","7","training","adjacent","ED","5","4","O.jpg","L.jpg","0","0","1","",""
"","feedback","","html-keyboard-response","56","233308","0.0-1.0-69.0-0.0","0","0","45707","","null","","","null","7","","","","","","","","","","","","","","","",""
"","ITI","","html-keyboard-response","57","234319","0.0-1.0-72.0","0","0","45707","","null","","","null","7","","","","","","","","","","","","","","","NaN",""
"","S1","","html-keyboard-response","58","234580","0.0-1.0-74.0","0","0","45707","","null","","","null","8","","","","","","","","","","","","","","","",""
"","ISI","","html-keyboard-response","59","235585","0.0-1.0-75.0","0","0","45707","","null","","","null","8","NaN","","","","","","","","","","","","","","",""
"","S2","","html-keyboard-response","60","235840","0.0-1.0-76.0","0","0","45707","","null","","","null","8","","NaN","","","","","","","","","","","","","",""
"","response","","html-keyboard-response","61","236046","0.0-1.0-77.0-0.0","0","0","45707","","204","","","68","8","","","1","8","training","adjacent","BC","2","3","P.jpg","M.jpg","0","1","0","",""
"","feedback","","html-keyboard-response","62","237056","0.0-1.0-78.0-0.0","0","0","45707","","null","","","null","8","","","","","","","","","","","","","","","",""
"","time_out","","html-keyboard-response","63","239065","0.0-1.0-80.0-0.0","0","0","45707","","null","","","null","8","","","","","","","","","","","","","","","",""
"","ITI","","html-keyboard-response","64","240069","0.0-1.0-81.0","0","0","45707","","null","","","null","8","","","","","","","","","","","","","","","NaN",""
"","S1","","html-keyboard-response","65","240323","0.0-1.0-83.0","0","0","45707","","null","","","null","9","","","","","","","","","","","","","","","",""
"","ISI","","html-keyboard-response","66","241328","0.0-1.0-84.0","0","0","45707","","null","","","null","9","NaN","","","","","","","","","","","","","","",""
"","S2","","html-keyboard-response","67","241588","0.0-1.0-85.0","0","0","45707","","null","","","null","9","","NaN","","","","","","","","","","","","","",""
"","response","","html-keyboard-response","68","241689","0.0-1.0-86.0-0.0","0","0","45707","","97","","","75","9","","","1","9","training","adjacent","BA","2","1","P.jpg","R.jpg","1","0","0","",""
"","feedback","","html-keyboard-response","69","242694","0.0-1.0-87.0-0.0","0","0","45707","","null","","","null","9","","","","","","","","","","","","","","","",""
"","time_out","","html-keyboard-response","70","244697","0.0-1.0-89.0-0.0","0","0","45707","","null","","","null","9","","","","","","","","","","","","","","","",""
"","ITI","","html-keyboard-response","71","245707","0.0-1.0-90.0","0","0","45707","","null","","","null","9","","","","","","","","","","","","","","","NaN",""
"","S1","","html-keyboard-response","72","245969","0.0-1.0-92.0","0","0","45707","","null","","","null","10","","","","","","","","","","","","","","","",""
"","ISI","","html-keyboard-response","73","246973","0.0-1.0-93.0","0","0","45707","","null","","","null","10","NaN","","","","","","","","","","","","","","",""
"","S2","","html-keyboard-response","74","247236","0.0-1.0-94.0","0","0","45707","","null","","","null","10","","NaN","","","","","","","","","","","","","",""
"","response","","html-keyboard-response","75","247324","0.0-1.0-95.0-0.0","0","0","45707","","85","","","75","10","","","1","10","training","adjacent","FE","6","5","Q.jpg","O.jpg","1","0","0","",""
"","feedback","","html-keyboard-response","76","248330","0.0-1.0-96.0-0.0","0","0","45707","","null","","","null","10","","","","","","","","","","","","","","","",""
"","time_out","","html-keyboard-response","77","250342","0.0-1.0-98.0-0.0","0","0","45707","","null","","","null","10","","","","","","","","","","","","","","","",""
"","ITI","","html-keyboard-response","78","251352","0.0-1.0-99.0","0","0","45707","","null","","","null","10","","","","","","","","","","","","","","","NaN",""
"","S1","","html-keyboard-response","79","251606","0.0-1.0-101.0","0","0","45707","","null","","","null","11","","","","","","","","","","","","","","","",""
"","ISI","","html-keyboard-response","80","252614","0.0-1.0-102.0","0","0","45707","","null","","","null","11","NaN","","","","","","","","","","","","","","",""
"","S2","","html-keyboard-response","81","252874","0.0-1.0-103.0","0","0","45707","","null","","","null","11","","NaN","","","","","","","","","","","","","",""
"","response","","html-keyboard-response","82","253433","0.0-1.0-104.0-0.0","0","0","45707","","555","","","75","11","","","1","11","training","adjacent","CD","3","4","M.jpg","L.jpg","1","1","1","",""
"","feedback","","html-keyboard-response","83","254443","0.0-1.0-105.0-0.0","0","0","45707","","null","","","null","11","","","","","","","","","","","","","","","",""
"","ITI","","html-keyboard-response","84","255447","0.0-1.0-108.0","0","0","45707","","null","","","null","11","","","","","","","","","","","","","","","NaN",""
"","S1","","html-keyboard-response","85","255708","0.0-1.0-110.0","0","0","45707","","null","","","null","12","","","","","","","","","","","","","","","",""
"","ISI","","html-keyboard-response","86","256716","0.0-1.0-111.0","0","0","45707","","null","","","null","12","NaN","","","","","","","","","","","","","","",""
"","S2","","html-keyboard-response","87","256977","0.0-1.0-112.0","0","0","45707","","null","","","null","12","","NaN","","","","","","","","","","","","","",""
"","response","","html-keyboard-response","88","257414","0.0-1.0-113.0-0.0","0","0","45707","","433","","","68","12","","","1","12","training","adjacent","ED","5","4","O.jpg","L.jpg","0","0","1","",""
"","feedback","","html-keyboard-response","89","258421","0.0-1.0-114.0-0.0","0","0","45707","","null","","","null","12","","","","","","","","","","","","","","","",""
"","ITI","","html-keyboard-response","90","259427","0.0-1.0-117.0","0","0","45707","","null","","","null","12","","","","","","","","","","","","","","","NaN",""
"","S1","","html-keyboard-response","91","259686","0.0-1.0-119.0","0","0","45707","","null","","","null","13","","","","","","","","","","","","","","","",""
"","ISI","","html-keyboard-response","92","260692","0.0-1.0-120.0","0","0","45707","","null","","","null","13","NaN","","","","","","","","","","","","","","",""
"","S2","","html-keyboard-response","93","260947","0.0-1.0-121.0","0","0","45707","","null","","","null","13","","NaN","","","","","","","","","","","","","",""
"","response","","html-keyboard-response","94","261260","0.0-1.0-122.0-0.0","0","0","45707","","312","","","75","13","","","1","13","training","adjacent","BC","2","3","P.jpg","M.jpg","1","1","1","",""
"","feedback","","html-keyboard-response","95","262268","0.0-1.0-123.0-0.0","0","0","45707","","null","","","null","13","","","","","","","","","","","","","","","",""
"","ITI","","html-keyboard-response","96","263272","0.0-1.0-126.0","0","0","45707","","null","","","null","13","","","","","","","","","","","","","","","NaN",""
"","S1","","html-keyboard-response","97","263525","0.0-1.0-128.0","0","0","45707","","null","","","null","14","","","","","","","","","","","","","","","",""
"","ISI","","html-keyboard-response","98","264536","0.0-1.0-129.0","0","0","45707","","null","","","null","14","NaN","","","","","","","","","","","","","","",""
"","S2","","html-keyboard-response","99","264789","0.0-1.0-130.0","0","0","45707","","null","","","null","14","","NaN","","","","","","","","","","","","","",""
"","response","","html-keyboard-response","100","265464","0.0-1.0-131.0-0.0","0","0","45707","","672","","","68","14","","","1","14","training","adjacent","EF","5","6","O.jpg","Q.jpg","0","1","0","",""
"","feedback","","html-keyboard-response","101","266470","0.0-1.0-132.0-0.0","0","0","45707","","null","","","null","14","","","","","","","","","","","","","","","",""
"","time_out","","html-keyboard-response","102","268479","0.0-1.0-134.0-0.0","0","0","45707","","null","","","null","14","","","","","","","","","","","","","","","",""
"","ITI","","html-keyboard-response","103","269489","0.0-1.0-135.0","0","0","45707","","null","","","null","14","","","","","","","","","","","","","","","NaN",""
"","S1","","html-keyboard-response","104","269750","0.0-1.0-137.0","0","0","45707","","null","","","null","15","","","","","","","","","","","","","","","",""
"","ISI","","html-keyboard-response","105","270753","0.0-1.0-138.0","0","0","45707","","null","","","null","15","NaN","","","","","","","","","","","","","","",""
"","S2","","html-keyboard-response","106","271014","0.0-1.0-139.0","0","0","45707","","null","","","null","15","","NaN","","","","","","","","","","","","","",""
"","response","","html-keyboard-response","107","271066","0.0-1.0-140.0-0.0","0","0","45707","","49","","","75","15","","","1","15","training","adjacent","EF","5","6","O.jpg","Q.jpg","1","1","1","",""
"","feedback","","html-keyboard-response","108","272075","0.0-1.0-141.0-0.0","0","0","45707","","null","","","null","15","","","","","","","","","","","","","","","",""
"","ITI","","html-keyboard-response","109","273081","0.0-1.0-144.0","0","0","45707","","null","","","null","15","","","","","","","","","","","","","","","NaN",""
"","S1","","html-keyboard-response","110","273341","0.0-1.0-146.0","0","0","45707","","null","","","null","16","","","","","","","","","","","","","","","",""
"","ISI","","html-keyboard-response","111","274347","0.0-1.0-147.0","0","0","45707","","null","","","null","16","NaN","","","","","","","","","","","","","","",""
"","S2","","html-keyboard-response","112","274609","0.0-1.0-148.0","0","0","45707","","null","","","null","16","","NaN","","","","","","","","","","","","","",""
"","response","","html-keyboard-response","113","275275","0.0-1.0-149.0-0.0","0","0","45707","","663","","","68","16","","","1","16","training","adjacent","DC","4","3","L.jpg","M.jpg","0","0","1","",""
"","feedback","","html-keyboard-response","114","276279","0.0-1.0-150.0-0.0","0","0","45707","","null","","","null","16","","","","","","","","","","","","","","","",""
"","ITI","","html-keyboard-response","115","277289","0.0-1.0-153.0","0","0","45707","","null","","","null","16","","","","","","","","","","","","","","","NaN",""
"","S1","","html-keyboard-response","116","277543","0.0-1.0-155.0","0","0","45707","","null","","","null","17","","","","","","","","","","","","","","","",""
"","ISI","","html-keyboard-response","117","278548","0.0-1.0-156.0","0","0","45707","","null","","","null","17","NaN","","","","","","","","","","","","","","",""
"","S2","","html-keyboard-response","118","278809","0.0-1.0-157.0","0","0","45707","","null","","","null","17","","NaN","","","","","","","","","","","","","",""
"","response","","html-keyboard-response","119","279277","0.0-1.0-158.0-0.0","0","0","45707","","465","","","68","17","","","1","17","training","adjacent","EF","5","6","O.jpg","Q.jpg","0","1","0","",""
"","feedback","","html-keyboard-response","120","280290","0.0-1.0-159.0-0.0","0","0","45707","","null","","","null","17","","","","","","","","","","","","","","","",""
"","time_out","","html-keyboard-response","121","282297","0.0-1.0-161.0-0.0","0","0","45707","","null","","","null","17","","","","","","","","","","","","","","","",""
"","ITI","","html-keyboard-response","122","283306","0.0-1.0-162.0","0","0","45707","","null","","","null","17","","","","","","","","","","","","","","","NaN",""
"","S1","","html-keyboard-response","123","283558","0.0-1.0-164.0","0","0","45707","","null","","","null","18","","","","","","","","","","","","","","","",""
"","ISI","","html-keyboard-response","124","284563","0.0-1.0-165.0","0","0","45707","","null","","","null","18","NaN","","","","","","","","","","","","","","",""
"","S2","","html-keyboard-response","125","284824","0.0-1.0-166.0","0","0","45707","","null","","","null","18","","NaN","","","","","","","","","","","","","",""
"","response","","html-keyboard-response","126","285335","0.0-1.0-167.0-0.0","0","0","45707","","508","","","68","18","","","1","18","training","adjacent","AB","1","2","R.jpg","P.jpg","0","1","0","",""
"","feedback","","html-keyboard-response","127","286344","0.0-1.0-168.0-0.0","0","0","45707","","null","","","null","18","","","","","","","","","","","","","","","",""
"","time_out","","html-keyboard-response","128","288354","0.0-1.0-170.0-0.0","0","0","45707","","null","","","null","18","","","","","","","","","","","","","","","",""
"","ITI","","html-keyboard-response","129","289364","0.0-1.0-171.0","0","0","45707","","null","","","null","18","","","","","","","","","","","","","","","NaN",""
"","S1","","html-keyboard-response","130","289618","0.0-1.0-173.0","0","0","45707","","null","","","null","19","","","","","","","","","","","","","","","",""
"","ISI","","html-keyboard-response","131","290627","0.0-1.0-174.0","0","0","45707","","null","","","null","19","NaN","","","","","","","","","","","","","","",""
"","S2","","html-keyboard-response","132","290888","0.0-1.0-175.0","0","0","45707","","null","","","null","19","","NaN","","","","","","","","","","","","","",""
"","response","","html-keyboard-response","133","291669","0.0-1.0-176.0-0.0","0","0","45707","","779","","","75","19","","","1","19","training","adjacent","GF","7","6","N.jpg","Q.jpg","1","0","0","",""
"","feedback","","html-keyboard-response","134","292673","0.0-1.0-177.0-0.0","0","0","45707","","null","","","null","19","","","","","","","","","","","","","","","",""
"","time_out","","html-keyboard-response","135","294683","0.0-1.0-179.0-0.0","0","0","45707","","null","","","null","19","","","","","","","","","","","","","","","",""
"","ITI","","html-keyboard-response","136","295689","0.0-1.0-180.0","0","0","45707","","null","","","null","19","","","","","","","","","","","","","","","NaN",""
"","S1","","html-keyboard-response","137","295950","0.0-1.0-182.0","0","0","45707","","null","","","null","20","","","","","","","","","","","","","","","",""
"","ISI","","html-keyboard-response","138","296960","0.0-1.0-183.0","0","0","45707","","null","","","null","20","NaN","","","","","","","","","","","","","","",""
"","S2","","html-keyboard-response","139","297213","0.0-1.0-184.0","0","0","45707","","null","","","null","20","","NaN","","","","","","","","","","","","","",""
"","response","","html-keyboard-response","140","297455","0.0-1.0-185.0-0.0","0","0","45707","","240","","","68","20","","","1","20","training","adjacent","CB","3","2","M.jpg","P.jpg","0","0","1","",""
"","feedback","","html-keyboard-response","141","298461","0.0-1.0-186.0-0.0","0","0","45707","","null","","","null","20","","","","","","","","","","","","","","","",""
"","ITI","","html-keyboard-response","142","299465","0.0-1.0-189.0","0","0","45707","","null","","","null","20","","","","","","","","","","","","","","","NaN",""
"","S1","","html-keyboard-response","143","299734","0.0-1.0-191.0","0","0","45707","","null","","","null","21","","","","","","","","","","","","","","","",""
"","ISI","","html-keyboard-response","144","300740","0.0-1.0-192.0","0","0","45707","","null","","","null","21","NaN","","","","","","","","","","","","","","",""
"","S2","","html-keyboard-response","145","301001","0.0-1.0-193.0","0","0","45707","","null","","","null","21","","NaN","","","","","","","","","","","","","",""
"","response","","html-keyboard-response","146","302549","0.0-1.0-194.0-0.0","0","0","45707","","1545","","","75","21","","","1","21","training","adjacent","CB","3","2","M.jpg","P.jpg","1","0","0","",""
"","feedback","","html-keyboard-response","147","303557","0.0-1.0-195.0-0.0","0","0","45707","","null","","","null","21","","","","","","","","","","","","","","","",""
"","time_out","","html-keyboard-response","148","305565","0.0-1.0-197.0-0.0","0","0","45707","","null","","","null","21","","","","","","","","","","","","","","","",""
"","ITI","","html-keyboard-response","149","306577","0.0-1.0-198.0","0","0","45707","","null","","","null","21","","","","","","","","","","","","","","","NaN",""
"","S1","","html-keyboard-response","150","306830","0.0-1.0-200.0","0","0","45707","","null","","","null","22","","","","","","","","","","","","","","","",""
"","ISI","","html-keyboard-response","151","307840","0.0-1.0-201.0","0","0","45707","","723","","","75","22","k","","","","","","","","","","","","","","",""
"","S2","","html-keyboard-response","152","308101","0.0-1.0-202.0","0","0","45707","","null","","","null","22","","NaN","","","","","","","","","","","","","",""
"","response","","html-keyboard-response","153","308820","0.0-1.0-203.0-0.0","0","0","45707","","718","","","75","22","","","1","22","training","adjacent","DE","4","5","L.jpg","O.jpg","1","1","1","",""
"","feedback","","html-keyboard-response","154","309826","0.0-1.0-204.0-0.0","0","0","45707","","null","","","null","22","","","","","","","","","","","","","","","",""
"","ITI","","html-keyboard-response","155","310834","0.0-1.0-207.0","0","0","45707","","null","","","null","22","","","","","","","","","","","","","","","NaN",""
"","S1","","html-keyboard-response","156","311087","0.0-1.0-209.0","0","0","45707","","null","","","null","23","","","","","","","","","","","","","","","",""
"","ISI","","html-keyboard-response","157","312097","0.0-1.0-210.0","0","0","45707","","null","","","null","23","NaN","","","","","","","","","","","","","","",""
"","S2","","html-keyboard-response","158","312358","0.0-1.0-211.0","0","0","45707","","null","","","null","23","","NaN","","","","","","","","","","","","","",""
"","response","","html-keyboard-response","159","313591","0.0-1.0-212.0-0.0","0","0","45707","","1232","","","68","23","","","1","23","training","adjacent","CB","3","2","M.jpg","P.jpg","0","0","1","",""
"","feedback","","html-keyboard-response","160","314602","0.0-1.0-213.0-0.0","0","0","45707","","null","","","null","23","","","","","","","","","","","","","","","",""
"","ITI","","html-keyboard-response","161","315612","0.0-1.0-216.0","0","0","45707","","null","","","null","23","","","","","","","","","","","","","","","NaN",""
"","S1","","html-keyboard-response","162","315880","0.0-1.0-218.0","0","0","45707","","null","","","null","24","","","","","","","","","","","","","","","",""
"","ISI","","html-keyboard-response","163","316884","0.0-1.0-219.0","0","0","45707","","null","","","null","24","NaN","","","","","","","","","","","","","","",""
"","S2","","html-keyboard-response","164","317145","0.0-1.0-220.0","0","0","45707","","null","","","null","24","","NaN","","","","","","","","","","","","","",""
"","response","","html-keyboard-response","165","317943","0.0-1.0-221.0-0.0","0","0","45707","","796","","","75","24","","","1","24","training","adjacent","BA","2","1","P.jpg","R.jpg","1","0","0","",""
"","feedback","","html-keyboard-response","166","318947","0.0-1.0-222.0-0.0","0","0","45707","","null","","","null","24","","","","","","","","","","","","","","","",""
"","time_out","","html-keyboard-response","167","320954","0.0-1.0-224.0-0.0","0","0","45707","","null","","","null","24","","","","","","","","","","","","","","","",""
"","ITI","","html-keyboard-response","168","321962","0.0-1.0-225.0","0","0","45707","","null","","","null","24","","","","","","","","","","","","","","","NaN",""
"","S1","","html-keyboard-response","169","322223","0.0-1.0-227.0","0","0","45707","","null","","","null","25","","","","","","","","","","","","","","","",""
"","ISI","","html-keyboard-response","170","323232","0.0-1.0-228.0","0","0","45707","","null","","","null","25","NaN","","","","","","","","","","","","","","",""
"","S2","","html-keyboard-response","171","323491","0.0-1.0-229.0","0","0","45707","","null","","","null","25","","NaN","","","","","","","","","","","","","",""
"","response","","html-keyboard-response","172","323841","0.0-1.0-230.0-0.0","0","0","45707","","347","","","68","25","","","1","25","training","adjacent","DE","4","5","L.jpg","O.jpg","0","1","0","",""
"","feedback","","html-keyboard-response","173","324851","0.0-1.0-231.0-0.0","0","0","45707","","null","","","null","25","","","","","","","","","","","","","","","",""
"","time_out","","html-keyboard-response","174","326857","0.0-1.0-233.0-0.0","0","0","45707","","null","","","null","25","","","","","","","","","","","","","","","",""
"","ITI","","html-keyboard-response","175","327869","0.0-1.0-234.0","0","0","45707","","null","","","null","25","","","","","","","","","","","","","","","NaN",""
"","S1","","html-keyboard-response","176","328128","0.0-1.0-236.0","0","0","45707","","null","","","null","26","","","","","","","","","","","","","","","",""
"","ISI","","html-keyboard-response","177","329130","0.0-1.0-237.0","0","0","45707","","null","","","null","26","NaN","","","","","","","","","","","","","","",""
"","S2","","html-keyboard-response","178","329385","0.0-1.0-238.0","0","0","45707","","null","","","null","26","","NaN","","","","","","","","","","","","","",""
"","response","","html-keyboard-response","179","329850","0.0-1.0-239.0-0.0","0","0","45707","","462","","","75","26","","","1","26","training","adjacent","CD","3","4","M.jpg","L.jpg","1","1","1","",""
"","feedback","","html-keyboard-response","180","330862","0.0-1.0-240.0-0.0","0","0","45707","","null","","","null","26","","","","","","","","","","","","","","","",""
"","ITI","","html-keyboard-response","181","331870","0.0-1.0-243.0","0","0","45707","","null","","","null","26","","","","","","","","","","","","","","","NaN",""
"","S1","","html-keyboard-response","182","332131","0.0-1.0-245.0","0","0","45707","","null","","","null","27","","","","","","","","","","","","","","","",""
"","ISI","","html-keyboard-response","183","333139","0.0-1.0-246.0","0","0","45707","","null","","","null","27","NaN","","","","","","","","","","","","","","",""
"","S2","","html-keyboard-response","184","333404","0.0-1.0-247.0","0","0","45707","","null","","","null","27","","NaN","","","","","","","","","","","","","",""
"","response","","html-keyboard-response","185","333943","0.0-1.0-248.0-0.0","0","0","45707","","536","","","75","27","","","1","27","training","adjacent","DC","4","3","L.jpg","M.jpg","1","0","0","",""
"","feedback","","html-keyboard-response","186","334954","0.0-1.0-249.0-0.0","0","0","45707","","null","","","null","27","","","","","","","","","","","","","","","",""
"","time_out","","html-keyboard-response","187","336964","0.0-1.0-251.0-0.0","0","0","45707","","null","","","null","27","","","","","","","","","","","","","","","",""
"","ITI","","html-keyboard-response","188","337973","0.0-1.0-252.0","0","0","45707","","null","","","null","27","","","","","","","","","","","","","","","NaN",""
"","S1","","html-keyboard-response","189","338232","0.0-1.0-254.0","0","0","45707","","null","","","null","28","","","","","","","","","","","","","","","",""
"","ISI","","html-keyboard-response","190","339242","0.0-1.0-255.0","0","0","45707","","null","","","null","28","NaN","","","","","","","","","","","","","","",""
"","S2","","html-keyboard-response","191","339496","0.0-1.0-256.0","0","0","45707","","null","","","null","28","","NaN","","","","","","","","","","","","","",""
"","response","","html-keyboard-response","192","339799","0.0-1.0-257.0-0.0","0","0","45707","","300","","","75","28","","","1","28","training","adjacent","BC","2","3","P.jpg","M.jpg","1","1","1","",""
"","feedback","","html-keyboard-response","193","340811","0.0-1.0-258.0-0.0","0","0","45707","","null","","","null","28","","","","","","","","","","","","","","","",""
"","ITI","","html-keyboard-response","194","341817","0.0-1.0-261.0","0","0","45707","","null","","","null","28","","","","","","","","","","","","","","","NaN",""
"","S1","","html-keyboard-response","195","342072","0.0-1.0-263.0","0","0","45707","","null","","","null","29","","","","","","","","","","","","","","","",""
"","ISI","","html-keyboard-response","196","343075","0.0-1.0-264.0","0","0","45707","","null","","","null","29","NaN","","","","","","","","","","","","","","",""
"","S2","","html-keyboard-response","197","343336","0.0-1.0-265.0","0","0","45707","","null","","","null","29","","NaN","","","","","","","","","","","","","",""
"","response","","html-keyboard-response","198","343641","0.0-1.0-266.0-0.0","0","0","45707","","302","","","68","29","","","1","29","training","adjacent","FG","6","7","Q.jpg","N.jpg","0","1","0","",""
"","feedback","","html-keyboard-response","199","344651","0.0-1.0-267.0-0.0","0","0","45707","","null","","","null","29","","","","","","","","","","","","","","","",""
"","time_out","","html-keyboard-response","200","346658","0.0-1.0-269.0-0.0","0","0","45707","","null","","","null","29","","","","","","","","","","","","","","","",""
"","ITI","","html-keyboard-response","201","347664","0.0-1.0-270.0","0","0","45707","","null","","","null","29","","","","","","","","","","","","","","","NaN",""
"","S1","","html-keyboard-response","202","347917","0.0-1.0-272.0","0","0","45707","","null","","","null","30","","","","","","","","","","","","","","","",""
"","ISI","","html-keyboard-response","203","348922","0.0-1.0-273.0","0","0","45707","","null","","","null","30","NaN","","","","","","","","","","","","","","",""
"","S2","","html-keyboard-response","204","349182","0.0-1.0-274.0","0","0","45707","","null","","","null","30","","NaN","","","","","","","","","","","","","",""
"","response","","html-keyboard-response","205","349471","0.0-1.0-275.0-0.0","0","0","45707","","286","","","75","30","","","1","30","training","adjacent","GF","7","6","N.jpg","Q.jpg","1","0","0","",""
"","feedback","","html-keyboard-response","206","350481","0.0-1.0-276.0-0.0","0","0","45707","","null","","","null","30","","","","","","","","","","","","","","","",""
"","time_out","","html-keyboard-response","207","352488","0.0-1.0-278.0-0.0","0","0","45707","","null","","","null","30","","","","","","","","","","","","","","","",""
"","ITI","","html-keyboard-response","208","353493","0.0-1.0-279.0","0","0","45707","","null","","","null","30","","","","","","","","","","","","","","","NaN",""
"","S1","","html-keyboard-response","209","353746","0.0-1.0-281.0","0","0","45707","","null","","","null","31","","","","","","","","","","","","","","","",""
"","ISI","","html-keyboard-response","210","354752","0.0-1.0-282.0","0","0","45707","","null","","","null","31","NaN","","","","","","","","","","","","","","",""
"","S2","","html-keyboard-response","211","355022","0.0-1.0-283.0","0","0","45707","","null","","","null","31","","NaN","","","","","","","","","","","","","",""
"","response","","html-keyboard-response","212","355978","0.0-1.0-284.0-0.0","0","0","45707","","954","","","68","31","","","1","31","training","adjacent","CD","3","4","M.jpg","L.jpg","0","1","0","",""
"","feedback","","html-keyboard-response","213","356988","0.0-1.0-285.0-0.0","0","0","45707","","null","","","null","31","","","","","","","","","","","","","","","",""
"","time_out","","html-keyboard-response","214","358998","0.0-1.0-287.0-0.0","0","0","45707","","null","","","null","31","","","","","","","","","","","","","","","",""
"","ITI","","html-keyboard-response","215","360002","0.0-1.0-288.0","0","0","45707","","null","","","null","31","","","","","","","","","","","","","","","NaN",""
"","S1","","html-keyboard-response","216","360263","0.0-1.0-290.0","0","0","45707","","null","","","null","32","","","","","","","","","","","","","","","",""
"","ISI","","html-keyboard-response","217","361275","0.0-1.0-291.0","0","0","45707","","null","","","null","32","NaN","","","","","","","","","","","","","","",""
"","S2","","html-keyboard-response","218","361536","0.0-1.0-292.0","0","0","45707","","null","","","null","32","","NaN","","","","","","","","","","","","","",""
"","response","","html-keyboard-response","219","362506","0.0-1.0-293.0-0.0","0","0","45707","","969","","","68","32","","","1","32","training","adjacent","BC","2","3","P.jpg","M.jpg","0","1","0","",""
"","feedback","","html-keyboard-response","220","363513","0.0-1.0-294.0-0.0","0","0","45707","","null","","","null","32","","","","","","","","","","","","","","","",""
"","time_out","","html-keyboard-response","221","365523","0.0-1.0-296.0-0.0","0","0","45707","","null","","","null","32","","","","","","","","","","","","","","","",""
"","ITI","","html-keyboard-response","222","366528","0.0-1.0-297.0","0","0","45707","","null","","","null","32","","","","","","","","","","","","","","","NaN",""
"","S1","","html-keyboard-response","223","366784","0.0-1.0-299.0","0","0","45707","","null","","","null","33","","","","","","","","","","","","","","","",""
"","ISI","","html-keyboard-response","224","367787","0.0-1.0-300.0","0","0","45707","","null","","","null","33","NaN","","","","","","","","","","","","","","",""
"","S2","","html-keyboard-response","225","368048","0.0-1.0-301.0","0","0","45707","","null","","","null","33","","NaN","","","","","","","","","","","","","",""
"","response","","html-keyboard-response","226","368561","0.0-1.0-302.0-0.0","0","0","45707","","510","","","75","33","","","1","33","training","adjacent","AB","1","2","R.jpg","P.jpg","1","1","1","",""
"","feedback","","html-keyboard-response","227","369573","0.0-1.0-303.0-0.0","0","0","45707","","null","","","null","33","","","","","","","","","","","","","","","",""
"","ITI","","html-keyboard-response","228","370582","0.0-1.0-306.0","0","0","45707","","null","","","null","33","","","","","","","","","","","","","","","NaN",""
"","S1","","html-keyboard-response","229","370841","0.0-1.0-308.0","0","0","45707","","null","","","null","34","","","","","","","","","","","","","","","",""
"","ISI","","html-keyboard-response","230","371852","0.0-1.0-309.0","0","0","45707","","null","","","null","34","NaN","","","","","","","","","","","","","","",""
"","S2","","html-keyboard-response","231","372105","0.0-1.0-310.0","0","0","45707","","null","","","null","34","","NaN","","","","","","","","","","","","","",""
"","response","","html-keyboard-response","232","372679","0.0-1.0-311.0-0.0","0","0","45707","","571","","","75","34","","","1","34","training","adjacent","FG","6","7","Q.jpg","N.jpg","1","1","1","",""
"","feedback","","html-keyboard-response","233","373698","0.0-1.0-312.0-0.0","0","0","45707","","null","","","null","34","","","","","","","","","","","","","","","",""
"","ITI","","html-keyboard-response","234","374708","0.0-1.0-315.0","0","0","45707","","null","","","null","34","","","","","","","","","","","","","","","NaN",""
"","S1","","html-keyboard-response","235","374963","0.0-1.0-317.0","0","0","45707","","null","","","null","35","","","","","","","","","","","","","","","",""
"","ISI","","html-keyboard-response","236","375974","0.0-1.0-318.0","0","0","45707","","null","","","null","35","NaN","","","","","","","","","","","","","","",""
"","S2","","html-keyboard-response","237","376234","0.0-1.0-319.0","0","0","45707","","null","","","null","35","","NaN","","","","","","","","","","","","","",""
"","response","","html-keyboard-response","238","376492","0.0-1.0-320.0-0.0","0","0","45707","","254","","","75","35","","","1","35","training","adjacent","FG","6","7","Q.jpg","N.jpg","1","1","1","",""
"","feedback","","html-keyboard-response","239","377501","0.0-1.0-321.0-0.0","0","0","45707","","null","","","null","35","","","","","","","","","","","","","","","",""
"","ITI","","html-keyboard-response","240","378505","0.0-1.0-324.0","0","0","45707","","null","","","null","35","","","","","","","","","","","","","","","NaN",""
"","S1","","html-keyboard-response","241","378758","0.0-1.0-326.0","0","0","45707","","null","","","null","36","","","","","","","","","","","","","","","",""
"","ISI","","html-keyboard-response","242","379763","0.0-1.0-327.0","0","0","45707","","null","","","null","36","NaN","","","","","","","","","","","","","","",""
"","S2","","html-keyboard-response","243","380024","0.0-1.0-328.0","0","0","45707","","null","","","null","36","","NaN","","","","","","","","","","","","","",""
"","response","","html-keyboard-response","244","380262","0.0-1.0-329.0-0.0","0","0","45707","","236","","","75","36","","","1","36","training","adjacent","BA","2","1","P.jpg","R.jpg","1","0","0","",""
"","feedback","","html-keyboard-response","245","381269","0.0-1.0-330.0-0.0","0","0","45707","","null","","","null","36","","","","","","","","","","","","","","","",""
"","time_out","","html-keyboard-response","246","383272","0.0-1.0-332.0-0.0","0","0","45707","","null","","","null","36","","","","","","","","","","","","","","","",""
"","ITI","","html-keyboard-response","247","384277","0.0-1.0-333.0","0","0","45707","","null","","","null","36","","","","","","","","","","","","","","","NaN",""
"","S1","","html-keyboard-response","248","384537","0.0-1.0-335.0","0","0","45707","","null","","","null","37","","","","","","","","","","","","","","","",""
"","ISI","","html-keyboard-response","249","385547","0.0-1.0-336.0","0","0","45707","","null","","","null","37","NaN","","","","","","","","","","","","","","",""
"","S2","","html-keyboard-response","250","385800","0.0-1.0-337.0","0","0","45707","","null","","","null","37","","NaN","","","","","","","","","","","","","",""
"","response","","html-keyboard-response","251","386146","0.0-1.0-338.0-0.0","0","0","45707","","343","","","68","37","","","1","37","training","adjacent","AB","1","2","R.jpg","P.jpg","0","1","0","",""
"","feedback","","html-keyboard-response","252","387152","0.0-1.0-339.0-0.0","0","0","45707","","null","","","null","37","","","","","","","","","","","","","","","",""
"","time_out","","html-keyboard-response","253","389156","0.0-1.0-341.0-0.0","0","0","45707","","null","","","null","37","","","","","","","","","","","","","","","",""
"","ITI","","html-keyboard-response","254","390161","0.0-1.0-342.0","0","0","45707","","null","","","null","37","","","","","","","","","","","","","","","NaN",""
"","S1","","html-keyboard-response","255","390414","0.0-1.0-344.0","0","0","45707","","null","","","null","38","","","","","","","","","","","","","","","",""
"","ISI","","html-keyboard-response","256","391418","0.0-1.0-345.0","0","0","45707","","451","","","68","38","d","","","","","","","","","","","","","","",""
"","S2","","html-keyboard-response","257","391679","0.0-1.0-346.0","0","0","45707","","null","","","null","38","","NaN","","","","","","","","","","","","","",""
"","response","","html-keyboard-response","258","392137","0.0-1.0-347.0-0.0","0","0","45707","","455","","","68","38","","","1","38","training","adjacent","ED","5","4","O.jpg","L.jpg","0","0","1","",""
"","feedback","","html-keyboard-response","259","393151","0.0-1.0-348.0-0.0","0","0","45707","","null","","","null","38","","","","","","","","","","","","","","","",""
"","ITI","","html-keyboard-response","260","394160","0.0-1.0-351.0","0","0","45707","","null","","","null","38","","","","","","","","","","","","","","","NaN",""
"","S1","","html-keyboard-response","261","394420","0.0-1.0-353.0","0","0","45707","","null","","","null","39","","","","","","","","","","","","","","","",""
"","ISI","","html-keyboard-response","262","395438","0.0-1.0-354.0","0","0","45707","","null","","","null","39","NaN","","","","","","","","","","","","","","",""
"","S2","","html-keyboard-response","263","395692","0.0-1.0-355.0","0","0","45707","","null","","","null","39","","NaN","","","","","","","","","","","","","",""
"","response","","html-keyboard-response","264","397451","0.0-1.0-356.0-0.0","0","0","45707","","null","","","null","39","","","1","39","training","adjacent","DC","4","3","L.jpg","M.jpg","NaN","0","0","",""
"","too_slow_prompt","","html-keyboard-response","265","398462","0.0-1.0-358.0-0.0","1","0","45707","","null","","","null","","","","","","","","","","","","","","","","",""
"","time_out","","html-keyboard-response","266","400468","0.0-1.0-359.0-0.0","0","0","45707","","null","","","null","39","","","","","","","","","","","","","","","",""
"","ITI","","html-keyboard-response","267","401482","0.0-1.0-360.0","0","0","45707","","null","","","null","39","","","","","","","","","","","","","","","NaN",""
"","S1","","html-keyboard-response","268","401737","0.0-1.0-362.0","0","0","45707","","null","","","null","40","","","","","","","","","","","","","","","",""
"","ISI","","html-keyboard-response","269","402742","0.0-1.0-363.0","0","0","45707","","null","","","null","40","NaN","","","","","","","","","","","","","","",""
"","S2","","html-keyboard-response","270","403002","0.0-1.0-364.0","0","0","45707","","null","","","null","40","","NaN","","","","","","","","","","","","","",""
"","response","","html-keyboard-response","271","403489","0.0-1.0-365.0-0.0","0","0","45707","","485","","","68","40","","","1","40","training","adjacent","FE","6","5","Q.jpg","O.jpg","0","0","1","",""
"","feedback","","html-keyboard-response","272","404492","0.0-1.0-366.0-0.0","0","0","45707","","null","","","null","40","","","","","","","","","","","","","","","",""
"","ITI","","html-keyboard-response","273","405503","0.0-1.0-369.0","0","0","45707","","null","","","null","40","","","","","","","","","","","","","","","NaN",""
"","S1","","html-keyboard-response","274","405772","0.0-1.0-371.0","0","0","45707","","null","","","null","41","","","","","","","","","","","","","","","",""
"","ISI","","html-keyboard-response","275","406782","0.0-1.0-372.0","0","0","45707","","null","","","null","41","NaN","","","","","","","","","","","","","","",""
"","S2","","html-keyboard-response","276","407042","0.0-1.0-373.0","0","0","45707","","null","","","null","41","","NaN","","","","","","","","","","","","","",""
"","response","","html-keyboard-response","277","407367","0.0-1.0-374.0-0.0","0","0","45707","","322","","","75","41","","","1","41","training","adjacent","BA","2","1","P.jpg","R.jpg","1","0","0","",""
"","feedback","","html-keyboard-response","278","408372","0.0-1.0-375.0-0.0","0","0","45707","","null","","","null","41","","","","","","","","","","","","","","","",""
"","time_out","","html-keyboard-response","279","410389","0.0-1.0-377.0-0.0","0","0","45707","","null","","","null","41","","","","","","","","","","","","","","","",""
"","ITI","","html-keyboard-response","280","411393","0.0-1.0-378.0","0","0","45707","","null","","","null","41","","","","","","","","","","","","","","","NaN",""
"","S1","","html-keyboard-response","281","411653","0.0-1.0-380.0","0","0","45707","","null","","","null","42","","","","","","","","","","","","","","","",""
"","ISI","","html-keyboard-response","282","412657","0.0-1.0-381.0","0","0","45707","","null","","","null","42","NaN","","","","","","","","","","","","","","",""
"","S2","","html-keyboard-response","283","412912","0.0-1.0-382.0","0","0","45707","","null","","","null","42","","NaN","","","","","","","","","","","","","",""
"","response","","html-keyboard-response","284","412990","0.0-1.0-383.0-0.0","0","0","45707","","75","","","75","42","","","1","42","training","adjacent","CB","3","2","M.jpg","P.jpg","1","0","0","",""
"","feedback","","html-keyboard-response","285","414001","0.0-1.0-384.0-0.0","0","0","45707","","null","","","null","42","","","","","","","","","","","","","","","",""
"","time_out","","html-keyboard-response","286","416009","0.0-1.0-386.0-0.0","0","0","45707","","null","","","null","42","","","","","","","","","","","","","","","",""
"","ITI","","html-keyboard-response","287","417017","0.0-1.0-387.0","0","0","45707","","null","","","null","42","","","","","","","","","","","","","","","NaN",""
"","S1","","html-keyboard-response","288","417271","0.0-1.0-389.0","0","0","45707","","null","","","null","43","","","","","","","","","","","","","","","",""
"","ISI","","html-keyboard-response","289","418282","0.0-1.0-390.0","0","0","45707","","null","","","null","43","NaN","","","","","","","","","","","","","","",""
"","S2","","html-keyboard-response","290","418542","0.0-1.0-391.0","0","0","45707","","null","","","null","43","","NaN","","","","","","","","","","","","","",""
"","response","","html-keyboard-response","291","419067","0.0-1.0-392.0-0.0","0","0","45707","","523","","","75","43","","","1","43","training","adjacent","FE","6","5","Q.jpg","O.jpg","1","0","0","",""
"","feedback","","html-keyboard-response","292","420085","0.0-1.0-393.0-0.0","0","0","45707","","null","","","null","43","","","","","","","","","","","","","","","",""
"","time_out","","html-keyboard-response","293","422092","0.0-1.0-395.0-0.0","0","0","45707","","null","","","null","43","","","","","","","","","","","","","","","",""
"","ITI","","html-keyboard-response","294","423100","0.0-1.0-396.0","0","0","45707","","null","","","null","43","","","","","","","","","","","","","","","NaN",""
"","S1","","html-keyboard-response","295","423358","0.0-1.0-398.0","0","0","45707","","null","","","null","44","","","","","","","","","","","","","","","",""
"","ISI","","html-keyboard-response","296","424369","0.0-1.0-399.0","0","0","45707","","923","","","68","44","d","","","","","","","","","","","","","","",""
"","S2","","html-keyboard-response","297","424622","0.0-1.0-400.0","0","0","45707","","null","","","null","44","","NaN","","","","","","","","","","","","","",""
"","response","","html-keyboard-response","298","425135","0.0-1.0-401.0-0.0","0","0","45707","","511","","","68","44","","","1","44","training","adjacent","GF","7","6","N.jpg","Q.jpg","0","0","1","",""
"","feedback","","html-keyboard-response","299","426152","0.0-1.0-402.0-0.0","0","0","45707","","null","","","null","44","","","","","","","","","","","","","","","",""
"","ITI","","html-keyboard-response","300","427161","0.0-1.0-405.0","0","0","45707","","null","","","null","44","","","","","","","","","","","","","","","NaN",""
"","S1","","html-keyboard-response","301","427430","0.0-1.0-407.0","0","0","45707","","null","","","null","45","","","","","","","","","","","","","","","",""
"","ISI","","html-keyboard-response","302","428441","0.0-1.0-408.0","0","0","45707","","null","","","null","45","NaN","","","","","","","","","","","","","","",""
"","S2","","html-keyboard-response","303","428701","0.0-1.0-409.0","0","0","45707","","null","","","null","45","","NaN","","","","","","","","","","","","","",""
"","response","","html-keyboard-response","304","429522","0.0-1.0-410.0-0.0","0","0","45707","","817","","","75","45","","","1","45","training","adjacent","FE","6","5","Q.jpg","O.jpg","1","0","0","",""
"","feedback","","html-keyboard-response","305","430533","0.0-1.0-411.0-0.0","0","0","45707","","null","","","null","45","","","","","","","","","","","","","","","",""
"","time_out","","html-keyboard-response","306","432537","0.0-1.0-413.0-0.0","0","0","45707","","null","","","null","45","","","","","","","","","","","","","","","",""
"","ITI","","html-keyboard-response","307","433541","0.0-1.0-414.0","0","0","45707","","null","","","null","45","","","","","","","","","","","","","","","NaN",""
"","S1","","html-keyboard-response","308","433801","0.0-1.0-416.0","0","0","45707","","null","","","null","46","","","","","","","","","","","","","","","",""
"","ISI","","html-keyboard-response","309","434809","0.0-1.0-417.0","0","0","45707","","349","","","68","46","d","","","","","","","","","","","","","","",""
"","S2","","html-keyboard-response","310","435068","0.0-1.0-418.0","0","0","45707","","null","","","null","46","","NaN","","","","","","","","","","","","","",""
"","response","","html-keyboard-response","311","435101","0.0-1.0-419.0-0.0","0","0","45707","","30","","","68","46","","","1","46","training","adjacent","FG","6","7","Q.jpg","N.jpg","0","1","0","",""
"","feedback","","html-keyboard-response","312","436115","0.0-1.0-420.0-0.0","0","0","45707","","null","","","null","46","","","","","","","","","","","","","","","",""
"","time_out","","html-keyboard-response","313","438121","0.0-1.0-422.0-0.0","0","0","45707","","null","","","null","46","","","","","","","","","","","","","","","",""
"","ITI","","html-keyboard-response","314","439125","0.0-1.0-423.0","0","0","45707","","null","","","null","46","","","","","","","","","","","","","","","NaN",""
"","S1","","html-keyboard-response","315","439385","0.0-1.0-425.0","0","0","45707","","null","","","null","47","","","","","","","","","","","","","","","",""
"","ISI","","html-keyboard-response","316","440396","0.0-1.0-426.0","0","0","45707","","null","","","null","47","NaN","","","","","","","","","","","","","","",""
"","S2","","html-keyboard-response","317","440651","0.0-1.0-427.0","0","0","45707","","null","","","null","47","","NaN","","","","","","","","","","","","","",""
"","response","","html-keyboard-response","318","441198","0.0-1.0-428.0-0.0","0","0","45707","","545","","","75","47","","","1","47","training","adjacent","AB","1","2","R.jpg","P.jpg","1","1","1","",""
"","feedback","","html-keyboard-response","319","442207","0.0-1.0-429.0-0.0","0","0","45707","","null","","","null","47","","","","","","","","","","","","","","","",""
"","ITI","","html-keyboard-response","320","443217","0.0-1.0-432.0","0","0","45707","","null","","","null","47","","","","","","","","","","","","","","","NaN",""
"","block_over","","html-keyboard-response","321","460125","0.0-1.0-433.0-0.0","0","0","45707","","16904","","","32","47","","","","","","","","","","","","","","","",""
"","S1","","html-keyboard-response","322","460394","0.0-1.0-434.0","0","0","45707","","null","","","null","48","","","","","","","","","","","","","","","",""
"","ISI","","html-keyboard-response","323","461405","0.0-1.0-435.0","0","0","45707","","null","","","null","48","NaN","","","","","","","","","","","","","","",""
"","S2","","html-keyboard-response","324","461667","0.0-1.0-436.0","0","0","45707","","null","","","null","48","","NaN","","","","","","","","","","","","","",""
"","response","","html-keyboard-response","325","462306","0.0-1.0-437.0-0.0","0","0","45707","","636","","","75","48","","","2","48","training","adjacent","EF","5","6","O.jpg","Q.jpg","1","1","1","",""
"","feedback","","html-keyboard-response","326","463312","0.0-1.0-438.0-0.0","0","0","45707","","null","","","null","48","","","","","","","","","","","","","","","",""
"","ITI","","html-keyboard-response","327","464318","0.0-1.0-441.0","0","0","45707","","null","","","null","48","","","","","","","","","","","","","","","NaN",""
"","S1","","html-keyboard-response","328","464579","0.0-1.0-443.0","0","0","45707","","null","","","null","49","","","","","","","","","","","","","","","",""
"","ISI","","html-keyboard-response","329","465583","0.0-1.0-444.0","0","0","45707","","null","","","null","49","NaN","","","","","","","","","","","","","","",""
"","S2","","html-keyboard-response","330","465838","0.0-1.0-445.0","0","0","45707","","null","","","null","49","","NaN","","","","","","","","","","","","","",""
"","response","","html-keyboard-response","331","467591","0.0-1.0-446.0-0.0","0","0","45707","","null","","","null","49","","","2","49","training","adjacent","ED","5","4","O.jpg","L.jpg","NaN","0","0","",""
"","too_slow_prompt","","html-keyboard-response","332","468600","0.0-1.0-448.0-0.0","1","0","45707","","null","","","null","","","","","","","","","","","","","","","","",""
"","time_out","","html-keyboard-response","333","470606","0.0-1.0-449.0-0.0","0","0","45707","","null","","","null","49","","","","","","","","","","","","","","","",""
"","ITI","","html-keyboard-response","334","471610","0.0-1.0-450.0","0","0","45707","","null","","","null","49","","","","","","","","","","","","","","","NaN",""
"","S1","","html-keyboard-response","335","471863","0.0-1.0-452.0","0","0","45707","","null","","","null","50","","","","","","","","","","","","","","","",""
"","ISI","","html-keyboard-response","336","472872","0.0-1.0-453.0","0","0","45707","","null","","","null","50","NaN","","","","","","","","","","","","","","",""
"","S2","","html-keyboard-response","337","473126","0.0-1.0-454.0","0","0","45707","","null","","","null","50","","NaN","","","","","","","","","","","","","",""
"","response","","html-keyboard-response","338","473190","0.0-1.0-455.0-0.0","0","0","45707","","61","","","68","50","","","2","50","training","adjacent","EF","5","6","O.jpg","Q.jpg","0","1","0","",""
"","feedback","","html-keyboard-response","339","474201","0.0-1.0-456.0-0.0","0","0","45707","","null","","","null","50","","","","","","","","","","","","","","","",""
"","time_out","","html-keyboard-response","340","476207","0.0-1.0-458.0-0.0","0","0","45707","","null","","","null","50","","","","","","","","","","","","","","","",""
"","ITI","","html-keyboard-response","341","477212","0.0-1.0-459.0","0","0","45707","","null","","","null","50","","","","","","","","","","","","","","","NaN",""
"","S1","","html-keyboard-response","342","477467","0.0-1.0-461.0","0","0","45707","","null","","","null","51","","","","","","","","","","","","","","","",""
"","ISI","","html-keyboard-response","343","478474","0.0-1.0-462.0","0","0","45707","","154","","","68","51","d","","","","","","","","","","","","","","",""
"","S2","","html-keyboard-response","344","478727","0.0-1.0-463.0","0","0","45707","","null","","","null","51","","NaN","","","","","","","","","","","","","",""
"","response","","html-keyboard-response","345","478737","0.0-1.0-464.0-0.0","0","0","45707","","8","","","68","51","","","2","51","training","adjacent","DC","4","3","L.jpg","M.jpg","0","0","1","",""
"","feedback","","html-keyboard-response","346","479749","0.0-1.0-465.0-0.0","0","0","45707","","null","","","null","51","","","","","","","","","","","","","","","",""
"","ITI","","html-keyboard-response","347","480754","0.0-1.0-468.0","0","0","45707","","null","","","null","51","","","","","","","","","","","","","","","NaN",""
"","S1","","html-keyboard-response","348","481015","0.0-1.0-470.0","0","0","45707","","null","","","null","52","","","","","","","","","","","","","","","",""
"","ISI","","html-keyboard-response","349","482021","0.0-1.0-471.0","0","0","45707","","null","","","null","52","NaN","","","","","","","","","","","","","","",""
"","S2","","html-keyboard-response","350","482288","0.0-1.0-472.0","0","0","45707","","null","","","null","52","","NaN","","","","","","","","","","","","","",""
"","response","","html-keyboard-response","351","482739","0.0-1.0-473.0-0.0","0","0","45707","","449","","","75","52","","","2","52","training","adjacent","CD","3","4","M.jpg","L.jpg","1","1","1","",""
"","feedback","","html-keyboard-response","352","483746","0.0-1.0-474.0-0.0","0","0","45707","","null","","","null","52","","","","","","","","","","","","","","","",""
"","ITI","","html-keyboard-response","353","484760","0.0-1.0-477.0","0","0","45707","","null","","","null","52","","","","","","","","","","","","","","","NaN",""
"","S1","","html-keyboard-response","354","485018","0.0-1.0-479.0","0","0","45707","","null","","","null","53","","","","","","","","","","","","","","","",""
"","ISI","","html-keyboard-response","355","486022","0.0-1.0-480.0","0","0","45707","","null","","","null","53","NaN","","","","","","","","","","","","","","",""
"","S2","","html-keyboard-response","356","486284","0.0-1.0-481.0","0","0","45707","","null","","","null","53","","NaN","","","","","","","","","","","","","",""
"","response","","html-keyboard-response","357","486673","0.0-1.0-482.0-0.0","0","0","45707","","386","","","75","53","","","2","53","training","adjacent","DE","4","5","L.jpg","O.jpg","1","1","1","",""
"","feedback","","html-keyboard-response","358","487683","0.0-1.0-483.0-0.0","0","0","45707","","null","","","null","53","","","","","","","","","","","","","","","",""
"","ITI","","html-keyboard-response","359","488689","0.0-1.0-486.0","0","0","45707","","null","","","null","53","","","","","","","","","","","","","","","NaN",""
"","S1","","html-keyboard-response","360","488943","0.0-1.0-488.0","0","0","45707","","null","","","null","54","","","","","","","","","","","","","","","",""
"","ISI","","html-keyboard-response","361","489947","0.0-1.0-489.0","0","0","45707","","null","","","null","54","NaN","","","","","","","","","","","","","","",""
"","S2","","html-keyboard-response","362","490209","0.0-1.0-490.0","0","0","45707","","null","","","null","54","","NaN","","","","","","","","","","","","","",""
"","response","","html-keyboard-response","363","490677","0.0-1.0-491.0-0.0","0","0","45707","","465","","","68","54","","","2","54","training","adjacent","CB","3","2","M.jpg","P.jpg","0","0","1","",""
"","feedback","","html-keyboard-response","364","491688","0.0-1.0-492.0-0.0","0","0","45707","","null","","","null","54","","","","","","","","","","","","","","","",""
"","ITI","","html-keyboard-response","365","492696","0.0-1.0-495.0","0","0","45707","","null","","","null","54","","","","","","","","","","","","","","","NaN",""
"","S1","","html-keyboard-response","366","492957","0.0-1.0-497.0","0","0","45707","","null","","","null","55","","","","","","","","","","","","","","","",""
"","ISI","","html-keyboard-response","367","493965","0.0-1.0-498.0","0","0","45707","","null","","","null","55","NaN","","","","","","","","","","","","","","",""
"","S2","","html-keyboard-response","368","494219","0.0-1.0-499.0","0","0","45707","","null","","","null","55","","NaN","","","","","","","","","","","","","",""
"","response","","html-keyboard-response","369","494719","0.0-1.0-500.0-0.0","0","0","45707","","498","","","75","55","","","2","55","training","adjacent","FE","6","5","Q.jpg","O.jpg","1","0","0","",""
"","feedback","","html-keyboard-response","370","495724","0.0-1.0-501.0-0.0","0","0","45707","","null","","","null","55","","","","","","","","","","","","","","","",""
"","time_out","","html-keyboard-response","371","497733","0.0-1.0-503.0-0.0","0","0","45707","","null","","","null","55","","","","","","","","","","","","","","","",""
"","ITI","","html-keyboard-response","372","498739","0.0-1.0-504.0","0","0","45707","","null","","","null","55","","","","","","","","","","","","","","","NaN",""
"","S1","","html-keyboard-response","373","498999","0.0-1.0-506.0","0","0","45707","","null","","","null","56","","","","","","","","","","","","","","","",""
"","ISI","","html-keyboard-response","374","500010","0.0-1.0-507.0","0","0","45707","","null","","","null","56","NaN","","","","","","","","","","","","","","",""
"","S2","","html-keyboard-response","375","500264","0.0-1.0-508.0","0","0","45707","","null","","","null","56","","NaN","","","","","","","","","","","","","",""
"","response","","html-keyboard-response","376","500693","0.0-1.0-509.0-0.0","0","0","45707","","426","","","68","56","","","2","56","training","adjacent","FE","6","5","Q.jpg","O.jpg","0","0","1","",""
"","feedback","","html-keyboard-response","377","501703","0.0-1.0-510.0-0.0","0","0","45707","","null","","","null","56","","","","","","","","","","","","","","","",""
"","ITI","","html-keyboard-response","378","502720","0.0-1.0-513.0","0","0","45707","","null","","","null","56","","","","","","","","","","","","","","","NaN",""
"","S1","","html-keyboard-response","379","502982","0.0-1.0-515.0","0","0","45707","","null","","","null","57","","","","","","","","","","","","","","","",""
"","ISI","","html-keyboard-response","380","503992","0.0-1.0-516.0","0","0","45707","","null","","","null","57","NaN","","","","","","","","","","","","","","",""
"","S2","","html-keyboard-response","381","504253","0.0-1.0-517.0","0","0","45707","","null","","","null","57","","NaN","","","","","","","","","","","","","",""
"","response","","html-keyboard-response","382","506009","0.0-1.0-518.0-0.0","0","0","45707","","null","","","null","57","","","2","57","training","adjacent","DC","4","3","L.jpg","M.jpg","NaN","0","0","",""
"","too_slow_prompt","","html-keyboard-response","383","507018","0.0-1.0-520.0-0.0","1","0","45707","","null","","","null","","","","","","","","","","","","","","","","",""
"","time_out","","html-keyboard-response","384","509028","0.0-1.0-521.0-0.0","0","0","45707","","null","","","null","57","","","","","","","","","","","","","","","",""
"","ITI","","html-keyboard-response","385","510037","0.0-1.0-522.0","0","0","45707","","null","","","null","57","","","","","","","","","","","","","","","NaN",""
"","S1","","html-keyboard-response","386","510306","0.0-1.0-524.0","0","0","45707","","null","","","null","58","","","","","","","","","","","","","","","",""
"","ISI","","html-keyboard-response","387","511309","0.0-1.0-525.0","0","0","45707","","null","","","null","58","NaN","","","","","","","","","","","","","","",""
"","S2","","html-keyboard-response","388","511570","0.0-1.0-526.0","0","0","45707","","null","","","null","58","","NaN","","","","","","","","","","","","","",""
"","response","","html-keyboard-response","389","511828","0.0-1.0-527.0-0.0","0","0","45707","","257","","","75","58","","","2","58","training","adjacent","EF","5","6","O.jpg","Q.jpg","1","1","1","",""
"","feedback","","html-keyboard-response","390","512833","0.0-1.0-528.0-0.0","0","0","45707","","null","","","null","58","","","","","","","","","","","","","","","",""
"","ITI","","html-keyboard-response","391","513851","0.0-1.0-531.0","0","0","45707","","null","","","null","58","","","","","","","","","","","","","","","NaN",""
"","S1","","html-keyboard-response","392","514112","0.0-1.0-533.0","0","0","45707","","null","","","null","59","","","","","","","","","","","","","","","",""
"","ISI","","html-keyboard-response","393","515131","0.0-1.0-534.0","0","0","45707","","null","","","null","59","NaN","","","","","","","","","","","","","","",""
"","S2","","html-keyboard-response","394","515384","0.0-1.0-535.0","0","0","45707","","null","","","null","59","","NaN","","","","","","","","","","","","","",""
"","response","","html-keyboard-response","395","515930","0.0-1.0-536.0-0.0","0","0","45707","","543","","","75","59","","","2","59","training","adjacent","ED","5","4","O.jpg","L.jpg","1","0","0","",""
"","feedback","","html-keyboard-response","396","516938","0.0-1.0-537.0-0.0","0","0","45707","","null","","","null","59","","","","","","","","","","","","","","","",""
"","time_out","","html-keyboard-response","397","518943","0.0-1.0-539.0-0.0","0","0","45707","","null","","","null","59","","","","","","","","","","","","","","","",""
"","ITI","","html-keyboard-response","398","519955","0.0-1.0-540.0","0","0","45707","","null","","","null","59","","","","","","","","","","","","","","","NaN",""
"","S1","","html-keyboard-response","399","520214","0.0-1.0-542.0","0","0","45707","","null","","","null","60","","","","","","","","","","","","","","","",""
"","ISI","","html-keyboard-response","400","521223","0.0-1.0-543.0","0","0","45707","","null","","","null","60","NaN","","","","","","","","","","","","","","",""
"","S2","","html-keyboard-response","401","521492","0.0-1.0-544.0","0","0","45707","","null","","","null","60","","NaN","","","","","","","","","","","","","",""
"","response","","html-keyboard-response","402","521822","0.0-1.0-545.0-0.0","0","0","45707","","329","","","75","60","","","2","60","training","adjacent","GF","7","6","N.jpg","Q.jpg","1","0","0","",""
"","feedback","","html-keyboard-response","403","522829","0.0-1.0-546.0-0.0","0","0","45707","","null","","","null","60","","","","","","","","","","","","","","","",""
"","time_out","","html-keyboard-response","404","524840","0.0-1.0-548.0-0.0","0","0","45707","","null","","","null","60","","","","","","","","","","","","","","","",""
"","ITI","","html-keyboard-response","405","525843","0.0-1.0-549.0","0","0","45707","","null","","","null","60","","","","","","","","","","","","","","","NaN",""
"","S1","","html-keyboard-response","406","526104","0.0-1.0-551.0","0","0","45707","","null","","","null","61","","","","","","","","","","","","","","","",""
"","ISI","","html-keyboard-response","407","527112","0.0-1.0-552.0","0","0","45707","","null","","","null","61","NaN","","","","","","","","","","","","","","",""
"","S2","","html-keyboard-response","408","527370","0.0-1.0-553.0","0","0","45707","","null","","","null","61","","NaN","","","","","","","","","","","","","",""
"","response","","html-keyboard-response","409","527753","0.0-1.0-554.0-0.0","0","0","45707","","382","","","68","61","","","2","61","training","adjacent","FE","6","5","Q.jpg","O.jpg","0","0","1","",""
"","feedback","","html-keyboard-response","410","528774","0.0-1.0-555.0-0.0","0","0","45707","","null","","","null","61","","","","","","","","","","","","","","","",""
"","ITI","","html-keyboard-response","411","529777","0.0-1.0-558.0","0","0","45707","","null","","","null","61","","","","","","","","","","","","","","","NaN",""
"","S1","","html-keyboard-response","412","530037","0.0-1.0-560.0","0","0","45707","","null","","","null","62","","","","","","","","","","","","","","","",""
"","ISI","","html-keyboard-response","413","531041","0.0-1.0-561.0","0","0","45707","","null","","","null","62","NaN","","","","","","","","","","","","","","",""
"","S2","","html-keyboard-response","414","531301","0.0-1.0-562.0","0","0","45707","","null","","","null","62","","NaN","","","","","","","","","","","","","",""
"","response","","html-keyboard-response","415","531673","0.0-1.0-563.0-0.0","0","0","45707","","370","","","68","62","","","2","62","training","adjacent","FG","6","7","Q.jpg","N.jpg","0","1","0","",""
"","feedback","","html-keyboard-response","416","532680","0.0-1.0-564.0-0.0","0","0","45707","","null","","","null","62","","","","","","","","","","","","","","","",""
"","time_out","","html-keyboard-response","417","534687","0.0-1.0-566.0-0.0","0","0","45707","","null","","","null","62","","","","","","","","","","","","","","","",""
"","ITI","","html-keyboard-response","418","535691","0.0-1.0-567.0","0","0","45707","","null","","","null","62","","","","","","","","","","","","","","","NaN",""
"","S1","","html-keyboard-response","419","535947","0.0-1.0-569.0","0","0","45707","","null","","","null","63","","","","","","","","","","","","","","","",""
"","ISI","","html-keyboard-response","420","536958","0.0-1.0-570.0","0","0","45707","","461","","","68","63","d","","","","","","","","","","","","","","",""
"","S2","","html-keyboard-response","421","537218","0.0-1.0-571.0","0","0","45707","","null","","","null","63","","NaN","","","","","","","","","","","","","",""
"","response","","html-keyboard-response","422","537272","0.0-1.0-572.0-0.0","0","0","45707","","52","","","68","63","","","2","63","training","adjacent","CB","3","2","M.jpg","P.jpg","0","0","1","",""
"","feedback","","html-keyboard-response","423","538278","0.0-1.0-573.0-0.0","0","0","45707","","null","","","null","63","","","","","","","","","","","","","","","",""
"","ITI","","html-keyboard-response","424","539282","0.0-1.0-576.0","0","0","45707","","null","","","null","63","","","","","","","","","","","","","","","NaN",""
"","S1","","html-keyboard-response","425","539535","0.0-1.0-578.0","0","0","45707","","null","","","null","64","","","","","","","","","","","","","","","",""
"","ISI","","html-keyboard-response","426","540539","0.0-1.0-579.0","0","0","45707","","null","","","null","64","NaN","","","","","","","","","","","","","","",""
"","S2","","html-keyboard-response","427","540795","0.0-1.0-580.0","0","0","45707","","null","","","null","64","","NaN","","","","","","","","","","","","","",""
"","response","","html-keyboard-response","428","541279","0.0-1.0-581.0-0.0","0","0","45707","","481","","","68","64","","","2","64","training","adjacent","DE","4","5","L.jpg","O.jpg","0","1","0","",""
"","feedback","","html-keyboard-response","429","542288","0.0-1.0-582.0-0.0","0","0","45707","","null","","","null","64","","","","","","","","","","","","","","","",""
"","time_out","","html-keyboard-response","430","544297","0.0-1.0-584.0-0.0","0","0","45707","","null","","","null","64","","","","","","","","","","","","","","","",""
"","ITI","","html-keyboard-response","431","545300","0.0-1.0-585.0","0","0","45707","","null","","","null","64","","","","","","","","","","","","","","","NaN",""
"","S1","","html-keyboard-response","432","545560","0.0-1.0-587.0","0","0","45707","","null","","","null","65","","","","","","","","","","","","","","","",""
"","ISI","","html-keyboard-response","433","546568","0.0-1.0-588.0","0","0","45707","","null","","","null","65","NaN","","","","","","","","","","","","","","",""
"","S2","","html-keyboard-response","434","546822","0.0-1.0-589.0","0","0","45707","","null","","","null","65","","NaN","","","","","","","","","","","","","",""
"","response","","html-keyboard-response","435","546973","0.0-1.0-590.0-0.0","0","0","45707","","148","","","75","65","","","2","65","training","adjacent","BC","2","3","P.jpg","M.jpg","1","1","1","",""
"","feedback","","html-keyboard-response","436","547978","0.0-1.0-591.0-0.0","0","0","45707","","null","","","null","65","","","","","","","","","","","","","","","",""
"","ITI","","html-keyboard-response","437","548993","0.0-1.0-594.0","0","0","45707","","null","","","null","65","","","","","","","","","","","","","","","NaN",""
"","S1","","html-keyboard-response","438","549253","0.0-1.0-596.0","0","0","45707","","null","","","null","66","","","","","","","","","","","","","","","",""
"","ISI","","html-keyboard-response","439","550259","0.0-1.0-597.0","0","0","45707","","null","","","null","66","NaN","","","","","","","","","","","","","","",""
"","S2","","html-keyboard-response","440","550514","0.0-1.0-598.0","0","0","45707","","null","","","null","66","","NaN","","","","","","","","","","","","","",""
"","response","","html-keyboard-response","441","550809","0.0-1.0-599.0-0.0","0","0","45707","","293","","","68","66","","","2","66","training","adjacent","DC","4","3","L.jpg","M.jpg","0","0","1","",""
"","feedback","","html-keyboard-response","442","551818","0.0-1.0-600.0-0.0","0","0","45707","","null","","","null","66","","","","","","","","","","","","","","","",""
"","ITI","","html-keyboard-response","443","552829","0.0-1.0-603.0","0","0","45707","","null","","","null","66","","","","","","","","","","","","","","","NaN",""
"","S1","","html-keyboard-response","444","553088","0.0-1.0-605.0","0","0","45707","","null","","","null","67","","","","","","","","","","","","","","","",""
"","ISI","","html-keyboard-response","445","554099","0.0-1.0-606.0","0","0","45707","","null","","","null","67","NaN","","","","","","","","","","","","","","",""
"","S2","","html-keyboard-response","446","554360","0.0-1.0-607.0","0","0","45707","","null","","","null","67","","NaN","","","","","","","","","","","","","",""
"","response","","html-keyboard-response","447","554665","0.0-1.0-608.0-0.0","0","0","45707","","303","","","75","67","","","2","67","training","adjacent","BA","2","1","P.jpg","R.jpg","1","0","0","",""
"","feedback","","html-keyboard-response","448","555676","0.0-1.0-609.0-0.0","0","0","45707","","null","","","null","67","","","","","","","","","","","","","","","",""
"","time_out","","html-keyboard-response","449","557681","0.0-1.0-611.0-0.0","0","0","45707","","null","","","null","67","","","","","","","","","","","","","","","",""
"","ITI","","html-keyboard-response","450","558690","0.0-1.0-612.0","0","0","45707","","null","","","null","67","","","","","","","","","","","","","","","NaN",""
"","S1","","html-keyboard-response","451","558943","0.0-1.0-614.0","0","0","45707","","null","","","null","68","","","","","","","","","","","","","","","",""
"","ISI","","html-keyboard-response","452","559951","0.0-1.0-615.0","0","0","45707","","299","","","75","68","k","","","","","","","","","","","","","","",""
"","S2","","html-keyboard-response","453","560204","0.0-1.0-616.0","0","0","45707","","250","","","75","68","","k","2","68","training","adjacent","CB","3","2","M.jpg","P.jpg","1","0","0","",""
"","feedback","","html-keyboard-response","454","561208","0.0-1.0-618.0-0.0","0","0","45707","","null","","","null","68","","","","","","","","","","","","","","","",""
"","time_out","","html-keyboard-response","455","563214","0.0-1.0-620.0-0.0","0","0","45707","","null","","","null","68","","","","","","","","","","","","","","","",""
"","ITI","","html-keyboard-response","456","564224","0.0-1.0-621.0","0","0","45707","","null","","","null","68","","","","","","","","","","","","","","","NaN",""
"","S1","","html-keyboard-response","457","564485","0.0-1.0-623.0","0","0","45707","","null","","","null","69","","","","","","","","","","","","","","","",""
"","ISI","","html-keyboard-response","458","565490","0.0-1.0-624.0","0","0","45707","","null","","","null","69","NaN","","","","","","","","","","","","","","",""
"","S2","","html-keyboard-response","459","565743","0.0-1.0-625.0","0","0","45707","","null","","","null","69","","NaN","","","","","","","","","","","","","",""
"","response","","html-keyboard-response","460","566876","0.0-1.0-626.0-0.0","0","0","45707","","1130","","","68","69","","","2","69","training","adjacent","AB","1","2","R.jpg","P.jpg","0","1","0","",""
"","feedback","","html-keyboard-response","461","567881","0.0-1.0-627.0-0.0","0","0","45707","","null","","","null","69","","","","","","","","","","","","","","","",""
"","time_out","","html-keyboard-response","462","569884","0.0-1.0-629.0-0.0","0","0","45707","","null","","","null","69","","","","","","","","","","","","","","","",""
"","ITI","","html-keyboard-response","463","570891","0.0-1.0-630.0","0","0","45707","","null","","","null","69","","","","","","","","","","","","","","","NaN",""
"","S1","","html-keyboard-response","464","571151","0.0-1.0-632.0","0","0","45707","","null","","","null","70","","","","","","","","","","","","","","","",""
"","ISI","","html-keyboard-response","465","572161","0.0-1.0-633.0","0","0","45707","","19","","","68","70","d","","","","","","","","","","","","","","",""
"","S2","","html-keyboard-response","466","572418","0.0-1.0-634.0","0","0","45707","","null","","","null","70","","NaN","","","","","","","","","","","","","",""
"","response","","html-keyboard-response","467","572867","0.0-1.0-635.0-0.0","0","0","45707","","447","","","68","70","","","2","70","training","adjacent","FG","6","7","Q.jpg","N.jpg","0","1","0","",""
"","feedback","","html-keyboard-response","468","573872","0.0-1.0-636.0-0.0","0","0","45707","","null","","","null","70","","","","","","","","","","","","","","","",""
"","time_out","","html-keyboard-response","469","575880","0.0-1.0-638.0-0.0","0","0","45707","","null","","","null","70","","","","","","","","","","","","","","","",""
"","ITI","","html-keyboard-response","470","576885","0.0-1.0-639.0","0","0","45707","","null","","","null","70","","","","","","","","","","","","","","","NaN",""
"","S1","","html-keyboard-response","471","577138","0.0-1.0-641.0","0","0","45707","","null","","","null","71","","","","","","","","","","","","","","","",""
"","ISI","","html-keyboard-response","472","578144","0.0-1.0-642.0","0","0","45707","","null","","","null","71","NaN","","","","","","","","","","","","","","",""
"","S2","","html-keyboard-response","473","578398","0.0-1.0-643.0","0","0","45707","","null","","","null","71","","NaN","","","","","","","","","","","","","",""
"","response","","html-keyboard-response","474","578855","0.0-1.0-644.0-0.0","0","0","45707","","455","","","75","71","","","2","71","training","adjacent","BC","2","3","P.jpg","M.jpg","1","1","1","",""
"","feedback","","html-keyboard-response","475","579866","0.0-1.0-645.0-0.0","0","0","45707","","null","","","null","71","","","","","","","","","","","","","","","",""
"","ITI","","html-keyboard-response","476","580871","0.0-1.0-648.0","0","0","45707","","null","","","null","71","","","","","","","","","","","","","","","NaN",""
"","S1","","html-keyboard-response","477","581125","0.0-1.0-650.0","0","0","45707","","null","","","null","72","","","","","","","","","","","","","","","",""
"","ISI","","html-keyboard-response","478","582134","0.0-1.0-651.0","0","0","45707","","null","","","null","72","NaN","","","","","","","","","","","","","","",""
"","S2","","html-keyboard-response","479","582387","0.0-1.0-652.0","0","0","45707","","null","","","null","72","","NaN","","","","","","","","","","","","","",""
"","response","","html-keyboard-response","480","582939","0.0-1.0-653.0-0.0","0","0","45707","","550","","","75","72","","","2","72","training","adjacent","FG","6","7","Q.jpg","N.jpg","1","1","1","",""
"","feedback","","html-keyboard-response","481","583942","0.0-1.0-654.0-0.0","0","0","45707","","null","","","null","72","","","","","","","","","","","","","","","",""
"","ITI","","html-keyboard-response","482","584947","0.0-1.0-657.0","0","0","45707","","null","","","null","72","","","","","","","","","","","","","","","NaN",""
"","S1","","html-keyboard-response","483","585215","0.0-1.0-659.0","0","0","45707","","null","","","null","73","","","","","","","","","","","","","","","",""
"","ISI","","html-keyboard-response","484","586221","0.0-1.0-660.0","0","0","45707","","null","","","null","73","NaN","","","","","","","","","","","","","","",""
"","S2","","html-keyboard-response","485","586481","0.0-1.0-661.0","0","0","45707","","null","","","null","73","","NaN","","","","","","","","","","","","","",""
"","response","","html-keyboard-response","486","587149","0.0-1.0-662.0-0.0","0","0","45707","","666","","","68","73","","","2","73","training","adjacent","AB","1","2","R.jpg","P.jpg","0","1","0","",""
"","feedback","","html-keyboard-response","487","588153","0.0-1.0-663.0-0.0","0","0","45707","","null","","","null","73","","","","","","","","","","","","","","","",""
"","time_out","","html-keyboard-response","488","590160","0.0-1.0-665.0-0.0","0","0","45707","","null","","","null","73","","","","","","","","","","","","","","","",""
"","ITI","","html-keyboard-response","489","591165","0.0-1.0-666.0","0","0","45707","","null","","","null","73","","","","","","","","","","","","","","","NaN",""
"","S1","","html-keyboard-response","490","591424","0.0-1.0-668.0","0","0","45707","","null","","","null","74","","","","","","","","","","","","","","","",""
"","ISI","","html-keyboard-response","491","592436","0.0-1.0-669.0","0","0","45707","","null","","","null","74","NaN","","","","","","","","","","","","","","",""
"","S2","","html-keyboard-response","492","592689","0.0-1.0-670.0","0","0","45707","","null","","","null","74","","NaN","","","","","","","","","","","","","",""
"","response","","html-keyboard-response","493","593114","0.0-1.0-671.0-0.0","0","0","45707","","423","","","68","74","","","2","74","training","adjacent","BC","2","3","P.jpg","M.jpg","0","1","0","",""
"","feedback","","html-keyboard-response","494","594125","0.0-1.0-672.0-0.0","0","0","45707","","null","","","null","74","","","","","","","","","","","","","","","",""
"","time_out","","html-keyboard-response","495","596136","0.0-1.0-674.0-0.0","0","0","45707","","null","","","null","74","","","","","","","","","","","","","","","",""
"","ITI","","html-keyboard-response","496","597139","0.0-1.0-675.0","0","0","45707","","null","","","null","74","","","","","","","","","","","","","","","NaN",""
"","S1","","html-keyboard-response","497","597400","0.0-1.0-677.0","0","0","45707","","null","","","null","75","","","","","","","","","","","","","","","",""
"","ISI","","html-keyboard-response","498","598411","0.0-1.0-678.0","0","0","45707","","null","","","null","75","NaN","","","","","","","","","","","","","","",""
"","S2","","html-keyboard-response","499","598672","0.0-1.0-679.0","0","0","45707","","null","","","null","75","","NaN","","","","","","","","","","","","","",""
"","response","","html-keyboard-response","500","599141","0.0-1.0-680.0-0.0","0","0","45707","","466","","","75","75","","","2","75","training","adjacent","BA","2","1","P.jpg","R.jpg","1","0","0","",""
"","feedback","","html-keyboard-response","501","600145","0.0-1.0-681.0-0.0","0","0","45707","","null","","","null","75","","","","","","","","","","","","","","","",""
"","time_out","","html-keyboard-response","502","602149","0.0-1.0-683.0-0.0","0","0","45707","","null","","","null","75","","","","","","","","","","","","","","","",""
"","ITI","","html-keyboard-response","503","603152","0.0-1.0-684.0","0","0","45707","","null","","","null","75","","","","","","","","","","","","","","","NaN",""
"","S1","","html-keyboard-response","504","603412","0.0-1.0-686.0","0","0","45707","","null","","","null","76","","","","","","","","","","","","","","","",""
"","ISI","","html-keyboard-response","505","604419","0.0-1.0-687.0","0","0","45707","","419","","","75","76","k","","","","","","","","","","","","","","",""
"","S2","","html-keyboard-response","506","604678","0.0-1.0-688.0","0","0","45707","","null","","","null","76","","NaN","","","","","","","","","","","","","",""
"","response","","html-keyboard-response","507","604680","0.0-1.0-689.0-0.0","0","0","45707","","0","","","75","76","","","2","76","training","adjacent","BA","2","1","P.jpg","R.jpg","1","0","0","",""
"","feedback","","html-keyboard-response","508","605687","0.0-1.0-690.0-0.0","0","0","45707","","null","","","null","76","","","","","","","","","","","","","","","",""
"","time_out","","html-keyboard-response","509","607696","0.0-1.0-692.0-0.0","0","0","45707","","null","","","null","76","","","","","","","","","","","","","","","",""
"","ITI","","html-keyboard-response","510","608699","0.0-1.0-693.0","0","0","45707","","null","","","null","76","","","","","","","","","","","","","","","NaN",""
"","S1","","html-keyboard-response","511","608958","0.0-1.0-695.0","0","0","45707","","null","","","null","77","","","","","","","","","","","","","","","",""
"","ISI","","html-keyboard-response","512","609962","0.0-1.0-696.0","0","0","45707","","null","","","null","77","NaN","","","","","","","","","","","","","","",""
"","S2","","html-keyboard-response","513","610216","0.0-1.0-697.0","0","0","45707","","null","","","null","77","","NaN","","","","","","","","","","","","","",""
"","response","","html-keyboard-response","514","610256","0.0-1.0-698.0-0.0","0","0","45707","","37","","","75","77","","","2","77","training","adjacent","CD","3","4","M.jpg","L.jpg","1","1","1","",""
"","feedback","","html-keyboard-response","515","611266","0.0-1.0-699.0-0.0","0","0","45707","","null","","","null","77","","","","","","","","","","","","","","","",""
"","ITI","","html-keyboard-response","516","612271","0.0-1.0-702.0","0","0","45707","","null","","","null","77","","","","","","","","","","","","","","","NaN",""
"","S1","","html-keyboard-response","517","612529","0.0-1.0-704.0","0","0","45707","","null","","","null","78","","","","","","","","","","","","","","","",""
"","ISI","","html-keyboard-response","518","613535","0.0-1.0-705.0","0","0","45707","","null","","","null","78","NaN","","","","","","","","","","","","","","",""
"","S2","","html-keyboard-response","519","613796","0.0-1.0-706.0","0","0","45707","","null","","","null","78","","NaN","","","","","","","","","","","","","",""
"","response","","html-keyboard-response","520","614355","0.0-1.0-707.0-0.0","0","0","45707","","555","","","68","78","","","2","78","training","adjacent","EF","5","6","O.jpg","Q.jpg","0","1","0","",""
"","feedback","","html-keyboard-response","521","615358","0.0-1.0-708.0-0.0","0","0","45707","","null","","","null","78","","","","","","","","","","","","","","","",""
"","time_out","","html-keyboard-response","522","617363","0.0-1.0-710.0-0.0","0","0","45707","","null","","","null","78","","","","","","","","","","","","","","","",""
"","ITI","","html-keyboard-response","523","618367","0.0-1.0-711.0","0","0","45707","","null","","","null","78","","","","","","","","","","","","","","","NaN",""
"","S1","","html-keyboard-response","524","618635","0.0-1.0-713.0","0","0","45707","","null","","","null","79","","","","","","","","","","","","","","","",""
"","ISI","","html-keyboard-response","525","619651","0.0-1.0-714.0","0","0","45707","","null","","","null","79","NaN","","","","","","","","","","","","","","",""
"","S2","","html-keyboard-response","526","619905","0.0-1.0-715.0","0","0","45707","","null","","","null","79","","NaN","","","","","","","","","","","","","",""
"","response","","html-keyboard-response","527","619972","0.0-1.0-716.0-0.0","0","0","45707","","63","","","75","79","","","2","79","training","adjacent","DE","4","5","L.jpg","O.jpg","1","1","1","",""
"","feedback","","html-keyboard-response","528","620982","0.0-1.0-717.0-0.0","0","0","45707","","null","","","null","79","","","","","","","","","","","","","","","",""
"","ITI","","html-keyboard-response","529","621989","0.0-1.0-720.0","0","0","45707","","null","","","null","79","","","","","","","","","","","","","","","NaN",""
"","S1","","html-keyboard-response","530","622243","0.0-1.0-722.0","0","0","45707","","null","","","null","80","","","","","","","","","","","","","","","",""
"","ISI","","html-keyboard-response","531","623253","0.0-1.0-723.0","0","0","45707","","null","","","null","80","NaN","","","","","","","","","","","","","","",""
"","S2","","html-keyboard-response","532","623514","0.0-1.0-724.0","0","0","45707","","null","","","null","80","","NaN","","","","","","","","","","","","","",""
"","response","","html-keyboard-response","533","624510","0.0-1.0-725.0-0.0","0","0","45707","","993","","","68","80","","","2","80","training","adjacent","BC","2","3","P.jpg","M.jpg","0","1","0","",""
"","feedback","","html-keyboard-response","534","625514","0.0-1.0-726.0-0.0","0","0","45707","","null","","","null","80","","","","","","","","","","","","","","","",""
"","time_out","","html-keyboard-response","535","627522","0.0-1.0-728.0-0.0","0","0","45707","","null","","","null","80","","","","","","","","","","","","","","","",""
"","ITI","","html-keyboard-response","536","628534","0.0-1.0-729.0","0","0","45707","","null","","","null","80","","","","","","","","","","","","","","","NaN",""
"","S1","","html-keyboard-response","537","628787","0.0-1.0-731.0","0","0","45707","","null","","","null","81","","","","","","","","","","","","","","","",""
"","ISI","","html-keyboard-response","538","629795","0.0-1.0-732.0","0","0","45707","","null","","","null","81","NaN","","","","","","","","","","","","","","",""
"","S2","","html-keyboard-response","539","630065","0.0-1.0-733.0","0","0","45707","","null","","","null","81","","NaN","","","","","","","","","","","","","",""
"","response","","html-keyboard-response","540","630696","0.0-1.0-734.0-0.0","0","0","45707","","629","","","75","81","","","2","81","training","adjacent","BA","2","1","P.jpg","R.jpg","1","0","0","",""
"","feedback","","html-keyboard-response","541","631704","0.0-1.0-735.0-0.0","0","0","45707","","null","","","null","81","","","","","","","","","","","","","","","",""
"","time_out","","html-keyboard-response","542","633708","0.0-1.0-737.0-0.0","0","0","45707","","null","","","null","81","","","","","","","","","","","","","","","",""
"","ITI","","html-keyboard-response","543","634711","0.0-1.0-738.0","0","0","45707","","null","","","null","81","","","","","","","","","","","","","","","NaN",""
"","S1","","html-keyboard-response","544","634973","0.0-1.0-740.0","0","0","45707","","null","","","null","82","","","","","","","","","","","","","","","",""
"","ISI","","html-keyboard-response","545","635983","0.0-1.0-741.0","0","0","45707","","null","","","null","82","NaN","","","","","","","","","","","","","","",""
"","S2","","html-keyboard-response","546","636238","0.0-1.0-742.0","0","0","45707","","null","","","null","82","","NaN","","","","","","","","","","","","","",""
"","response","","html-keyboard-response","547","637994","0.0-1.0-743.0-0.0","0","0","45707","","null","","","null","82","","","2","82","training","adjacent","GF","7","6","N.jpg","Q.jpg","NaN","0","0","",""
"","too_slow_prompt","","html-keyboard-response","548","639001","0.0-1.0-745.0-0.0","1","0","45707","","null","","","null","","","","","","","","","","","","","","","","",""
"","time_out","","html-keyboard-response","549","641008","0.0-1.0-746.0-0.0","0","0","45707","","null","","","null","82","","","","","","","","","","","","","","","",""
"","ITI","","html-keyboard-response","550","642013","0.0-1.0-747.0","0","0","45707","","null","","","null","82","","","","","","","","","","","","","","","NaN",""
"","S1","","html-keyboard-response","551","642266","0.0-1.0-749.0","0","0","45707","","null","","","null","83","","","","","","","","","","","","","","","",""
"","ISI","","html-keyboard-response","552","643275","0.0-1.0-750.0","0","0","45707","","178","","","75","83","k","","","","","","","","","","","","","","",""
"","S2","","html-keyboard-response","553","643536","0.0-1.0-751.0","0","0","45707","","null","","","null","83","","NaN","","","","","","","","","","","","","",""
"","response","","html-keyboard-response","554","643827","0.0-1.0-752.0-0.0","0","0","45707","","288","","","68","83","","","2","83","training","adjacent","GF","7","6","N.jpg","Q.jpg","0","0","1","",""
"","feedback","","html-keyboard-response","555","644835","0.0-1.0-753.0-0.0","0","0","45707","","null","","","null","83","","","","","","","","","","","","","","","",""
"","ITI","","html-keyboard-response","556","645839","0.0-1.0-756.0","0","0","45707","","null","","","null","83","","","","","","","","","","","","","","","NaN",""
"","S1","","html-keyboard-response","557","646099","0.0-1.0-758.0","0","0","45707","","null","","","null","84","","","","","","","","","","","","","","","",""
"","ISI","","html-keyboard-response","558","647106","0.0-1.0-759.0","0","0","45707","","null","","","null","84","NaN","","","","","","","","","","","","","","",""
"","S2","","html-keyboard-response","559","647367","0.0-1.0-760.0","0","0","45707","","null","","","null","84","","NaN","","","","","","","","","","","","","",""
"","response","","html-keyboard-response","560","647954","0.0-1.0-761.0-0.0","0","0","45707","","584","","","75","84","","","2","84","training","adjacent","CB","3","2","M.jpg","P.jpg","1","0","0","",""
"","feedback","","html-keyboard-response","561","648965","0.0-1.0-762.0-0.0","0","0","45707","","null","","","null","84","","","","","","","","","","","","","","","",""
"","time_out","","html-keyboard-response","562","650971","0.0-1.0-764.0-0.0","0","0","45707","","null","","","null","84","","","","","","","","","","","","","","","",""
"","ITI","","html-keyboard-response","563","651976","0.0-1.0-765.0","0","0","45707","","null","","","null","84","","","","","","","","","","","","","","","NaN",""
"","S1","","html-keyboard-response","564","652237","0.0-1.0-767.0","0","0","45707","","null","","","null","85","","","","","","","","","","","","","","","",""
"","ISI","","html-keyboard-response","565","653248","0.0-1.0-768.0","0","0","45707","","null","","","null","85","NaN","","","","","","","","","","","","","","",""
"","S2","","html-keyboard-response","566","653501","0.0-1.0-769.0","0","0","45707","","null","","","null","85","","NaN","","","","","","","","","","","","","",""
"","response","","html-keyboard-response","567","653642","0.0-1.0-770.0-0.0","0","0","45707","","138","","","75","85","","","2","85","training","adjacent","AB","1","2","R.jpg","P.jpg","1","1","1","",""
"","feedback","","html-keyboard-response","568","654658","0.0-1.0-771.0-0.0","0","0","45707","","null","","","null","85","","","","","","","","","","","","","","","",""
"","ITI","","html-keyboard-response","569","655662","0.0-1.0-774.0","0","0","45707","","null","","","null","85","","","","","","","","","","","","","","","NaN",""
"","S1","","html-keyboard-response","570","655922","0.0-1.0-776.0","0","0","45707","","null","","","null","86","","","","","","","","","","","","","","","",""
"","ISI","","html-keyboard-response","571","656926","0.0-1.0-777.0","0","0","45707","","null","","","null","86","NaN","","","","","","","","","","","","","","",""
"","S2","","html-keyboard-response","572","657187","0.0-1.0-778.0","0","0","45707","","null","","","null","86","","NaN","","","","","","","","","","","","","",""
"","response","","html-keyboard-response","573","657767","0.0-1.0-779.0-0.0","0","0","45707","","577","","","75","86","","","2","86","training","adjacent","ED","5","4","O.jpg","L.jpg","1","0","0","",""
"","feedback","","html-keyboard-response","574","658772","0.0-1.0-780.0-0.0","0","0","45707","","null","","","null","86","","","","","","","","","","","","","","","",""
"","time_out","","html-keyboard-response","575","660788","0.0-1.0-782.0-0.0","0","0","45707","","null","","","null","86","","","","","","","","","","","","","","","",""
"","ITI","","html-keyboard-response","576","661791","0.0-1.0-783.0","0","0","45707","","null","","","null","86","","","","","","","","","","","","","","","NaN",""
"","S1","","html-keyboard-response","577","662045","0.0-1.0-785.0","0","0","45707","","null","","","null","87","","","","","","","","","","","","","","","",""
"","ISI","","html-keyboard-response","578","663050","0.0-1.0-786.0","0","0","45707","","null","","","null","87","NaN","","","","","","","","","","","","","","",""
"","S2","","html-keyboard-response","579","663306","0.0-1.0-787.0","0","0","45707","","null","","","null","87","","NaN","","","","","","","","","","","","","",""
"","response","","html-keyboard-response","580","663725","0.0-1.0-788.0-0.0","0","0","45707","","415","","","68","87","","","2","87","training","adjacent","CD","3","4","M.jpg","L.jpg","0","1","0","",""
