"success","ttype","start_time","trial_type","trial_index","time_elapsed","internal_node_id","warning","missed_checkup","PID","view_history","rt","responses","repeat_instructions","key_press","index","keypress_isi","keypress_S2","block","trial_num","phase","group_type","pair_type","S1_stim","S2_stim","S1_img","S2_img","S1_chosen","S1_higher","accuracy","keypress_iti","total_bonus_tally"
"true","full_screen","d03042023hr1705","fullscreen","0","28756","0.0-0.0","0","0","71491","","","","","","","","","","","","","","","","","","","","","",""
"","instructions","","instructions","1","69011","0.0-1.0-0.0-0.0","0","0","71491","[{""page_index"":0,""viewing_time"":15638},{""page_index"":1,""viewing_time"":94},{""page_index"":2,""viewing_time"":20727},{""page_index"":3,""viewing_time"":3792}]","40252","","","","","","","","","","","","","","","","","","","",""
"","comprehension_check","","survey-multi-choice","2","120354","0.0-1.0-0.0-1.0","0","0","71491","","51337","{""Q0"":""True"",""Q1"":""D"",""Q2"":""Once the second image appears and while the screen 'MAKE A CHOICE' is shown"",""Q3"":""Green mark"",""Q4"":""either D or K""}","1","","","","","","","","","","","","","","","","","",""
"","missed_instruction_checkup","","html-keyboard-response","3","129913","0.0-1.0-0.0-2.0-0.0","0","1","71491","","9553","","","32","","","","","","","","","","","","","","","","",""
"","instructions","","instructions","4","223045","0.0-1.0-0.1-0.1","0","0","71491","[{""page_index"":0,""viewing_time"":22049},{""page_index"":1,""viewing_time"":52094},{""page_index"":2,""viewing_time"":16198},{""page_index"":3,""viewing_time"":2788}]","93129","","","","","","","","","","","","","","","","","","","",""
"","comprehension_check","","survey-multi-choice","5","255926","0.0-1.0-0.1-1.1","0","0","71491","","32876","{""Q0"":""True"",""Q1"":""K"",""Q2"":""Once the second image appears and while the screen 'MAKE A CHOICE' is shown"",""Q3"":""Green mark"",""Q4"":""either D or K""}","0","","","","","","","","","","","","","","","","","",""
"","start_exp","","html-keyboard-response","6","263282","0.0-1.0-1.0","0","0","71491","","7351","","","32","","","","","","","","","","","","","","","","",""
"","S1","","html-keyboard-response","7","263535","0.0-1.0-2.0","0","0","71491","","null","","","null","0","","","","","","","","","","","","","","","",""
"","ISI","","html-keyboard-response","8","264038","0.0-1.0-3.0","0","0","71491","","null","","","null","0","NaN","","","","","","","","","","","","","","",""
"","S2","","html-keyboard-response","9","264292","0.0-1.0-4.0","0","0","71491","","null","","","null","0","","NaN","","","","","","","","","","","","","",""
"","response","","html-keyboard-response","10","264703","0.0-1.0-5.0-0.0","0","0","71491","","409","","","75","0","","","1","0","training","adjacent","GF","7","6","Q.jpg","M.jpg","1","0","0","",""
"","feedback","","html-keyboard-response","11","265707","0.0-1.0-6.0-0.0","0","0","71491","","null","","","null","0","","","","","","","","","","","","","","","",""
"","time_out","","html-keyboard-response","12","267710","0.0-1.0-8.0-0.0","0","0","71491","","null","","","null","0","","","","","","","","","","","","","","","",""
"","ITI","","html-keyboard-response","13","268727","0.0-1.0-9.0","0","0","71491","","null","","","null","0","","","","","","","","","","","","","","","NaN",""
"","S1","","html-keyboard-response","14","268980","0.0-1.0-11.0","0","0","71491","","null","","","null","1","","","","","","","","","","","","","","","",""
"","ISI","","html-keyboard-response","15","269482","0.0-1.0-12.0","0","0","71491","","null","","","null","1","NaN","","","","","","","","","","","","","","",""
"","S2","","html-keyboard-response","16","269736","0.0-1.0-13.0","0","0","71491","","null","","","null","1","","NaN","","","","","","","","","","","","","",""
"","response","","html-keyboard-response","17","270080","0.0-1.0-14.0-0.0","0","0","71491","","342","","","68","1","","","1","1","training","adjacent","GF","7","6","Q.jpg","M.jpg","0","0","1","",""
"","feedback","","html-keyboard-response","18","271083","0.0-1.0-15.0-0.0","0","0","71491","","null","","","null","1","","","","","","","","","","","","","","","",""
"","ITI","","html-keyboard-response","19","272085","0.0-1.0-18.0","0","0","71491","","null","","","null","1","","","","","","","","","","","","","","","NaN",""
"","S1","","html-keyboard-response","20","272338","0.0-1.0-20.0","0","0","71491","","null","","","null","2","","","","","","","","","","","","","","","",""
"","ISI","","html-keyboard-response","21","272842","0.0-1.0-21.0","0","0","71491","","null","","","null","2","NaN","","","","","","","","","","","","","","",""
"","S2","","html-keyboard-response","22","273094","0.0-1.0-22.0","0","0","71491","","null","","","null","2","","NaN","","","","","","","","","","","","","",""
"","response","","html-keyboard-response","23","273505","0.0-1.0-23.0-0.0","0","0","71491","","408","","","68","2","","","1","2","training","adjacent","BC","2","3","R.jpg","P.jpg","0","1","0","",""
"","feedback","","html-keyboard-response","24","274507","0.0-1.0-24.0-0.0","0","0","71491","","null","","","null","2","","","","","","","","","","","","","","","",""
"","time_out","","html-keyboard-response","25","276511","0.0-1.0-26.0-0.0","0","0","71491","","null","","","null","2","","","","","","","","","","","","","","","",""
"","ITI","","html-keyboard-response","26","277514","0.0-1.0-27.0","0","0","71491","","null","","","null","2","","","","","","","","","","","","","","","NaN",""
"","S1","","html-keyboard-response","27","277767","0.0-1.0-29.0","0","0","71491","","null","","","null","3","","","","","","","","","","","","","","","",""
"","ISI","","html-keyboard-response","28","278269","0.0-1.0-30.0","0","0","71491","","null","","","null","3","NaN","","","","","","","","","","","","","","",""
"","S2","","html-keyboard-response","29","278525","0.0-1.0-31.0","0","0","71491","","null","","","null","3","","NaN","","","","","","","","","","","","","",""
"","response","","html-keyboard-response","30","278724","0.0-1.0-32.0-0.0","0","0","71491","","196","","","68","3","","","1","3","training","adjacent","ED","5","4","O.jpg","N.jpg","0","0","1","",""
"","feedback","","html-keyboard-response","31","279729","0.0-1.0-33.0-0.0","0","0","71491","","null","","","null","3","","","","","","","","","","","","","","","",""
"","ITI","","html-keyboard-response","32","280731","0.0-1.0-36.0","0","0","71491","","null","","","null","3","","","","","","","","","","","","","","","NaN",""
"","S1","","html-keyboard-response","33","280984","0.0-1.0-38.0","0","0","71491","","null","","","null","4","","","","","","","","","","","","","","","",""
"","ISI","","html-keyboard-response","34","281486","0.0-1.0-39.0","0","0","71491","","null","","","null","4","NaN","","","","","","","","","","","","","","",""
"","S2","","html-keyboard-response","35","281661","0.0-1.0-40.0","0","0","71491","","174","","","75","4","","k","1","4","training","adjacent","BC","2","3","R.jpg","P.jpg","1","1","1","",""
"","feedback","","html-keyboard-response","36","282664","0.0-1.0-42.0-0.0","0","0","71491","","null","","","null","4","","","","","","","","","","","","","","","",""
"","ITI","","html-keyboard-response","37","283668","0.0-1.0-45.0","0","0","71491","","null","","","null","4","","","","","","","","","","","","","","","NaN",""
"","S1","","html-keyboard-response","38","283920","0.0-1.0-47.0","0","0","71491","","null","","","null","5","","","","","","","","","","","","","","","",""
"","ISI","","html-keyboard-response","39","284424","0.0-1.0-48.0","0","0","71491","","null","","","null","5","NaN","","","","","","","","","","","","","","",""
"","S2","","html-keyboard-response","40","284676","0.0-1.0-49.0","0","0","71491","","null","","","null","5","","NaN","","","","","","","","","","","","","",""
"","response","","html-keyboard-response","41","284896","0.0-1.0-50.0-0.0","0","0","71491","","218","","","68","5","","","1","5","training","adjacent","CB","3","2","P.jpg","R.jpg","0","0","1","",""
"","feedback","","html-keyboard-response","42","285900","0.0-1.0-51.0-0.0","0","0","71491","","null","","","null","5","","","","","","","","","","","","","","","",""
"","ITI","","html-keyboard-response","43","286902","0.0-1.0-54.0","0","0","71491","","null","","","null","5","","","","","","","","","","","","","","","NaN",""
"","S1","","html-keyboard-response","44","287155","0.0-1.0-56.0","0","0","71491","","null","","","null","6","","","","","","","","","","","","","","","",""
"","ISI","","html-keyboard-response","45","287658","0.0-1.0-57.0","0","0","71491","","null","","","null","6","NaN","","","","","","","","","","","","","","",""
"","S2","","html-keyboard-response","46","287911","0.0-1.0-58.0","0","0","71491","","null","","","null","6","","NaN","","","","","","","","","","","","","",""
"","response","","html-keyboard-response","47","287947","0.0-1.0-59.0-0.0","0","0","71491","","34","","","75","6","","","1","6","training","adjacent","FE","6","5","M.jpg","O.jpg","1","0","0","",""
"","feedback","","html-keyboard-response","48","288951","0.0-1.0-60.0-0.0","0","0","71491","","null","","","null","6","","","","","","","","","","","","","","","",""
"","time_out","","html-keyboard-response","49","290954","0.0-1.0-62.0-0.0","0","0","71491","","null","","","null","6","","","","","","","","","","","","","","","",""
"","ITI","","html-keyboard-response","50","291957","0.0-1.0-63.0","0","0","71491","","null","","","null","6","","","","","","","","","","","","","","","NaN",""
"","S1","","html-keyboard-response","51","292209","0.0-1.0-65.0","0","0","71491","","null","","","null","7","","","","","","","","","","","","","","","",""
"","ISI","","html-keyboard-response","52","292720","0.0-1.0-66.0","0","0","71491","","null","","","null","7","NaN","","","","","","","","","","","","","","",""
"","S2","","html-keyboard-response","53","292973","0.0-1.0-67.0","0","0","71491","","null","","","null","7","","NaN","","","","","","","","","","","","","",""
"","response","","html-keyboard-response","54","293400","0.0-1.0-68.0-0.0","0","0","71491","","425","","","75","7","","","1","7","training","adjacent","CB","3","2","P.jpg","R.jpg","1","0","0","",""
"","feedback","","html-keyboard-response","55","294403","0.0-1.0-69.0-0.0","0","0","71491","","null","","","null","7","","","","","","","","","","","","","","","",""
"","time_out","","html-keyboard-response","56","296406","0.0-1.0-71.0-0.0","0","0","71491","","null","","","null","7","","","","","","","","","","","","","","","",""
"","ITI","","html-keyboard-response","57","297408","0.0-1.0-72.0","0","0","71491","","null","","","null","7","","","","","","","","","","","","","","","NaN",""
"","S1","","html-keyboard-response","58","297661","0.0-1.0-74.0","0","0","71491","","null","","","null","8","","","","","","","","","","","","","","","",""
"","ISI","","html-keyboard-response","59","298163","0.0-1.0-75.0","0","0","71491","","null","","","null","8","NaN","","","","","","","","","","","","","","",""
"","S2","","html-keyboard-response","60","298416","0.0-1.0-76.0","0","0","71491","","null","","","null","8","","NaN","","","","","","","","","","","","","",""
"","response","","html-keyboard-response","61","298831","0.0-1.0-77.0-0.0","0","0","71491","","413","","","68","8","","","1","8","training","adjacent","AB","1","2","L.jpg","R.jpg","0","1","0","",""
"","feedback","","html-keyboard-response","62","299834","0.0-1.0-78.0-0.0","0","0","71491","","null","","","null","8","","","","","","","","","","","","","","","",""
"","time_out","","html-keyboard-response","63","301836","0.0-1.0-80.0-0.0","0","0","71491","","null","","","null","8","","","","","","","","","","","","","","","",""
"","ITI","","html-keyboard-response","64","302840","0.0-1.0-81.0","0","0","71491","","null","","","null","8","","","","","","","","","","","","","","","NaN",""
"","S1","","html-keyboard-response","65","303092","0.0-1.0-83.0","0","0","71491","","null","","","null","9","","","","","","","","","","","","","","","",""
"","ISI","","html-keyboard-response","66","303595","0.0-1.0-84.0","0","0","71491","","null","","","null","9","NaN","","","","","","","","","","","","","","",""
"","S2","","html-keyboard-response","67","303849","0.0-1.0-85.0","0","0","71491","","null","","","null","9","","NaN","","","","","","","","","","","","","",""
"","response","","html-keyboard-response","68","304353","0.0-1.0-86.0-0.0","0","0","71491","","503","","","68","9","","","1","9","training","adjacent","GF","7","6","Q.jpg","M.jpg","0","0","1","",""
"","feedback","","html-keyboard-response","69","305356","0.0-1.0-87.0-0.0","0","0","71491","","null","","","null","9","","","","","","","","","","","","","","","",""
"","ITI","","html-keyboard-response","70","306358","0.0-1.0-90.0","0","0","71491","","null","","","null","9","","","","","","","","","","","","","","","NaN",""
"","S1","","html-keyboard-response","71","306611","0.0-1.0-92.0","0","0","71491","","null","","","null","10","","","","","","","","","","","","","","","",""
"","ISI","","html-keyboard-response","72","307113","0.0-1.0-93.0","0","0","71491","","null","","","null","10","NaN","","","","","","","","","","","","","","",""
"","S2","","html-keyboard-response","73","307366","0.0-1.0-94.0","0","0","71491","","null","","","null","10","","NaN","","","","","","","","","","","","","",""
"","response","","html-keyboard-response","74","307797","0.0-1.0-95.0-0.0","0","0","71491","","428","","","75","10","","","1","10","training","adjacent","AB","1","2","L.jpg","R.jpg","1","1","1","",""
"","feedback","","html-keyboard-response","75","308799","0.0-1.0-96.0-0.0","0","0","71491","","null","","","null","10","","","","","","","","","","","","","","","",""
"","ITI","","html-keyboard-response","76","309801","0.0-1.0-99.0","0","0","71491","","null","","","null","10","","","","","","","","","","","","","","","NaN",""
"","S1","","html-keyboard-response","77","310054","0.0-1.0-101.0","0","0","71491","","null","","","null","11","","","","","","","","","","","","","","","",""
"","ISI","","html-keyboard-response","78","310556","0.0-1.0-102.0","0","0","71491","","null","","","null","11","NaN","","","","","","","","","","","","","","",""
"","S2","","html-keyboard-response","79","310809","0.0-1.0-103.0","0","0","71491","","null","","","null","11","","NaN","","","","","","","","","","","","","",""
"","response","","html-keyboard-response","80","311290","0.0-1.0-104.0-0.0","0","0","71491","","480","","","75","11","","","1","11","training","adjacent","DC","4","3","N.jpg","P.jpg","1","0","0","",""
"","feedback","","html-keyboard-response","81","312293","0.0-1.0-105.0-0.0","0","0","71491","","null","","","null","11","","","","","","","","","","","","","","","",""
"","time_out","","html-keyboard-response","82","314294","0.0-1.0-107.0-0.0","0","0","71491","","null","","","null","11","","","","","","","","","","","","","","","",""
"","ITI","","html-keyboard-response","83","315297","0.0-1.0-108.0","0","0","71491","","null","","","null","11","","","","","","","","","","","","","","","NaN",""
"","S1","","html-keyboard-response","84","315551","0.0-1.0-110.0","0","0","71491","","null","","","null","12","","","","","","","","","","","","","","","",""
"","ISI","","html-keyboard-response","85","316054","0.0-1.0-111.0","0","0","71491","","null","","","null","12","NaN","","","","","","","","","","","","","","",""
"","S2","","html-keyboard-response","86","316307","0.0-1.0-112.0","0","0","71491","","null","","","null","12","","NaN","","","","","","","","","","","","","",""
"","response","","html-keyboard-response","87","316801","0.0-1.0-113.0-0.0","0","0","71491","","493","","","75","12","","","1","12","training","adjacent","DC","4","3","N.jpg","P.jpg","1","0","0","",""
"","feedback","","html-keyboard-response","88","317804","0.0-1.0-114.0-0.0","0","0","71491","","null","","","null","12","","","","","","","","","","","","","","","",""
"","time_out","","html-keyboard-response","89","319806","0.0-1.0-116.0-0.0","0","0","71491","","null","","","null","12","","","","","","","","","","","","","","","",""
"","ITI","","html-keyboard-response","90","320810","0.0-1.0-117.0","0","0","71491","","null","","","null","12","","","","","","","","","","","","","","","NaN",""
"","S1","","html-keyboard-response","91","321063","0.0-1.0-119.0","0","0","71491","","null","","","null","13","","","","","","","","","","","","","","","",""
"","ISI","","html-keyboard-response","92","321566","0.0-1.0-120.0","0","0","71491","","null","","","null","13","NaN","","","","","","","","","","","","","","",""
"","S2","","html-keyboard-response","93","321819","0.0-1.0-121.0","0","0","71491","","null","","","null","13","","NaN","","","","","","","","","","","","","",""
"","response","","html-keyboard-response","94","322373","0.0-1.0-122.0-0.0","0","0","71491","","551","","","75","13","","","1","13","training","adjacent","CD","3","4","P.jpg","N.jpg","1","1","1","",""
"","feedback","","html-keyboard-response","95","323376","0.0-1.0-123.0-0.0","0","0","71491","","null","","","null","13","","","","","","","","","","","","","","","",""
"","ITI","","html-keyboard-response","96","324378","0.0-1.0-126.0","0","0","71491","","null","","","null","13","","","","","","","","","","","","","","","NaN",""
"","S1","","html-keyboard-response","97","324632","0.0-1.0-128.0","0","0","71491","","null","","","null","14","","","","","","","","","","","","","","","",""
"","ISI","","html-keyboard-response","98","325134","0.0-1.0-129.0","0","0","71491","","null","","","null","14","NaN","","","","","","","","","","","","","","",""
"","S2","","html-keyboard-response","99","325387","0.0-1.0-130.0","0","0","71491","","null","","","null","14","","NaN","","","","","","","","","","","","","",""
"","response","","html-keyboard-response","100","325662","0.0-1.0-131.0-0.0","0","0","71491","","274","","","68","14","","","1","14","training","adjacent","FE","6","5","M.jpg","O.jpg","0","0","1","",""
"","feedback","","html-keyboard-response","101","326666","0.0-1.0-132.0-0.0","0","0","71491","","null","","","null","14","","","","","","","","","","","","","","","",""
"","ITI","","html-keyboard-response","102","327668","0.0-1.0-135.0","0","0","71491","","null","","","null","14","","","","","","","","","","","","","","","NaN",""
"","S1","","html-keyboard-response","103","327921","0.0-1.0-137.0","0","0","71491","","null","","","null","15","","","","","","","","","","","","","","","",""
"","ISI","","html-keyboard-response","104","328436","0.0-1.0-138.0","0","0","71491","","null","","","null","15","NaN","","","","","","","","","","","","","","",""
"","S2","","html-keyboard-response","105","328690","0.0-1.0-139.0","0","0","71491","","null","","","null","15","","NaN","","","","","","","","","","","","","",""
"","response","","html-keyboard-response","106","328853","0.0-1.0-140.0-0.0","0","0","71491","","161","","","75","15","","","1","15","training","adjacent","DC","4","3","N.jpg","P.jpg","1","0","0","",""
"","feedback","","html-keyboard-response","107","329857","0.0-1.0-141.0-0.0","0","0","71491","","null","","","null","15","","","","","","","","","","","","","","","",""
"","time_out","","html-keyboard-response","108","331860","0.0-1.0-143.0-0.0","0","0","71491","","null","","","null","15","","","","","","","","","","","","","","","",""
"","ITI","","html-keyboard-response","109","332862","0.0-1.0-144.0","0","0","71491","","null","","","null","15","","","","","","","","","","","","","","","NaN",""
"","S1","","html-keyboard-response","110","333114","0.0-1.0-146.0","0","0","71491","","null","","","null","16","","","","","","","","","","","","","","","",""
"","ISI","","html-keyboard-response","111","333617","0.0-1.0-147.0","0","0","71491","","null","","","null","16","NaN","","","","","","","","","","","","","","",""
"","S2","","html-keyboard-response","112","333870","0.0-1.0-148.0","0","0","71491","","null","","","null","16","","NaN","","","","","","","","","","","","","",""
"","response","","html-keyboard-response","113","334260","0.0-1.0-149.0-0.0","0","0","71491","","388","","","68","16","","","1","16","training","adjacent","FE","6","5","M.jpg","O.jpg","0","0","1","",""
"","feedback","","html-keyboard-response","114","335262","0.0-1.0-150.0-0.0","0","0","71491","","null","","","null","16","","","","","","","","","","","","","","","",""
"","ITI","","html-keyboard-response","115","336265","0.0-1.0-153.0","0","0","71491","","null","","","null","16","","","","","","","","","","","","","","","NaN",""
"","S1","","html-keyboard-response","116","336519","0.0-1.0-155.0","0","0","71491","","null","","","null","17","","","","","","","","","","","","","","","",""
"","ISI","","html-keyboard-response","117","337022","0.0-1.0-156.0","0","0","71491","","null","","","null","17","NaN","","","","","","","","","","","","","","",""
"","S2","","html-keyboard-response","118","337275","0.0-1.0-157.0","0","0","71491","","null","","","null","17","","NaN","","","","","","","","","","","","","",""
"","response","","html-keyboard-response","119","337695","0.0-1.0-158.0-0.0","0","0","71491","","418","","","68","17","","","1","17","training","adjacent","DE","4","5","N.jpg","O.jpg","0","1","0","",""
"","feedback","","html-keyboard-response","120","338699","0.0-1.0-159.0-0.0","0","0","71491","","null","","","null","17","","","","","","","","","","","","","","","",""
"","time_out","","html-keyboard-response","121","340713","0.0-1.0-161.0-0.0","0","0","71491","","null","","","null","17","","","","","","","","","","","","","","","",""
"","ITI","","html-keyboard-response","122","341717","0.0-1.0-162.0","0","0","71491","","null","","","null","17","","","","","","","","","","","","","","","NaN",""
"","S1","","html-keyboard-response","123","341969","0.0-1.0-164.0","0","0","71491","","null","","","null","18","","","","","","","","","","","","","","","",""
"","ISI","","html-keyboard-response","124","342471","0.0-1.0-165.0","0","0","71491","","null","","","null","18","NaN","","","","","","","","","","","","","","",""
"","S2","","html-keyboard-response","125","342724","0.0-1.0-166.0","0","0","71491","","null","","","null","18","","NaN","","","","","","","","","","","","","",""
"","response","","html-keyboard-response","126","343122","0.0-1.0-167.0-0.0","0","0","71491","","396","","","68","18","","","1","18","training","adjacent","CD","3","4","P.jpg","N.jpg","0","1","0","",""
"","feedback","","html-keyboard-response","127","344125","0.0-1.0-168.0-0.0","0","0","71491","","null","","","null","18","","","","","","","","","","","","","","","",""
"","time_out","","html-keyboard-response","128","346128","0.0-1.0-170.0-0.0","0","0","71491","","null","","","null","18","","","","","","","","","","","","","","","",""
"","ITI","","html-keyboard-response","129","347131","0.0-1.0-171.0","0","0","71491","","null","","","null","18","","","","","","","","","","","","","","","NaN",""
"","S1","","html-keyboard-response","130","347384","0.0-1.0-173.0","0","0","71491","","null","","","null","19","","","","","","","","","","","","","","","",""
"","ISI","","html-keyboard-response","131","347886","0.0-1.0-174.0","0","0","71491","","null","","","null","19","NaN","","","","","","","","","","","","","","",""
"","S2","","html-keyboard-response","132","348139","0.0-1.0-175.0","0","0","71491","","null","","","null","19","","NaN","","","","","","","","","","","","","",""
"","response","","html-keyboard-response","133","348612","0.0-1.0-176.0-0.0","0","0","71491","","471","","","75","19","","","1","19","training","adjacent","DE","4","5","N.jpg","O.jpg","1","1","1","",""
"","feedback","","html-keyboard-response","134","349619","0.0-1.0-177.0-0.0","0","0","71491","","null","","","null","19","","","","","","","","","","","","","","","",""
"","ITI","","html-keyboard-response","135","350624","0.0-1.0-180.0","0","0","71491","","null","","","null","19","","","","","","","","","","","","","","","NaN",""
"","S1","","html-keyboard-response","136","350876","0.0-1.0-182.0","0","0","71491","","null","","","null","20","","","","","","","","","","","","","","","",""
"","ISI","","html-keyboard-response","137","351378","0.0-1.0-183.0","0","0","71491","","null","","","null","20","NaN","","","","","","","","","","","","","","",""
"","S2","","html-keyboard-response","138","351631","0.0-1.0-184.0","0","0","71491","","null","","","null","20","","NaN","","","","","","","","","","","","","",""
"","response","","html-keyboard-response","139","352132","0.0-1.0-185.0-0.0","0","0","71491","","499","","","68","20","","","1","20","training","adjacent","EF","5","6","O.jpg","M.jpg","0","1","0","",""
"","feedback","","html-keyboard-response","140","353135","0.0-1.0-186.0-0.0","0","0","71491","","null","","","null","20","","","","","","","","","","","","","","","",""
"","time_out","","html-keyboard-response","141","355138","0.0-1.0-188.0-0.0","0","0","71491","","null","","","null","20","","","","","","","","","","","","","","","",""
"","ITI","","html-keyboard-response","142","356140","0.0-1.0-189.0","0","0","71491","","null","","","null","20","","","","","","","","","","","","","","","NaN",""
"","S1","","html-keyboard-response","143","356393","0.0-1.0-191.0","0","0","71491","","null","","","null","21","","","","","","","","","","","","","","","",""
"","ISI","","html-keyboard-response","144","356895","0.0-1.0-192.0","0","0","71491","","null","","","null","21","NaN","","","","","","","","","","","","","","",""
"","S2","","html-keyboard-response","145","357148","0.0-1.0-193.0","0","0","71491","","null","","","null","21","","NaN","","","","","","","","","","","","","",""
"","response","","html-keyboard-response","146","357638","0.0-1.0-194.0-0.0","0","0","71491","","489","","","75","21","","","1","21","training","adjacent","FE","6","5","M.jpg","O.jpg","1","0","0","",""
"","feedback","","html-keyboard-response","147","358653","0.0-1.0-195.0-0.0","0","0","71491","","null","","","null","21","","","","","","","","","","","","","","","",""
"","time_out","","html-keyboard-response","148","360656","0.0-1.0-197.0-0.0","0","0","71491","","null","","","null","21","","","","","","","","","","","","","","","",""
"","ITI","","html-keyboard-response","149","361659","0.0-1.0-198.0","0","0","71491","","null","","","null","21","","","","","","","","","","","","","","","NaN",""
"","S1","","html-keyboard-response","150","361914","0.0-1.0-200.0","0","0","71491","","null","","","null","22","","","","","","","","","","","","","","","",""
"","ISI","","html-keyboard-response","151","362417","0.0-1.0-201.0","0","0","71491","","null","","","null","22","NaN","","","","","","","","","","","","","","",""
"","S2","","html-keyboard-response","152","362671","0.0-1.0-202.0","0","0","71491","","null","","","null","22","","NaN","","","","","","","","","","","","","",""
"","response","","html-keyboard-response","153","363176","0.0-1.0-203.0-0.0","0","0","71491","","503","","","68","22","","","1","22","training","adjacent","ED","5","4","O.jpg","N.jpg","0","0","1","",""
"","feedback","","html-keyboard-response","154","364179","0.0-1.0-204.0-0.0","0","0","71491","","null","","","null","22","","","","","","","","","","","","","","","",""
"","ITI","","html-keyboard-response","155","365181","0.0-1.0-207.0","0","0","71491","","null","","","null","22","","","","","","","","","","","","","","","NaN",""
"","S1","","html-keyboard-response","156","365434","0.0-1.0-209.0","0","0","71491","","null","","","null","23","","","","","","","","","","","","","","","",""
"","ISI","","html-keyboard-response","157","365937","0.0-1.0-210.0","0","0","71491","","null","","","null","23","NaN","","","","","","","","","","","","","","",""
"","S2","","html-keyboard-response","158","366195","0.0-1.0-211.0","0","0","71491","","null","","","null","23","","NaN","","","","","","","","","","","","","",""
"","response","","html-keyboard-response","159","366769","0.0-1.0-212.0-0.0","0","0","71491","","572","","","68","23","","","1","23","training","adjacent","CD","3","4","P.jpg","N.jpg","0","1","0","",""
"","feedback","","html-keyboard-response","160","367771","0.0-1.0-213.0-0.0","0","0","71491","","null","","","null","23","","","","","","","","","","","","","","","",""
"","time_out","","html-keyboard-response","161","369774","0.0-1.0-215.0-0.0","0","0","71491","","null","","","null","23","","","","","","","","","","","","","","","",""
"","ITI","","html-keyboard-response","162","370777","0.0-1.0-216.0","0","0","71491","","null","","","null","23","","","","","","","","","","","","","","","NaN",""
"","S1","","html-keyboard-response","163","371030","0.0-1.0-218.0","0","0","71491","","null","","","null","24","","","","","","","","","","","","","","","",""
"","ISI","","html-keyboard-response","164","371532","0.0-1.0-219.0","0","0","71491","","null","","","null","24","NaN","","","","","","","","","","","","","","",""
"","S2","","html-keyboard-response","165","371785","0.0-1.0-220.0","0","0","71491","","null","","","null","24","","NaN","","","","","","","","","","","","","",""
"","response","","html-keyboard-response","166","372384","0.0-1.0-221.0-0.0","0","0","71491","","597","","","75","24","","","1","24","training","adjacent","DE","4","5","N.jpg","O.jpg","1","1","1","",""
"","feedback","","html-keyboard-response","167","373387","0.0-1.0-222.0-0.0","0","0","71491","","null","","","null","24","","","","","","","","","","","","","","","",""
"","ITI","","html-keyboard-response","168","374390","0.0-1.0-225.0","0","0","71491","","null","","","null","24","","","","","","","","","","","","","","","NaN",""
"","S1","","html-keyboard-response","169","374644","0.0-1.0-227.0","0","0","71491","","null","","","null","25","","","","","","","","","","","","","","","",""
"","ISI","","html-keyboard-response","170","375146","0.0-1.0-228.0","0","0","71491","","null","","","null","25","NaN","","","","","","","","","","","","","","",""
"","S2","","html-keyboard-response","171","375400","0.0-1.0-229.0","0","0","71491","","null","","","null","25","","NaN","","","","","","","","","","","","","",""
"","response","","html-keyboard-response","172","375922","0.0-1.0-230.0-0.0","0","0","71491","","521","","","75","25","","","1","25","training","adjacent","CB","3","2","P.jpg","R.jpg","1","0","0","",""
"","feedback","","html-keyboard-response","173","376925","0.0-1.0-231.0-0.0","0","0","71491","","null","","","null","25","","","","","","","","","","","","","","","",""
"","time_out","","html-keyboard-response","174","378927","0.0-1.0-233.0-0.0","0","0","71491","","null","","","null","25","","","","","","","","","","","","","","","",""
"","ITI","","html-keyboard-response","175","379929","0.0-1.0-234.0","0","0","71491","","null","","","null","25","","","","","","","","","","","","","","","NaN",""
"","S1","","html-keyboard-response","176","380181","0.0-1.0-236.0","0","0","71491","","null","","","null","26","","","","","","","","","","","","","","","",""
"","ISI","","html-keyboard-response","177","380683","0.0-1.0-237.0","0","0","71491","","null","","","null","26","NaN","","","","","","","","","","","","","","",""
"","S2","","html-keyboard-response","178","380936","0.0-1.0-238.0","0","0","71491","","null","","","null","26","","NaN","","","","","","","","","","","","","",""
"","response","","html-keyboard-response","179","381492","0.0-1.0-239.0-0.0","0","0","71491","","554","","","68","26","","","1","26","training","adjacent","ED","5","4","O.jpg","N.jpg","0","0","1","",""
"","feedback","","html-keyboard-response","180","382505","0.0-1.0-240.0-0.0","0","0","71491","","null","","","null","26","","","","","","","","","","","","","","","",""
"","ITI","","html-keyboard-response","181","383507","0.0-1.0-243.0","0","0","71491","","null","","","null","26","","","","","","","","","","","","","","","NaN",""
"","S1","","html-keyboard-response","182","383760","0.0-1.0-245.0","0","0","71491","","null","","","null","27","","","","","","","","","","","","","","","",""
"","ISI","","html-keyboard-response","183","384264","0.0-1.0-246.0","0","0","71491","","null","","","null","27","NaN","","","","","","","","","","","","","","",""
"","S2","","html-keyboard-response","184","384517","0.0-1.0-247.0","0","0","71491","","null","","","null","27","","NaN","","","","","","","","","","","","","",""
"","response","","html-keyboard-response","185","385269","0.0-1.0-248.0-0.0","0","0","71491","","750","","","75","27","","","1","27","training","adjacent","EF","5","6","O.jpg","M.jpg","1","1","1","",""
"","feedback","","html-keyboard-response","186","386272","0.0-1.0-249.0-0.0","0","0","71491","","null","","","null","27","","","","","","","","","","","","","","","",""
"","ITI","","html-keyboard-response","187","387275","0.0-1.0-252.0","0","0","71491","","null","","","null","27","","","","","","","","","","","","","","","NaN",""
"","S1","","html-keyboard-response","188","387529","0.0-1.0-254.0","0","0","71491","","null","","","null","28","","","","","","","","","","","","","","","",""
"","ISI","","html-keyboard-response","189","388032","0.0-1.0-255.0","0","0","71491","","null","","","null","28","NaN","","","","","","","","","","","","","","",""
"","S2","","html-keyboard-response","190","388285","0.0-1.0-256.0","0","0","71491","","null","","","null","28","","NaN","","","","","","","","","","","","","",""
"","response","","html-keyboard-response","191","388747","0.0-1.0-257.0-0.0","0","0","71491","","460","","","75","28","","","1","28","training","adjacent","DE","4","5","N.jpg","O.jpg","1","1","1","",""
"","feedback","","html-keyboard-response","192","389750","0.0-1.0-258.0-0.0","0","0","71491","","null","","","null","28","","","","","","","","","","","","","","","",""
"","ITI","","html-keyboard-response","193","390753","0.0-1.0-261.0","0","0","71491","","null","","","null","28","","","","","","","","","","","","","","","NaN",""
"","S1","","html-keyboard-response","194","391006","0.0-1.0-263.0","0","0","71491","","null","","","null","29","","","","","","","","","","","","","","","",""
"","ISI","","html-keyboard-response","195","391509","0.0-1.0-264.0","0","0","71491","","null","","","null","29","NaN","","","","","","","","","","","","","","",""
"","S2","","html-keyboard-response","196","391762","0.0-1.0-265.0","0","0","71491","","null","","","null","29","","NaN","","","","","","","","","","","","","",""
"","response","","html-keyboard-response","197","392221","0.0-1.0-266.0-0.0","0","0","71491","","456","","","68","29","","","1","29","training","adjacent","BC","2","3","R.jpg","P.jpg","0","1","0","",""
"","feedback","","html-keyboard-response","198","393224","0.0-1.0-267.0-0.0","0","0","71491","","null","","","null","29","","","","","","","","","","","","","","","",""
"","time_out","","html-keyboard-response","199","395227","0.0-1.0-269.0-0.0","0","0","71491","","null","","","null","29","","","","","","","","","","","","","","","",""
"","ITI","","html-keyboard-response","200","396229","0.0-1.0-270.0","0","0","71491","","null","","","null","29","","","","","","","","","","","","","","","NaN",""
"","S1","","html-keyboard-response","201","396481","0.0-1.0-272.0","0","0","71491","","null","","","null","30","","","","","","","","","","","","","","","",""
"","ISI","","html-keyboard-response","202","396984","0.0-1.0-273.0","0","0","71491","","null","","","null","30","NaN","","","","","","","","","","","","","","",""
"","S2","","html-keyboard-response","203","397237","0.0-1.0-274.0","0","0","71491","","null","","","null","30","","NaN","","","","","","","","","","","","","",""
"","response","","html-keyboard-response","204","397572","0.0-1.0-275.0-0.0","0","0","71491","","333","","","68","30","","","1","30","training","adjacent","EF","5","6","O.jpg","M.jpg","0","1","0","",""
"","feedback","","html-keyboard-response","205","398575","0.0-1.0-276.0-0.0","0","0","71491","","null","","","null","30","","","","","","","","","","","","","","","",""
"","time_out","","html-keyboard-response","206","400578","0.0-1.0-278.0-0.0","0","0","71491","","null","","","null","30","","","","","","","","","","","","","","","",""
"","ITI","","html-keyboard-response","207","401594","0.0-1.0-279.0","0","0","71491","","null","","","null","30","","","","","","","","","","","","","","","NaN",""
"","S1","","html-keyboard-response","208","401847","0.0-1.0-281.0","0","0","71491","","null","","","null","31","","","","","","","","","","","","","","","",""
"","ISI","","html-keyboard-response","209","402350","0.0-1.0-282.0","0","0","71491","","null","","","null","31","NaN","","","","","","","","","","","","","","",""
"","S2","","html-keyboard-response","210","402603","0.0-1.0-283.0","0","0","71491","","null","","","null","31","","NaN","","","","","","","","","","","","","",""
"","response","","html-keyboard-response","211","403078","0.0-1.0-284.0-0.0","0","0","71491","","473","","","75","31","","","1","31","training","adjacent","FG","6","7","M.jpg","Q.jpg","1","1","1","",""
"","feedback","","html-keyboard-response","212","404081","0.0-1.0-285.0-0.0","0","0","71491","","null","","","null","31","","","","","","","","","","","","","","","",""
"","ITI","","html-keyboard-response","213","405084","0.0-1.0-288.0","0","0","71491","","null","","","null","31","","","","","","","","","","","","","","","NaN",""
"","S1","","html-keyboard-response","214","405336","0.0-1.0-290.0","0","0","71491","","null","","","null","32","","","","","","","","","","","","","","","",""
"","ISI","","html-keyboard-response","215","405841","0.0-1.0-291.0","0","0","71491","","null","","","null","32","NaN","","","","","","","","","","","","","","",""
"","S2","","html-keyboard-response","216","406093","0.0-1.0-292.0","0","0","71491","","null","","","null","32","","NaN","","","","","","","","","","","","","",""
"","response","","html-keyboard-response","217","406522","0.0-1.0-293.0-0.0","0","0","71491","","427","","","68","32","","","1","32","training","adjacent","BA","2","1","R.jpg","L.jpg","0","0","1","",""
"","feedback","","html-keyboard-response","218","407525","0.0-1.0-294.0-0.0","0","0","71491","","null","","","null","32","","","","","","","","","","","","","","","",""
"","ITI","","html-keyboard-response","219","408529","0.0-1.0-297.0","0","0","71491","","null","","","null","32","","","","","","","","","","","","","","","NaN",""
"","S1","","html-keyboard-response","220","408781","0.0-1.0-299.0","0","0","71491","","null","","","null","33","","","","","","","","","","","","","","","",""
"","ISI","","html-keyboard-response","221","409298","0.0-1.0-300.0","0","0","71491","","null","","","null","33","NaN","","","","","","","","","","","","","","",""
"","S2","","html-keyboard-response","222","409551","0.0-1.0-301.0","0","0","71491","","null","","","null","33","","NaN","","","","","","","","","","","","","",""
"","response","","html-keyboard-response","223","409903","0.0-1.0-302.0-0.0","0","0","71491","","350","","","68","33","","","1","33","training","adjacent","BC","2","3","R.jpg","P.jpg","0","1","0","",""
"","feedback","","html-keyboard-response","224","410906","0.0-1.0-303.0-0.0","0","0","71491","","null","","","null","33","","","","","","","","","","","","","","","",""
"","time_out","","html-keyboard-response","225","412908","0.0-1.0-305.0-0.0","0","0","71491","","null","","","null","33","","","","","","","","","","","","","","","",""
"","ITI","","html-keyboard-response","226","413912","0.0-1.0-306.0","0","0","71491","","null","","","null","33","","","","","","","","","","","","","","","NaN",""
"","S1","","html-keyboard-response","227","414165","0.0-1.0-308.0","0","0","71491","","null","","","null","34","","","","","","","","","","","","","","","",""
"","ISI","","html-keyboard-response","228","414667","0.0-1.0-309.0","0","0","71491","","null","","","null","34","NaN","","","","","","","","","","","","","","",""
"","S2","","html-keyboard-response","229","414919","0.0-1.0-310.0","0","0","71491","","null","","","null","34","","NaN","","","","","","","","","","","","","",""
"","response","","html-keyboard-response","230","415359","0.0-1.0-311.0-0.0","0","0","71491","","437","","","68","34","","","1","34","training","adjacent","AB","1","2","L.jpg","R.jpg","0","1","0","",""
"","feedback","","html-keyboard-response","231","416361","0.0-1.0-312.0-0.0","0","0","71491","","null","","","null","34","","","","","","","","","","","","","","","",""
"","time_out","","html-keyboard-response","232","418364","0.0-1.0-314.0-0.0","0","0","71491","","null","","","null","34","","","","","","","","","","","","","","","",""
"","ITI","","html-keyboard-response","233","419366","0.0-1.0-315.0","0","0","71491","","null","","","null","34","","","","","","","","","","","","","","","NaN",""
"","S1","","html-keyboard-response","234","419619","0.0-1.0-317.0","0","0","71491","","null","","","null","35","","","","","","","","","","","","","","","",""
"","ISI","","html-keyboard-response","235","420122","0.0-1.0-318.0","0","0","71491","","null","","","null","35","NaN","","","","","","","","","","","","","","",""
"","S2","","html-keyboard-response","236","420375","0.0-1.0-319.0","0","0","71491","","null","","","null","35","","NaN","","","","","","","","","","","","","",""
"","response","","html-keyboard-response","237","420889","0.0-1.0-320.0-0.0","0","0","71491","","512","","","75","35","","","1","35","training","adjacent","BA","2","1","R.jpg","L.jpg","1","0","0","",""
"","feedback","","html-keyboard-response","238","421891","0.0-1.0-321.0-0.0","0","0","71491","","null","","","null","35","","","","","","","","","","","","","","","",""
"","time_out","","html-keyboard-response","239","423894","0.0-1.0-323.0-0.0","0","0","71491","","null","","","null","35","","","","","","","","","","","","","","","",""
"","ITI","","html-keyboard-response","240","424897","0.0-1.0-324.0","0","0","71491","","null","","","null","35","","","","","","","","","","","","","","","NaN",""
"","S1","","html-keyboard-response","241","425150","0.0-1.0-326.0","0","0","71491","","null","","","null","36","","","","","","","","","","","","","","","",""
"","ISI","","html-keyboard-response","242","425652","0.0-1.0-327.0","0","0","71491","","null","","","null","36","NaN","","","","","","","","","","","","","","",""
"","S2","","html-keyboard-response","243","425905","0.0-1.0-328.0","0","0","71491","","null","","","null","36","","NaN","","","","","","","","","","","","","",""
"","response","","html-keyboard-response","244","426413","0.0-1.0-329.0-0.0","0","0","71491","","506","","","68","36","","","1","36","training","adjacent","DC","4","3","N.jpg","P.jpg","0","0","1","",""
"","feedback","","html-keyboard-response","245","427416","0.0-1.0-330.0-0.0","0","0","71491","","null","","","null","36","","","","","","","","","","","","","","","",""
"","ITI","","html-keyboard-response","246","428419","0.0-1.0-333.0","0","0","71491","","null","","","null","36","","","","","","","","","","","","","","","NaN",""
"","S1","","html-keyboard-response","247","428671","0.0-1.0-335.0","0","0","71491","","null","","","null","37","","","","","","","","","","","","","","","",""
"","ISI","","html-keyboard-response","248","429174","0.0-1.0-336.0","0","0","71491","","null","","","null","37","NaN","","","","","","","","","","","","","","",""
"","S2","","html-keyboard-response","249","429426","0.0-1.0-337.0","0","0","71491","","null","","","null","37","","NaN","","","","","","","","","","","","","",""
"","response","","html-keyboard-response","250","430399","0.0-1.0-338.0-0.0","0","0","71491","","970","","","75","37","","","1","37","training","adjacent","ED","5","4","O.jpg","N.jpg","1","0","0","",""
"","feedback","","html-keyboard-response","251","431403","0.0-1.0-339.0-0.0","0","0","71491","","null","","","null","37","","","","","","","","","","","","","","","",""
"","time_out","","html-keyboard-response","252","433406","0.0-1.0-341.0-0.0","0","0","71491","","null","","","null","37","","","","","","","","","","","","","","","",""
"","ITI","","html-keyboard-response","253","434409","0.0-1.0-342.0","0","0","71491","","null","","","null","37","","","","","","","","","","","","","","","NaN",""
"","S1","","html-keyboard-response","254","434663","0.0-1.0-344.0","0","0","71491","","null","","","null","38","","","","","","","","","","","","","","","",""
"","ISI","","html-keyboard-response","255","435165","0.0-1.0-345.0","0","0","71491","","null","","","null","38","NaN","","","","","","","","","","","","","","",""
"","S2","","html-keyboard-response","256","435418","0.0-1.0-346.0","0","0","71491","","null","","","null","38","","NaN","","","","","","","","","","","","","",""
"","response","","html-keyboard-response","257","435880","0.0-1.0-347.0-0.0","0","0","71491","","461","","","68","38","","","1","38","training","adjacent","AB","1","2","L.jpg","R.jpg","0","1","0","",""
"","feedback","","html-keyboard-response","258","436883","0.0-1.0-348.0-0.0","0","0","71491","","null","","","null","38","","","","","","","","","","","","","","","",""
"","time_out","","html-keyboard-response","259","438885","0.0-1.0-350.0-0.0","0","0","71491","","null","","","null","38","","","","","","","","","","","","","","","",""
"","ITI","","html-keyboard-response","260","439888","0.0-1.0-351.0","0","0","71491","","null","","","null","38","","","","","","","","","","","","","","","NaN",""
"","S1","","html-keyboard-response","261","440141","0.0-1.0-353.0","0","0","71491","","null","","","null","39","","","","","","","","","","","","","","","",""
"","ISI","","html-keyboard-response","262","440644","0.0-1.0-354.0","0","0","71491","","null","","","null","39","NaN","","","","","","","","","","","","","","",""
"","S2","","html-keyboard-response","263","440897","0.0-1.0-355.0","0","0","71491","","null","","","null","39","","NaN","","","","","","","","","","","","","",""
"","response","","html-keyboard-response","264","441455","0.0-1.0-356.0-0.0","0","0","71491","","556","","","68","39","","","1","39","training","adjacent","GF","7","6","Q.jpg","M.jpg","0","0","1","",""
"","feedback","","html-keyboard-response","265","442458","0.0-1.0-357.0-0.0","0","0","71491","","null","","","null","39","","","","","","","","","","","","","","","",""
"","ITI","","html-keyboard-response","266","443461","0.0-1.0-360.0","0","0","71491","","null","","","null","39","","","","","","","","","","","","","","","NaN",""
"","S1","","html-keyboard-response","267","443714","0.0-1.0-362.0","0","0","71491","","null","","","null","40","","","","","","","","","","","","","","","",""
"","ISI","","html-keyboard-response","268","444216","0.0-1.0-363.0","0","0","71491","","null","","","null","40","NaN","","","","","","","","","","","","","","",""
"","S2","","html-keyboard-response","269","444469","0.0-1.0-364.0","0","0","71491","","null","","","null","40","","NaN","","","","","","","","","","","","","",""
"","response","","html-keyboard-response","270","445307","0.0-1.0-365.0-0.0","0","0","71491","","836","","","75","40","","","1","40","training","adjacent","BA","2","1","R.jpg","L.jpg","1","0","0","",""
"","feedback","","html-keyboard-response","271","446320","0.0-1.0-366.0-0.0","0","0","71491","","null","","","null","40","","","","","","","","","","","","","","","",""
"","time_out","","html-keyboard-response","272","448323","0.0-1.0-368.0-0.0","0","0","71491","","null","","","null","40","","","","","","","","","","","","","","","",""
"","ITI","","html-keyboard-response","273","449325","0.0-1.0-369.0","0","0","71491","","null","","","null","40","","","","","","","","","","","","","","","NaN",""
"","S1","","html-keyboard-response","274","449578","0.0-1.0-371.0","0","0","71491","","null","","","null","41","","","","","","","","","","","","","","","",""
"","ISI","","html-keyboard-response","275","450081","0.0-1.0-372.0","0","0","71491","","null","","","null","41","NaN","","","","","","","","","","","","","","",""
"","S2","","html-keyboard-response","276","450333","0.0-1.0-373.0","0","0","71491","","null","","","null","41","","NaN","","","","","","","","","","","","","",""
"","response","","html-keyboard-response","277","450948","0.0-1.0-374.0-0.0","0","0","71491","","613","","","68","41","","","1","41","training","adjacent","CD","3","4","P.jpg","N.jpg","0","1","0","",""
"","feedback","","html-keyboard-response","278","451952","0.0-1.0-375.0-0.0","0","0","71491","","null","","","null","41","","","","","","","","","","","","","","","",""
"","time_out","","html-keyboard-response","279","453955","0.0-1.0-377.0-0.0","0","0","71491","","null","","","null","41","","","","","","","","","","","","","","","",""
"","ITI","","html-keyboard-response","280","454957","0.0-1.0-378.0","0","0","71491","","null","","","null","41","","","","","","","","","","","","","","","NaN",""
"","S1","","html-keyboard-response","281","455211","0.0-1.0-380.0","0","0","71491","","null","","","null","42","","","","","","","","","","","","","","","",""
"","ISI","","html-keyboard-response","282","455713","0.0-1.0-381.0","0","0","71491","","null","","","null","42","NaN","","","","","","","","","","","","","","",""
"","S2","","html-keyboard-response","283","455967","0.0-1.0-382.0","0","0","71491","","null","","","null","42","","NaN","","","","","","","","","","","","","",""
"","response","","html-keyboard-response","284","456644","0.0-1.0-383.0-0.0","0","0","71491","","676","","","68","42","","","1","42","training","adjacent","EF","5","6","O.jpg","M.jpg","0","1","0","",""
"","feedback","","html-keyboard-response","285","457647","0.0-1.0-384.0-0.0","0","0","71491","","null","","","null","42","","","","","","","","","","","","","","","",""
"","time_out","","html-keyboard-response","286","459650","0.0-1.0-386.0-0.0","0","0","71491","","null","","","null","42","","","","","","","","","","","","","","","",""
"","ITI","","html-keyboard-response","287","460653","0.0-1.0-387.0","0","0","71491","","null","","","null","42","","","","","","","","","","","","","","","NaN",""
"","S1","","html-keyboard-response","288","460905","0.0-1.0-389.0","0","0","71491","","null","","","null","43","","","","","","","","","","","","","","","",""
"","ISI","","html-keyboard-response","289","461408","0.0-1.0-390.0","0","0","71491","","null","","","null","43","NaN","","","","","","","","","","","","","","",""
"","S2","","html-keyboard-response","290","461661","0.0-1.0-391.0","0","0","71491","","null","","","null","43","","NaN","","","","","","","","","","","","","",""
"","response","","html-keyboard-response","291","462488","0.0-1.0-392.0-0.0","0","0","71491","","825","","","75","43","","","1","43","training","adjacent","BA","2","1","R.jpg","L.jpg","1","0","0","",""
"","feedback","","html-keyboard-response","292","463492","0.0-1.0-393.0-0.0","0","0","71491","","null","","","null","43","","","","","","","","","","","","","","","",""
"","time_out","","html-keyboard-response","293","465495","0.0-1.0-395.0-0.0","0","0","71491","","null","","","null","43","","","","","","","","","","","","","","","",""
"","ITI","","html-keyboard-response","294","466498","0.0-1.0-396.0","0","0","71491","","null","","","null","43","","","","","","","","","","","","","","","NaN",""
"","S1","","html-keyboard-response","295","466750","0.0-1.0-398.0","0","0","71491","","null","","","null","44","","","","","","","","","","","","","","","",""
"","ISI","","html-keyboard-response","296","467253","0.0-1.0-399.0","0","0","71491","","null","","","null","44","NaN","","","","","","","","","","","","","","",""
"","S2","","html-keyboard-response","297","467505","0.0-1.0-400.0","0","0","71491","","null","","","null","44","","NaN","","","","","","","","","","","","","",""
"","response","","html-keyboard-response","298","468113","0.0-1.0-401.0-0.0","0","0","71491","","606","","","68","44","","","1","44","training","adjacent","FG","6","7","M.jpg","Q.jpg","0","1","0","",""
"","feedback","","html-keyboard-response","299","469117","0.0-1.0-402.0-0.0","0","0","71491","","null","","","null","44","","","","","","","","","","","","","","","",""
"","time_out","","html-keyboard-response","300","471120","0.0-1.0-404.0-0.0","0","0","71491","","null","","","null","44","","","","","","","","","","","","","","","",""
"","ITI","","html-keyboard-response","301","472123","0.0-1.0-405.0","0","0","71491","","null","","","null","44","","","","","","","","","","","","","","","NaN",""
"","S1","","html-keyboard-response","302","472376","0.0-1.0-407.0","0","0","71491","","null","","","null","45","","","","","","","","","","","","","","","",""
"","ISI","","html-keyboard-response","303","472880","0.0-1.0-408.0","0","0","71491","","null","","","null","45","NaN","","","","","","","","","","","","","","",""
"","S2","","html-keyboard-response","304","473133","0.0-1.0-409.0","0","0","71491","","null","","","null","45","","NaN","","","","","","","","","","","","","",""
"","response","","html-keyboard-response","305","473644","0.0-1.0-410.0-0.0","0","0","71491","","509","","","68","45","","","1","45","training","adjacent","FG","6","7","M.jpg","Q.jpg","0","1","0","",""
"","feedback","","html-keyboard-response","306","474647","0.0-1.0-411.0-0.0","0","0","71491","","null","","","null","45","","","","","","","","","","","","","","","",""
"","time_out","","html-keyboard-response","307","476651","0.0-1.0-413.0-0.0","0","0","71491","","null","","","null","45","","","","","","","","","","","","","","","",""
"","ITI","","html-keyboard-response","308","477654","0.0-1.0-414.0","0","0","71491","","null","","","null","45","","","","","","","","","","","","","","","NaN",""
"","S1","","html-keyboard-response","309","477907","0.0-1.0-416.0","0","0","71491","","null","","","null","46","","","","","","","","","","","","","","","",""
"","ISI","","html-keyboard-response","310","478410","0.0-1.0-417.0","0","0","71491","","null","","","null","46","NaN","","","","","","","","","","","","","","",""
"","S2","","html-keyboard-response","311","478662","0.0-1.0-418.0","0","0","71491","","null","","","null","46","","NaN","","","","","","","","","","","","","",""
"","response","","html-keyboard-response","312","479499","0.0-1.0-419.0-0.0","0","0","71491","","835","","","68","46","","","1","46","training","adjacent","CB","3","2","P.jpg","R.jpg","0","0","1","",""
"","feedback","","html-keyboard-response","313","480502","0.0-1.0-420.0-0.0","0","0","71491","","null","","","null","46","","","","","","","","","","","","","","","",""
"","ITI","","html-keyboard-response","314","481518","0.0-1.0-423.0","0","0","71491","","null","","","null","46","","","","","","","","","","","","","","","NaN",""
"","S1","","html-keyboard-response","315","481771","0.0-1.0-425.0","0","0","71491","","null","","","null","47","","","","","","","","","","","","","","","",""
"","ISI","","html-keyboard-response","316","482273","0.0-1.0-426.0","0","0","71491","","null","","","null","47","NaN","","","","","","","","","","","","","","",""
"","S2","","html-keyboard-response","317","482526","0.0-1.0-427.0","0","0","71491","","null","","","null","47","","NaN","","","","","","","","","","","","","",""
"","response","","html-keyboard-response","318","483393","0.0-1.0-428.0-0.0","0","0","71491","","865","","","75","47","","","1","47","training","adjacent","FG","6","7","M.jpg","Q.jpg","1","1","1","",""
"","feedback","","html-keyboard-response","319","484396","0.0-1.0-429.0-0.0","0","0","71491","","null","","","null","47","","","","","","","","","","","","","","","",""
"","ITI","","html-keyboard-response","320","485399","0.0-1.0-432.0","0","0","71491","","null","","","null","47","","","","","","","","","","","","","","","NaN",""
"","block_over","","html-keyboard-response","321","493826","0.0-1.0-433.0-0.0","0","0","71491","","8424","","","32","47","","","","","","","","","","","","","","","",""
"","S1","","html-keyboard-response","322","494079","0.0-1.0-434.0","0","0","71491","","null","","","null","48","","","","","","","","","","","","","","","",""
"","ISI","","html-keyboard-response","323","494581","0.0-1.0-435.0","0","0","71491","","null","","","null","48","NaN","","","","","","","","","","","","","","",""
"","S2","","html-keyboard-response","324","494835","0.0-1.0-436.0","0","0","71491","","null","","","null","48","","NaN","","","","","","","","","","","","","",""
"","response","","html-keyboard-response","325","495280","0.0-1.0-437.0-0.0","0","0","71491","","443","","","75","48","","","2","48","training","adjacent","DE","4","5","N.jpg","O.jpg","1","1","1","",""
"","feedback","","html-keyboard-response","326","496282","0.0-1.0-438.0-0.0","0","0","71491","","null","","","null","48","","","","","","","","","","","","","","","",""
"","ITI","","html-keyboard-response","327","497286","0.0-1.0-441.0","0","0","71491","","null","","","null","48","","","","","","","","","","","","","","","NaN",""
"","S1","","html-keyboard-response","328","497540","0.0-1.0-443.0","0","0","71491","","null","","","null","49","","","","","","","","","","","","","","","",""
"","ISI","","html-keyboard-response","329","498043","0.0-1.0-444.0","0","0","71491","","null","","","null","49","NaN","","","","","","","","","","","","","","",""
"","S2","","html-keyboard-response","330","498296","0.0-1.0-445.0","0","0","71491","","null","","","null","49","","NaN","","","","","","","","","","","","","",""
"","response","","html-keyboard-response","331","498485","0.0-1.0-446.0-0.0","0","0","71491","","188","","","68","49","","","2","49","training","adjacent","AB","1","2","L.jpg","R.jpg","0","1","0","",""
"","feedback","","html-keyboard-response","332","499488","0.0-1.0-447.0-0.0","0","0","71491","","null","","","null","49","","","","","","","","","","","","","","","",""
"","time_out","","html-keyboard-response","333","501491","0.0-1.0-449.0-0.0","0","0","71491","","null","","","null","49","","","","","","","","","","","","","","","",""
"","ITI","","html-keyboard-response","334","502498","0.0-1.0-450.0","0","0","71491","","null","","","null","49","","","","","","","","","","","","","","","NaN",""
"","S1","","html-keyboard-response","335","502751","0.0-1.0-452.0","0","0","71491","","null","","","null","50","","","","","","","","","","","","","","","",""
"","ISI","","html-keyboard-response","336","503253","0.0-1.0-453.0","0","0","71491","","null","","","null","50","NaN","","","","","","","","","","","","","","",""
"","S2","","html-keyboard-response","337","503506","0.0-1.0-454.0","0","0","71491","","null","","","null","50","","NaN","","","","","","","","","","","","","",""
"","response","","html-keyboard-response","338","504018","0.0-1.0-455.0-0.0","0","0","71491","","510","","","68","50","","","2","50","training","adjacent","FG","6","7","M.jpg","Q.jpg","0","1","0","",""
"","feedback","","html-keyboard-response","339","505020","0.0-1.0-456.0-0.0","0","0","71491","","null","","","null","50","","","","","","","","","","","","","","","",""
"","time_out","","html-keyboard-response","340","507024","0.0-1.0-458.0-0.0","0","0","71491","","null","","","null","50","","","","","","","","","","","","","","","",""
"","ITI","","html-keyboard-response","341","508027","0.0-1.0-459.0","0","0","71491","","null","","","null","50","","","","","","","","","","","","","","","NaN",""
"","S1","","html-keyboard-response","342","508280","0.0-1.0-461.0","0","0","71491","","null","","","null","51","","","","","","","","","","","","","","","",""
"","ISI","","html-keyboard-response","343","508783","0.0-1.0-462.0","0","0","71491","","null","","","null","51","NaN","","","","","","","","","","","","","","",""
"","S2","","html-keyboard-response","344","509036","0.0-1.0-463.0","0","0","71491","","null","","","null","51","","NaN","","","","","","","","","","","","","",""
"","response","","html-keyboard-response","345","509564","0.0-1.0-464.0-0.0","0","0","71491","","527","","","68","51","","","2","51","training","adjacent","GF","7","6","Q.jpg","M.jpg","0","0","1","",""
"","feedback","","html-keyboard-response","346","510566","0.0-1.0-465.0-0.0","0","0","71491","","null","","","null","51","","","","","","","","","","","","","","","",""
"","ITI","","html-keyboard-response","347","511569","0.0-1.0-468.0","0","0","71491","","null","","","null","51","","","","","","","","","","","","","","","NaN",""
"","S1","","html-keyboard-response","348","511822","0.0-1.0-470.0","0","0","71491","","null","","","null","52","","","","","","","","","","","","","","","",""
"","ISI","","html-keyboard-response","349","512324","0.0-1.0-471.0","0","0","71491","","null","","","null","52","NaN","","","","","","","","","","","","","","",""
"","S2","","html-keyboard-response","350","512578","0.0-1.0-472.0","0","0","71491","","null","","","null","52","","NaN","","","","","","","","","","","","","",""
"","response","","html-keyboard-response","351","513118","0.0-1.0-473.0-0.0","0","0","71491","","539","","","75","52","","","2","52","training","adjacent","FE","6","5","M.jpg","O.jpg","1","0","0","",""
"","feedback","","html-keyboard-response","352","514121","0.0-1.0-474.0-0.0","0","0","71491","","null","","","null","52","","","","","","","","","","","","","","","",""
"","time_out","","html-keyboard-response","353","516123","0.0-1.0-476.0-0.0","0","0","71491","","null","","","null","52","","","","","","","","","","","","","","","",""
"","ITI","","html-keyboard-response","354","517127","0.0-1.0-477.0","0","0","71491","","null","","","null","52","","","","","","","","","","","","","","","NaN",""
"","S1","","html-keyboard-response","355","517380","0.0-1.0-479.0","0","0","71491","","null","","","null","53","","","","","","","","","","","","","","","",""
"","ISI","","html-keyboard-response","356","517897","0.0-1.0-480.0","0","0","71491","","null","","","null","53","NaN","","","","","","","","","","","","","","",""
"","S2","","html-keyboard-response","357","518150","0.0-1.0-481.0","0","0","71491","","null","","","null","53","","NaN","","","","","","","","","","","","","",""
"","response","","html-keyboard-response","358","518683","0.0-1.0-482.0-0.0","0","0","71491","","531","","","68","53","","","2","53","training","adjacent","BC","2","3","R.jpg","P.jpg","0","1","0","",""
"","feedback","","html-keyboard-response","359","519687","0.0-1.0-483.0-0.0","0","0","71491","","null","","","null","53","","","","","","","","","","","","","","","",""
"","time_out","","html-keyboard-response","360","521690","0.0-1.0-485.0-0.0","0","0","71491","","null","","","null","53","","","","","","","","","","","","","","","",""
"","ITI","","html-keyboard-response","361","522693","0.0-1.0-486.0","0","0","71491","","null","","","null","53","","","","","","","","","","","","","","","NaN",""
"","S1","","html-keyboard-response","362","522947","0.0-1.0-488.0","0","0","71491","","null","","","null","54","","","","","","","","","","","","","","","",""
"","ISI","","html-keyboard-response","363","523450","0.0-1.0-489.0","0","0","71491","","null","","","null","54","NaN","","","","","","","","","","","","","","",""
"","S2","","html-keyboard-response","364","523703","0.0-1.0-490.0","0","0","71491","","null","","","null","54","","NaN","","","","","","","","","","","","","",""
"","response","","html-keyboard-response","365","524414","0.0-1.0-491.0-0.0","0","0","71491","","709","","","75","54","","","2","54","training","adjacent","CB","3","2","P.jpg","R.jpg","1","0","0","",""
"","feedback","","html-keyboard-response","366","525416","0.0-1.0-492.0-0.0","0","0","71491","","null","","","null","54","","","","","","","","","","","","","","","",""
"","time_out","","html-keyboard-response","367","527419","0.0-1.0-494.0-0.0","0","0","71491","","null","","","null","54","","","","","","","","","","","","","","","",""
"","ITI","","html-keyboard-response","368","528422","0.0-1.0-495.0","0","0","71491","","null","","","null","54","","","","","","","","","","","","","","","NaN",""
"","S1","","html-keyboard-response","369","528675","0.0-1.0-497.0","0","0","71491","","null","","","null","55","","","","","","","","","","","","","","","",""
"","ISI","","html-keyboard-response","370","529180","0.0-1.0-498.0","0","0","71491","","null","","","null","55","NaN","","","","","","","","","","","","","","",""
"","S2","","html-keyboard-response","371","529433","0.0-1.0-499.0","0","0","71491","","null","","","null","55","","NaN","","","","","","","","","","","","","",""
"","response","","html-keyboard-response","372","529974","0.0-1.0-500.0-0.0","0","0","71491","","539","","","68","55","","","2","55","training","adjacent","DC","4","3","N.jpg","P.jpg","0","0","1","",""
"","feedback","","html-keyboard-response","373","530977","0.0-1.0-501.0-0.0","0","0","71491","","null","","","null","55","","","","","","","","","","","","","","","",""
"","ITI","","html-keyboard-response","374","531981","0.0-1.0-504.0","0","0","71491","","null","","","null","55","","","","","","","","","","","","","","","NaN",""
"","S1","","html-keyboard-response","375","532234","0.0-1.0-506.0","0","0","71491","","null","","","null","56","","","","","","","","","","","","","","","",""
"","ISI","","html-keyboard-response","376","532743","0.0-1.0-507.0","0","0","71491","","null","","","null","56","NaN","","","","","","","","","","","","","","",""
"","S2","","html-keyboard-response","377","532995","0.0-1.0-508.0","0","0","71491","","null","","","null","56","","NaN","","","","","","","","","","","","","",""
"","response","","html-keyboard-response","378","533667","0.0-1.0-509.0-0.0","0","0","71491","","670","","","68","56","","","2","56","training","adjacent","EF","5","6","O.jpg","M.jpg","0","1","0","",""
"","feedback","","html-keyboard-response","379","534670","0.0-1.0-510.0-0.0","0","0","71491","","null","","","null","56","","","","","","","","","","","","","","","",""
"","time_out","","html-keyboard-response","380","536673","0.0-1.0-512.0-0.0","0","0","71491","","null","","","null","56","","","","","","","","","","","","","","","",""
"","ITI","","html-keyboard-response","381","537676","0.0-1.0-513.0","0","0","71491","","null","","","null","56","","","","","","","","","","","","","","","NaN",""
"","S1","","html-keyboard-response","382","537929","0.0-1.0-515.0","0","0","71491","","null","","","null","57","","","","","","","","","","","","","","","",""
"","ISI","","html-keyboard-response","383","538433","0.0-1.0-516.0","0","0","71491","","null","","","null","57","NaN","","","","","","","","","","","","","","",""
"","S2","","html-keyboard-response","384","538686","0.0-1.0-517.0","0","0","71491","","null","","","null","57","","NaN","","","","","","","","","","","","","",""
"","response","","html-keyboard-response","385","539054","0.0-1.0-518.0-0.0","0","0","71491","","367","","","75","57","","","2","57","training","adjacent","EF","5","6","O.jpg","M.jpg","1","1","1","",""
"","feedback","","html-keyboard-response","386","540057","0.0-1.0-519.0-0.0","0","0","71491","","null","","","null","57","","","","","","","","","","","","","","","",""
"","ITI","","html-keyboard-response","387","541060","0.0-1.0-522.0","0","0","71491","","null","","","null","57","","","","","","","","","","","","","","","NaN",""
"","S1","","html-keyboard-response","388","541313","0.0-1.0-524.0","0","0","71491","","null","","","null","58","","","","","","","","","","","","","","","",""
"","ISI","","html-keyboard-response","389","541817","0.0-1.0-525.0","0","0","71491","","null","","","null","58","NaN","","","","","","","","","","","","","","",""
"","S2","","html-keyboard-response","390","542075","0.0-1.0-526.0","0","0","71491","","null","","","null","58","","NaN","","","","","","","","","","","","","",""
"","response","","html-keyboard-response","391","542250","0.0-1.0-527.0-0.0","0","0","71491","","172","","","68","58","","","2","58","training","adjacent","CD","3","4","P.jpg","N.jpg","0","1","0","",""
"","feedback","","html-keyboard-response","392","543253","0.0-1.0-528.0-0.0","0","0","71491","","null","","","null","58","","","","","","","","","","","","","","","",""
"","time_out","","html-keyboard-response","393","545255","0.0-1.0-530.0-0.0","0","0","71491","","null","","","null","58","","","","","","","","","","","","","","","",""
"","ITI","","html-keyboard-response","394","546258","0.0-1.0-531.0","0","0","71491","","null","","","null","58","","","","","","","","","","","","","","","NaN",""
"","S1","","html-keyboard-response","395","546511","0.0-1.0-533.0","0","0","71491","","null","","","null","59","","","","","","","","","","","","","","","",""
"","ISI","","html-keyboard-response","396","547014","0.0-1.0-534.0","0","0","71491","","null","","","null","59","NaN","","","","","","","","","","","","","","",""
"","S2","","html-keyboard-response","397","547267","0.0-1.0-535.0","0","0","71491","","null","","","null","59","","NaN","","","","","","","","","","","","","",""
"","response","","html-keyboard-response","398","548547","0.0-1.0-536.0-0.0","0","0","71491","","1279","","","75","59","","","2","59","training","adjacent","CD","3","4","P.jpg","N.jpg","1","1","1","",""
"","feedback","","html-keyboard-response","399","549551","0.0-1.0-537.0-0.0","0","0","71491","","null","","","null","59","","","","","","","","","","","","","","","",""
"","ITI","","html-keyboard-response","400","550554","0.0-1.0-540.0","0","0","71491","","null","","","null","59","","","","","","","","","","","","","","","NaN",""
"","S1","","html-keyboard-response","401","550806","0.0-1.0-542.0","0","0","71491","","null","","","null","60","","","","","","","","","","","","","","","",""
"","ISI","","html-keyboard-response","402","551310","0.0-1.0-543.0","0","0","71491","","null","","","null","60","NaN","","","","","","","","","","","","","","",""
"","S2","","html-keyboard-response","403","551563","0.0-1.0-544.0","0","0","71491","","null","","","null","60","","NaN","","","","","","","","","","","","","",""
"","response","","html-keyboard-response","404","551687","0.0-1.0-545.0-0.0","0","0","71491","","122","","","75","60","","","2","60","training","adjacent","DE","4","5","N.jpg","O.jpg","1","1","1","",""
"","feedback","","html-keyboard-response","405","552690","0.0-1.0-546.0-0.0","0","0","71491","","null","","","null","60","","","","","","","","","","","","","","","",""
"","ITI","","html-keyboard-response","406","553693","0.0-1.0-549.0","0","0","71491","","null","","","null","60","","","","","","","","","","","","","","","NaN",""
"","S1","","html-keyboard-response","407","553946","0.0-1.0-551.0","0","0","71491","","null","","","null","61","","","","","","","","","","","","","","","",""
"","ISI","","html-keyboard-response","408","554448","0.0-1.0-552.0","0","0","71491","","null","","","null","61","NaN","","","","","","","","","","","","","","",""
"","S2","","html-keyboard-response","409","554701","0.0-1.0-553.0","0","0","71491","","null","","","null","61","","NaN","","","","","","","","","","","","","",""
"","response","","html-keyboard-response","410","554912","0.0-1.0-554.0-0.0","0","0","71491","","209","","","68","61","","","2","61","training","adjacent","AB","1","2","L.jpg","R.jpg","0","1","0","",""
"","feedback","","html-keyboard-response","411","555916","0.0-1.0-555.0-0.0","0","0","71491","","null","","","null","61","","","","","","","","","","","","","","","",""
"","time_out","","html-keyboard-response","412","557919","0.0-1.0-557.0-0.0","0","0","71491","","null","","","null","61","","","","","","","","","","","","","","","",""
"","ITI","","html-keyboard-response","413","558922","0.0-1.0-558.0","0","0","71491","","null","","","null","61","","","","","","","","","","","","","","","NaN",""
"","S1","","html-keyboard-response","414","559174","0.0-1.0-560.0","0","0","71491","","null","","","null","62","","","","","","","","","","","","","","","",""
"","ISI","","html-keyboard-response","415","559676","0.0-1.0-561.0","0","0","71491","","null","","","null","62","NaN","","","","","","","","","","","","","","",""
"","S2","","html-keyboard-response","416","559930","0.0-1.0-562.0","0","0","71491","","null","","","null","62","","NaN","","","","","","","","","","","","","",""
"","response","","html-keyboard-response","417","560164","0.0-1.0-563.0-0.0","0","0","71491","","232","","","75","62","","","2","62","training","adjacent","CD","3","4","P.jpg","N.jpg","1","1","1","",""
"","feedback","","html-keyboard-response","418","561166","0.0-1.0-564.0-0.0","0","0","71491","","null","","","null","62","","","","","","","","","","","","","","","",""
"","ITI","","html-keyboard-response","419","562169","0.0-1.0-567.0","0","0","71491","","null","","","null","62","","","","","","","","","","","","","","","NaN",""
"","S1","","html-keyboard-response","420","562422","0.0-1.0-569.0","0","0","71491","","null","","","null","63","","","","","","","","","","","","","","","",""
"","ISI","","html-keyboard-response","421","562924","0.0-1.0-570.0","0","0","71491","","null","","","null","63","NaN","","","","","","","","","","","","","","",""
"","S2","","html-keyboard-response","422","563176","0.0-1.0-571.0","0","0","71491","","null","","","null","63","","NaN","","","","","","","","","","","","","",""
"","response","","html-keyboard-response","423","563290","0.0-1.0-572.0-0.0","0","0","71491","","111","","","75","63","","","2","63","training","adjacent","EF","5","6","O.jpg","M.jpg","1","1","1","",""
"","feedback","","html-keyboard-response","424","564292","0.0-1.0-573.0-0.0","0","0","71491","","null","","","null","63","","","","","","","","","","","","","","","",""
"","ITI","","html-keyboard-response","425","565295","0.0-1.0-576.0","0","0","71491","","null","","","null","63","","","","","","","","","","","","","","","NaN",""
"","S1","","html-keyboard-response","426","565563","0.0-1.0-578.0","0","0","71491","","null","","","null","64","","","","","","","","","","","","","","","",""
"","ISI","","html-keyboard-response","427","566066","0.0-1.0-579.0","0","0","71491","","null","","","null","64","NaN","","","","","","","","","","","","","","",""
"","S2","","html-keyboard-response","428","566321","0.0-1.0-580.0","0","0","71491","","null","","","null","64","","NaN","","","","","","","","","","","","","",""
"","response","","html-keyboard-response","429","566773","0.0-1.0-581.0-0.0","0","0","71491","","449","","","68","64","","","2","64","training","adjacent","FG","6","7","M.jpg","Q.jpg","0","1","0","",""
"","feedback","","html-keyboard-response","430","567775","0.0-1.0-582.0-0.0","0","0","71491","","null","","","null","64","","","","","","","","","","","","","","","",""
"","time_out","","html-keyboard-response","431","569779","0.0-1.0-584.0-0.0","0","0","71491","","null","","","null","64","","","","","","","","","","","","","","","",""
"","ITI","","html-keyboard-response","432","570781","0.0-1.0-585.0","0","0","71491","","null","","","null","64","","","","","","","","","","","","","","","NaN",""
"","S1","","html-keyboard-response","433","571034","0.0-1.0-587.0","0","0","71491","","null","","","null","65","","","","","","","","","","","","","","","",""
"","ISI","","html-keyboard-response","434","571536","0.0-1.0-588.0","0","0","71491","","null","","","null","65","NaN","","","","","","","","","","","","","","",""
"","S2","","html-keyboard-response","435","571790","0.0-1.0-589.0","0","0","71491","","null","","","null","65","","NaN","","","","","","","","","","","","","",""
"","response","","html-keyboard-response","436","572259","0.0-1.0-590.0-0.0","0","0","71491","","468","","","75","65","","","2","65","training","adjacent","DE","4","5","N.jpg","O.jpg","1","1","1","",""
"","feedback","","html-keyboard-response","437","573263","0.0-1.0-591.0-0.0","0","0","71491","","null","","","null","65","","","","","","","","","","","","","","","",""
"","ITI","","html-keyboard-response","438","574266","0.0-1.0-594.0","0","0","71491","","null","","","null","65","","","","","","","","","","","","","","","NaN",""
"","S1","","html-keyboard-response","439","574519","0.0-1.0-596.0","0","0","71491","","null","","","null","66","","","","","","","","","","","","","","","",""
"","ISI","","html-keyboard-response","440","575021","0.0-1.0-597.0","0","0","71491","","null","","","null","66","NaN","","","","","","","","","","","","","","",""
"","S2","","html-keyboard-response","441","575274","0.0-1.0-598.0","0","0","71491","","null","","","null","66","","NaN","","","","","","","","","","","","","",""
"","response","","html-keyboard-response","442","575728","0.0-1.0-599.0-0.0","0","0","71491","","452","","","68","66","","","2","66","training","adjacent","DC","4","3","N.jpg","P.jpg","0","0","1","",""
"","feedback","","html-keyboard-response","443","576732","0.0-1.0-600.0-0.0","0","0","71491","","null","","","null","66","","","","","","","","","","","","","","","",""
"","ITI","","html-keyboard-response","444","577747","0.0-1.0-603.0","0","0","71491","","null","","","null","66","","","","","","","","","","","","","","","NaN",""
"","S1","","html-keyboard-response","445","578001","0.0-1.0-605.0","0","0","71491","","null","","","null","67","","","","","","","","","","","","","","","",""
"","ISI","","html-keyboard-response","446","578503","0.0-1.0-606.0","0","0","71491","","null","","","null","67","NaN","","","","","","","","","","","","","","",""
"","S2","","html-keyboard-response","447","578756","0.0-1.0-607.0","0","0","71491","","null","","","null","67","","NaN","","","","","","","","","","","","","",""
"","response","","html-keyboard-response","448","579237","0.0-1.0-608.0-0.0","0","0","71491","","480","","","68","67","","","2","67","training","adjacent","BC","2","3","R.jpg","P.jpg","0","1","0","",""
"","feedback","","html-keyboard-response","449","580241","0.0-1.0-609.0-0.0","0","0","71491","","null","","","null","67","","","","","","","","","","","","","","","",""
"","time_out","","html-keyboard-response","450","582243","0.0-1.0-611.0-0.0","0","0","71491","","null","","","null","67","","","","","","","","","","","","","","","",""
"","ITI","","html-keyboard-response","451","583246","0.0-1.0-612.0","0","0","71491","","null","","","null","67","","","","","","","","","","","","","","","NaN",""
"","S1","","html-keyboard-response","452","583498","0.0-1.0-614.0","0","0","71491","","null","","","null","68","","","","","","","","","","","","","","","",""
"","ISI","","html-keyboard-response","453","584001","0.0-1.0-615.0","0","0","71491","","null","","","null","68","NaN","","","","","","","","","","","","","","",""
"","S2","","html-keyboard-response","454","584254","0.0-1.0-616.0","0","0","71491","","null","","","null","68","","NaN","","","","","","","","","","","","","",""
"","response","","html-keyboard-response","455","584907","0.0-1.0-617.0-0.0","0","0","71491","","651","","","68","68","","","2","68","training","adjacent","CD","3","4","P.jpg","N.jpg","0","1","0","",""
"","feedback","","html-keyboard-response","456","585911","0.0-1.0-618.0-0.0","0","0","71491","","null","","","null","68","","","","","","","","","","","","","","","",""
"","time_out","","html-keyboard-response","457","587913","0.0-1.0-620.0-0.0","0","0","71491","","null","","","null","68","","","","","","","","","","","","","","","",""
"","ITI","","html-keyboard-response","458","588916","0.0-1.0-621.0","0","0","71491","","null","","","null","68","","","","","","","","","","","","","","","NaN",""
"","S1","","html-keyboard-response","459","589169","0.0-1.0-623.0","0","0","71491","","null","","","null","69","","","","","","","","","","","","","","","",""
"","ISI","","html-keyboard-response","460","589672","0.0-1.0-624.0","0","0","71491","","null","","","null","69","NaN","","","","","","","","","","","","","","",""
"","S2","","html-keyboard-response","461","589925","0.0-1.0-625.0","0","0","71491","","null","","","null","69","","NaN","","","","","","","","","","","","","",""
"","response","","html-keyboard-response","462","590653","0.0-1.0-626.0-0.0","0","0","71491","","726","","","75","69","","","2","69","training","adjacent","DE","4","5","N.jpg","O.jpg","1","1","1","",""
"","feedback","","html-keyboard-response","463","591656","0.0-1.0-627.0-0.0","0","0","71491","","null","","","null","69","","","","","","","","","","","","","","","",""
"","ITI","","html-keyboard-response","464","592660","0.0-1.0-630.0","0","0","71491","","null","","","null","69","","","","","","","","","","","","","","","NaN",""
"","S1","","html-keyboard-response","465","592913","0.0-1.0-632.0","0","0","71491","","null","","","null","70","","","","","","","","","","","","","","","",""
"","ISI","","html-keyboard-response","466","593415","0.0-1.0-633.0","0","0","71491","","null","","","null","70","NaN","","","","","","","","","","","","","","",""
"","S2","","html-keyboard-response","467","593669","0.0-1.0-634.0","0","0","71491","","null","","","null","70","","NaN","","","","","","","","","","","","","",""
"","response","","html-keyboard-response","468","594176","0.0-1.0-635.0-0.0","0","0","71491","","505","","","68","70","","","2","70","training","adjacent","DC","4","3","N.jpg","P.jpg","0","0","1","",""
"","feedback","","html-keyboard-response","469","595180","0.0-1.0-636.0-0.0","0","0","71491","","null","","","null","70","","","","","","","","","","","","","","","",""
"","ITI","","html-keyboard-response","470","596183","0.0-1.0-639.0","0","0","71491","","null","","","null","70","","","","","","","","","","","","","","","NaN",""
"","S1","","html-keyboard-response","471","596436","0.0-1.0-641.0","0","0","71491","","null","","","null","71","","","","","","","","","","","","","","","",""
"","ISI","","html-keyboard-response","472","596952","0.0-1.0-642.0","0","0","71491","","null","","","null","71","NaN","","","","","","","","","","","","","","",""
"","S2","","html-keyboard-response","473","597204","0.0-1.0-643.0","0","0","71491","","null","","","null","71","","NaN","","","","","","","","","","","","","",""
"","response","","html-keyboard-response","474","597884","0.0-1.0-644.0-0.0","0","0","71491","","678","","","75","71","","","2","71","training","adjacent","AB","1","2","L.jpg","R.jpg","1","1","1","",""
"","feedback","","html-keyboard-response","475","598887","0.0-1.0-645.0-0.0","0","0","71491","","null","","","null","71","","","","","","","","","","","","","","","",""
"","ITI","","html-keyboard-response","476","599890","0.0-1.0-648.0","0","0","71491","","null","","","null","71","","","","","","","","","","","","","","","NaN",""
"","S1","","html-keyboard-response","477","600144","0.0-1.0-650.0","0","0","71491","","null","","","null","72","","","","","","","","","","","","","","","",""
"","ISI","","html-keyboard-response","478","600646","0.0-1.0-651.0","0","0","71491","","null","","","null","72","NaN","","","","","","","","","","","","","","",""
"","S2","","html-keyboard-response","479","600899","0.0-1.0-652.0","0","0","71491","","null","","","null","72","","NaN","","","","","","","","","","","","","",""
"","response","","html-keyboard-response","480","601338","0.0-1.0-653.0-0.0","0","0","71491","","436","","","68","72","","","2","72","training","adjacent","BC","2","3","R.jpg","P.jpg","0","1","0","",""
"","feedback","","html-keyboard-response","481","602341","0.0-1.0-654.0-0.0","0","0","71491","","null","","","null","72","","","","","","","","","","","","","","","",""
"","time_out","","html-keyboard-response","482","604344","0.0-1.0-656.0-0.0","0","0","71491","","null","","","null","72","","","","","","","","","","","","","","","",""
"","ITI","","html-keyboard-response","483","605347","0.0-1.0-657.0","0","0","71491","","null","","","null","72","","","","","","","","","","","","","","","NaN",""
"","S1","","html-keyboard-response","484","605599","0.0-1.0-659.0","0","0","71491","","null","","","null","73","","","","","","","","","","","","","","","",""
"","ISI","","html-keyboard-response","485","606102","0.0-1.0-660.0","0","0","71491","","null","","","null","73","NaN","","","","","","","","","","","","","","",""
"","S2","","html-keyboard-response","486","606357","0.0-1.0-661.0","0","0","71491","","null","","","null","73","","NaN","","","","","","","","","","","","","",""
"","response","","html-keyboard-response","487","606835","0.0-1.0-662.0-0.0","0","0","71491","","476","","","68","73","","","2","73","training","adjacent","BA","2","1","R.jpg","L.jpg","0","0","1","",""
"","feedback","","html-keyboard-response","488","607838","0.0-1.0-663.0-0.0","0","0","71491","","null","","","null","73","","","","","","","","","","","","","","","",""
"","ITI","","html-keyboard-response","489","608841","0.0-1.0-666.0","0","0","71491","","null","","","null","73","","","","","","","","","","","","","","","NaN",""
"","S1","","html-keyboard-response","490","609094","0.0-1.0-668.0","0","0","71491","","null","","","null","74","","","","","","","","","","","","","","","",""
"","ISI","","html-keyboard-response","491","609597","0.0-1.0-669.0","0","0","71491","","null","","","null","74","NaN","","","","","","","","","","","","","","",""
"","S2","","html-keyboard-response","492","609850","0.0-1.0-670.0","0","0","71491","","null","","","null","74","","NaN","","","","","","","","","","","","","",""
"","response","","html-keyboard-response","493","610363","0.0-1.0-671.0-0.0","0","0","71491","","511","","","75","74","","","2","74","training","adjacent","CB","3","2","P.jpg","R.jpg","1","0","0","",""
"","feedback","","html-keyboard-response","494","611366","0.0-1.0-672.0-0.0","0","0","71491","","null","","","null","74","","","","","","","","","","","","","","","",""
"","time_out","","html-keyboard-response","495","613368","0.0-1.0-674.0-0.0","0","0","71491","","null","","","null","74","","","","","","","","","","","","","","","",""
"","ITI","","html-keyboard-response","496","614371","0.0-1.0-675.0","0","0","71491","","null","","","null","74","","","","","","","","","","","","","","","NaN",""
"","S1","","html-keyboard-response","497","614624","0.0-1.0-677.0","0","0","71491","","null","","","null","75","","","","","","","","","","","","","","","",""
"","ISI","","html-keyboard-response","498","615127","0.0-1.0-678.0","0","0","71491","","null","","","null","75","NaN","","","","","","","","","","","","","","",""
"","S2","","html-keyboard-response","499","615380","0.0-1.0-679.0","0","0","71491","","null","","","null","75","","NaN","","","","","","","","","","","","","",""
"","response","","html-keyboard-response","500","615683","0.0-1.0-680.0-0.0","0","0","71491","","300","","","68","75","","","2","75","training","adjacent","BA","2","1","R.jpg","L.jpg","0","0","1","",""
"","feedback","","html-keyboard-response","501","616692","0.0-1.0-681.0-0.0","0","0","71491","","null","","","null","75","","","","","","","","","","","","","","","",""
"","ITI","","html-keyboard-response","502","617694","0.0-1.0-684.0","0","0","71491","","null","","","null","75","","","","","","","","","","","","","","","NaN",""
"","S1","","html-keyboard-response","503","617948","0.0-1.0-686.0","0","0","71491","","null","","","null","76","","","","","","","","","","","","","","","",""
"","ISI","","html-keyboard-response","504","618451","0.0-1.0-687.0","0","0","71491","","null","","","null","76","NaN","","","","","","","","","","","","","","",""
"","S2","","html-keyboard-response","505","618704","0.0-1.0-688.0","0","0","71491","","null","","","null","76","","NaN","","","","","","","","","","","","","",""
"","response","","html-keyboard-response","506","619081","0.0-1.0-689.0-0.0","0","0","71491","","376","","","68","76","","","2","76","training","adjacent","EF","5","6","O.jpg","M.jpg","0","1","0","",""
"","feedback","","html-keyboard-response","507","620084","0.0-1.0-690.0-0.0","0","0","71491","","null","","","null","76","","","","","","","","","","","","","","","",""
"","time_out","","html-keyboard-response","508","622087","0.0-1.0-692.0-0.0","0","0","71491","","null","","","null","76","","","","","","","","","","","","","","","",""
"","ITI","","html-keyboard-response","509","623090","0.0-1.0-693.0","0","0","71491","","null","","","null","76","","","","","","","","","","","","","","","NaN",""
"","S1","","html-keyboard-response","510","623343","0.0-1.0-695.0","0","0","71491","","null","","","null","77","","","","","","","","","","","","","","","",""
"","ISI","","html-keyboard-response","511","623845","0.0-1.0-696.0","0","0","71491","","null","","","null","77","NaN","","","","","","","","","","","","","","",""
"","S2","","html-keyboard-response","512","624097","0.0-1.0-697.0","0","0","71491","","null","","","null","77","","NaN","","","","","","","","","","","","","",""
"","response","","html-keyboard-response","513","624613","0.0-1.0-698.0-0.0","0","0","71491","","514","","","68","77","","","2","77","training","adjacent","BC","2","3","R.jpg","P.jpg","0","1","0","",""
"","feedback","","html-keyboard-response","514","625627","0.0-1.0-699.0-0.0","0","0","71491","","null","","","null","77","","","","","","","","","","","","","","","",""
"","time_out","","html-keyboard-response","515","627631","0.0-1.0-701.0-0.0","0","0","71491","","null","","","null","77","","","","","","","","","","","","","","","",""
"","ITI","","html-keyboard-response","516","628643","0.0-1.0-702.0","0","0","71491","","null","","","null","77","","","","","","","","","","","","","","","NaN",""
"","S1","","html-keyboard-response","517","628897","0.0-1.0-704.0","0","0","71491","","null","","","null","78","","","","","","","","","","","","","","","",""
"","ISI","","html-keyboard-response","518","629399","0.0-1.0-705.0","0","0","71491","","null","","","null","78","NaN","","","","","","","","","","","","","","",""
"","S2","","html-keyboard-response","519","629652","0.0-1.0-706.0","0","0","71491","","null","","","null","78","","NaN","","","","","","","","","","","","","",""
"","response","","html-keyboard-response","520","630183","0.0-1.0-707.0-0.0","0","0","71491","","530","","","75","78","","","2","78","training","adjacent","BA","2","1","R.jpg","L.jpg","1","0","0","",""
"","feedback","","html-keyboard-response","521","631186","0.0-1.0-708.0-0.0","0","0","71491","","null","","","null","78","","","","","","","","","","","","","","","",""
"","time_out","","html-keyboard-response","522","633188","0.0-1.0-710.0-0.0","0","0","71491","","null","","","null","78","","","","","","","","","","","","","","","",""
"","ITI","","html-keyboard-response","523","634192","0.0-1.0-711.0","0","0","71491","","null","","","null","78","","","","","","","","","","","","","","","NaN",""
"","S1","","html-keyboard-response","524","634449","0.0-1.0-713.0","0","0","71491","","null","","","null","79","","","","","","","","","","","","","","","",""
"","ISI","","html-keyboard-response","525","634952","0.0-1.0-714.0","0","0","71491","","null","","","null","79","NaN","","","","","","","","","","","","","","",""
"","S2","","html-keyboard-response","526","635205","0.0-1.0-715.0","0","0","71491","","null","","","null","79","","NaN","","","","","","","","","","","","","",""
"","response","","html-keyboard-response","527","635734","0.0-1.0-716.0-0.0","0","0","71491","","527","","","75","79","","","2","79","training","adjacent","FG","6","7","M.jpg","Q.jpg","1","1","1","",""
"","feedback","","html-keyboard-response","528","636737","0.0-1.0-717.0-0.0","0","0","71491","","null","","","null","79","","","","","","","","","","","","","","","",""
"","ITI","","html-keyboard-response","529","637740","0.0-1.0-720.0","0","0","71491","","null","","","null","79","","","","","","","","","","","","","","","NaN",""
"","S1","","html-keyboard-response","530","637994","0.0-1.0-722.0","0","0","71491","","null","","","null","80","","","","","","","","","","","","","","","",""
"","ISI","","html-keyboard-response","531","638497","0.0-1.0-723.0","0","0","71491","","null","","","null","80","NaN","","","","","","","","","","","","","","",""
"","S2","","html-keyboard-response","532","638750","0.0-1.0-724.0","0","0","71491","","null","","","null","80","","NaN","","","","","","","","","","","","","",""
"","response","","html-keyboard-response","533","639198","0.0-1.0-725.0-0.0","0","0","71491","","445","","","68","80","","","2","80","training","adjacent","GF","7","6","Q.jpg","M.jpg","0","0","1","",""
"","feedback","","html-keyboard-response","534","640201","0.0-1.0-726.0-0.0","0","0","71491","","null","","","null","80","","","","","","","","","","","","","","","",""
"","ITI","","html-keyboard-response","535","641205","0.0-1.0-729.0","0","0","71491","","null","","","null","80","","","","","","","","","","","","","","","NaN",""
"","S1","","html-keyboard-response","536","641458","0.0-1.0-731.0","0","0","71491","","null","","","null","81","","","","","","","","","","","","","","","",""
"","ISI","","html-keyboard-response","537","641961","0.0-1.0-732.0","0","0","71491","","null","","","null","81","NaN","","","","","","","","","","","","","","",""
"","S2","","html-keyboard-response","538","642213","0.0-1.0-733.0","0","0","71491","","null","","","null","81","","NaN","","","","","","","","","","","","","",""
"","response","","html-keyboard-response","539","642910","0.0-1.0-734.0-0.0","0","0","71491","","694","","","75","81","","","2","81","training","adjacent","FE","6","5","M.jpg","O.jpg","1","0","0","",""
"","feedback","","html-keyboard-response","540","643925","0.0-1.0-735.0-0.0","0","0","71491","","null","","","null","81","","","","","","","","","","","","","","","",""
"","time_out","","html-keyboard-response","541","645927","0.0-1.0-737.0-0.0","0","0","71491","","null","","","null","81","","","","","","","","","","","","","","","",""
"","ITI","","html-keyboard-response","542","646930","0.0-1.0-738.0","0","0","71491","","null","","","null","81","","","","","","","","","","","","","","","NaN",""
"","S1","","html-keyboard-response","543","647182","0.0-1.0-740.0","0","0","71491","","null","","","null","82","","","","","","","","","","","","","","","",""
"","ISI","","html-keyboard-response","544","647686","0.0-1.0-741.0","0","0","71491","","null","","","null","82","NaN","","","","","","","","","","","","","","",""
"","S2","","html-keyboard-response","545","647940","0.0-1.0-742.0","0","0","71491","","null","","","null","82","","NaN","","","","","","","","","","","","","",""
"","response","","html-keyboard-response","546","648375","0.0-1.0-743.0-0.0","0","0","71491","","433","","","75","82","","","2","82","training","adjacent","FG","6","7","M.jpg","Q.jpg","1","1","1","",""
"","feedback","","html-keyboard-response","547","649378","0.0-1.0-744.0-0.0","0","0","71491","","null","","","null","82","","","","","","","","","","","","","","","",""
"","ITI","","html-keyboard-response","548","650382","0.0-1.0-747.0","0","0","71491","","null","","","null","82","","","","","","","","","","","","","","","NaN",""
"","S1","","html-keyboard-response","549","650634","0.0-1.0-749.0","0","0","71491","","null","","","null","83","","","","","","","","","","","","","","","",""
"","ISI","","html-keyboard-response","550","651136","0.0-1.0-750.0","0","0","71491","","null","","","null","83","NaN","","","","","","","","","","","","","","",""
"","S2","","html-keyboard-response","551","651391","0.0-1.0-751.0","0","0","71491","","null","","","null","83","","NaN","","","","","","","","","","","","","",""
"","response","","html-keyboard-response","552","651650","0.0-1.0-752.0-0.0","0","0","71491","","257","","","75","83","","","2","83","training","adjacent","ED","5","4","O.jpg","N.jpg","1","0","0","",""
"","feedback","","html-keyboard-response","553","652655","0.0-1.0-753.0-0.0","0","0","71491","","null","","","null","83","","","","","","","","","","","","","","","",""
"","time_out","","html-keyboard-response","554","654659","0.0-1.0-755.0-0.0","0","0","71491","","null","","","null","83","","","","","","","","","","","","","","","",""
"","ITI","","html-keyboard-response","555","655662","0.0-1.0-756.0","0","0","71491","","null","","","null","83","","","","","","","","","","","","","","","NaN",""
"","S1","","html-keyboard-response","556","655915","0.0-1.0-758.0","0","0","71491","","null","","","null","84","","","","","","","","","","","","","","","",""
"","ISI","","html-keyboard-response","557","656420","0.0-1.0-759.0","0","0","71491","","null","","","null","84","NaN","","","","","","","","","","","","","","",""
"","S2","","html-keyboard-response","558","656673","0.0-1.0-760.0","0","0","71491","","null","","","null","84","","NaN","","","","","","","","","","","","","",""
"","response","","html-keyboard-response","559","657490","0.0-1.0-761.0-0.0","0","0","71491","","814","","","68","84","","","2","84","training","adjacent","ED","5","4","O.jpg","N.jpg","0","0","1","",""
"","feedback","","html-keyboard-response","560","658505","0.0-1.0-762.0-0.0","0","0","71491","","null","","","null","84","","","","","","","","","","","","","","","",""
"","ITI","","html-keyboard-response","561","659509","0.0-1.0-765.0","0","0","71491","","null","","","null","84","","","","","","","","","","","","","","","NaN",""
"","S1","","html-keyboard-response","562","659761","0.0-1.0-767.0","0","0","71491","","null","","","null","85","","","","","","","","","","","","","","","",""
"","ISI","","html-keyboard-response","563","660263","0.0-1.0-768.0","0","0","71491","","null","","","null","85","NaN","","","","","","","","","","","","","","",""
"","S2","","html-keyboard-response","564","660516","0.0-1.0-769.0","0","0","71491","","null","","","null","85","","NaN","","","","","","","","","","","","","",""
"","response","","html-keyboard-response","565","661073","0.0-1.0-770.0-0.0","0","0","71491","","555","","","75","85","","","2","85","training","adjacent","CB","3","2","P.jpg","R.jpg","1","0","0","",""
"","feedback","","html-keyboard-response","566","662076","0.0-1.0-771.0-0.0","0","0","71491","","null","","","null","85","","","","","","","","","","","","","","","",""
"","time_out","","html-keyboard-response","567","664079","0.0-1.0-773.0-0.0","0","0","71491","","null","","","null","85","","","","","","","","","","","","","","","",""
"","ITI","","html-keyboard-response","568","665082","0.0-1.0-774.0","0","0","71491","","null","","","null","85","","","","","","","","","","","","","","","NaN",""
"","S1","","html-keyboard-response","569","665338","0.0-1.0-776.0","0","0","71491","","null","","","null","86","","","","","","","","","","","","","","","",""
"","ISI","","html-keyboard-response","570","665841","0.0-1.0-777.0","0","0","71491","","null","","","null","86","NaN","","","","","","","","","","","","","","",""
"","S2","","html-keyboard-response","571","666095","0.0-1.0-778.0","0","0","71491","","null","","","null","86","","NaN","","","","","","","","","","","","","",""
"","response","","html-keyboard-response","572","666465","0.0-1.0-779.0-0.0","0","0","71491","","369","","","68","86","","","2","86","training","adjacent","DC","4","3","N.jpg","P.jpg","0","0","1","",""
"","feedback","","html-keyboard-response","573","667468","0.0-1.0-780.0-0.0","0","0","71491","","null","","","null","86","","","","","","","","","","","","","","","",""
"","ITI","","html-keyboard-response","574","668472","0.0-1.0-783.0","0","0","71491","","null","","","null","86","","","","","","","","","","","","","","","NaN",""
"","S1","","html-keyboard-response","575","668724","0.0-1.0-785.0","0","0","71491","","null","","","null","87","","","","","","","","","","","","","","","",""
"","ISI","","html-keyboard-response","576","669226","0.0-1.0-786.0","0","0","71491","","null","","","null","87","NaN","","","","","","","","","","","","","","",""
"","S2","","html-keyboard-response","577","669479","0.0-1.0-787.0","0","0","71491","","null","","","null","87","","NaN","","","","","","","","","","","","","",""
"","response","","html-keyboard-response","578","669989","0.0-1.0-788.0-0.0","0","0","71491","","508","","","75","87","","","2","87","training","adjacent","ED","5","4","O.jpg","N.jpg","1","0","0","",""
"","feedback","","html-keyboard-response","579","670993","0.0-1.0-789.0-0.0","0","0","71491","","null","","","null","87","","","","","","","","","","","","","","","",""
"","time_out","","html-keyboard-response","580","672996","0.0-1.0-791.0-0.0","0","0","71491","","null","","","null","87","","","","","","","","","","","","","","","",""
