"success","ttype","start_time","trial_type","trial_index","time_elapsed","internal_node_id","warning","missed_checkup","PID","view_history","rt","responses","repeat_instructions","key_press","index","keypress_isi","keypress_S2","block","trial_num","phase","group_type","pair_type","S1_stim","S2_stim","S1_img","S2_img","S1_chosen","S1_higher","accuracy","keypress_iti","total_bonus_tally"
"true","full_screen","d04132023hr1528","fullscreen","0","9218","0.0-0.0","0","0","94208","","","","","","","","","","","","","","","","","","","","","",""
"","instructions","","instructions","1","42367","0.0-1.0-0.0-0.0","0","0","94208","[{""page_index"":0,""viewing_time"":5517},{""page_index"":1,""viewing_time"":18415},{""page_index"":2,""viewing_time"":7583},{""page_index"":3,""viewing_time"":1632}]","33148","","","","","","","","","","","","","","","","","","","",""
"","comprehension_check","","survey-multi-choice","2","61832","0.0-1.0-0.0-1.0","0","0","94208","","19462","{""Q0"":""True"",""Q1"":""D"",""Q2"":""Once the second image appears and while the screen 'MAKE A CHOICE' is shown"",""Q3"":""Green mark"",""Q4"":""either D or K""}","0","","","","","","","","","","","","","","","","","",""
"","start_exp","","html-keyboard-response","3","63398","0.0-1.0-1.0","0","0","94208","","1564","","","32","","","","","","","","","","","","","","","","",""
"","S1","","html-keyboard-response","4","63650","0.0-1.0-2.0","0","0","94208","","null","","","null","0","","","","","","","","","","","","","","","",""
"","ISI","","html-keyboard-response","5","64651","0.0-1.0-3.0","0","0","94208","","null","","","null","0","NaN","","","","","","","","","","","","","","",""
"","S2","","html-keyboard-response","6","64902","0.0-1.0-4.0","0","0","94208","","null","","","null","0","","NaN","","","","","","","","","","","","","",""
"","response","","html-keyboard-response","7","65493","0.0-1.0-5.0-0.0","0","0","94208","","590","","","75","0","","","1","0","training","adjacent","GF","7","6","N.jpg","O.jpg","0","0","1","",""
"","feedback","","html-keyboard-response","8","66495","0.0-1.0-6.0-0.0","0","0","94208","","null","","","null","0","","","","","","","","","","","","","","","",""
"","ITI","","html-keyboard-response","9","67497","0.0-1.0-9.0","0","0","94208","","null","","","null","0","","","","","","","","","","","","","","","NaN",""
"","S1","","html-keyboard-response","10","67748","0.0-1.0-11.0","0","0","94208","","null","","","null","1","","","","","","","","","","","","","","","",""
"","ISI","","html-keyboard-response","11","68749","0.0-1.0-12.0","0","0","94208","","null","","","null","1","NaN","","","","","","","","","","","","","","",""
"","S2","","html-keyboard-response","12","69000","0.0-1.0-13.0","0","0","94208","","null","","","null","1","","NaN","","","","","","","","","","","","","",""
"","response","","html-keyboard-response","13","69373","0.0-1.0-14.0-0.0","0","0","94208","","373","","","68","1","","","1","1","training","adjacent","BA","2","1","P.jpg","L.jpg","1","0","0","",""
"","feedback","","html-keyboard-response","14","70375","0.0-1.0-15.0-0.0","0","0","94208","","null","","","null","1","","","","","","","","","","","","","","","",""
"","time_out","","html-keyboard-response","15","72377","0.0-1.0-17.0-0.0","0","0","94208","","null","","","null","1","","","","","","","","","","","","","","","",""
"","ITI","","html-keyboard-response","16","73378","0.0-1.0-18.0","0","0","94208","","null","","","null","1","","","","","","","","","","","","","","","NaN",""
"","S1","","html-keyboard-response","17","73629","0.0-1.0-20.0","0","0","94208","","null","","","null","2","","","","","","","","","","","","","","","",""
"","ISI","","html-keyboard-response","18","74630","0.0-1.0-21.0","0","0","94208","","null","","","null","2","NaN","","","","","","","","","","","","","","",""
"","S2","","html-keyboard-response","19","74881","0.0-1.0-22.0","0","0","94208","","null","","","null","2","","NaN","","","","","","","","","","","","","",""
"","response","","html-keyboard-response","20","75389","0.0-1.0-23.0-0.0","0","0","94208","","507","","","75","2","","","1","2","training","adjacent","GF","7","6","N.jpg","O.jpg","0","0","1","",""
"","feedback","","html-keyboard-response","21","76391","0.0-1.0-24.0-0.0","0","0","94208","","null","","","null","2","","","","","","","","","","","","","","","",""
"","ITI","","html-keyboard-response","22","77392","0.0-1.0-27.0","0","0","94208","","null","","","null","2","","","","","","","","","","","","","","","NaN",""
"","S1","","html-keyboard-response","23","77644","0.0-1.0-29.0","0","0","94208","","null","","","null","3","","","","","","","","","","","","","","","",""
"","ISI","","html-keyboard-response","24","78645","0.0-1.0-30.0","0","0","94208","","null","","","null","3","NaN","","","","","","","","","","","","","","",""
"","S2","","html-keyboard-response","25","78897","0.0-1.0-31.0","0","0","94208","","null","","","null","3","","NaN","","","","","","","","","","","","","",""
"","response","","html-keyboard-response","26","79461","0.0-1.0-32.0-0.0","0","0","94208","","563","","","75","3","","","1","3","training","adjacent","BA","2","1","P.jpg","L.jpg","0","0","1","",""
"","feedback","","html-keyboard-response","27","80463","0.0-1.0-33.0-0.0","0","0","94208","","null","","","null","3","","","","","","","","","","","","","","","",""
"","ITI","","html-keyboard-response","28","81464","0.0-1.0-36.0","0","0","94208","","null","","","null","3","","","","","","","","","","","","","","","NaN",""
"","S1","","html-keyboard-response","29","81715","0.0-1.0-38.0","0","0","94208","","null","","","null","4","","","","","","","","","","","","","","","",""
"","ISI","","html-keyboard-response","30","82716","0.0-1.0-39.0","0","0","94208","","null","","","null","4","NaN","","","","","","","","","","","","","","",""
"","S2","","html-keyboard-response","31","82968","0.0-1.0-40.0","0","0","94208","","null","","","null","4","","NaN","","","","","","","","","","","","","",""
"","response","","html-keyboard-response","32","83357","0.0-1.0-41.0-0.0","0","0","94208","","388","","","68","4","","","1","4","training","adjacent","AB","1","2","L.jpg","P.jpg","1","1","1","",""
"","feedback","","html-keyboard-response","33","84359","0.0-1.0-42.0-0.0","0","0","94208","","null","","","null","4","","","","","","","","","","","","","","","",""
"","ITI","","html-keyboard-response","34","85360","0.0-1.0-45.0","0","0","94208","","null","","","null","4","","","","","","","","","","","","","","","NaN",""
"","S1","","html-keyboard-response","35","85611","0.0-1.0-47.0","0","0","94208","","null","","","null","5","","","","","","","","","","","","","","","",""
"","ISI","","html-keyboard-response","36","86612","0.0-1.0-48.0","0","0","94208","","null","","","null","5","NaN","","","","","","","","","","","","","","",""
"","S2","","html-keyboard-response","37","86863","0.0-1.0-49.0","0","0","94208","","null","","","null","5","","NaN","","","","","","","","","","","","","",""
"","response","","html-keyboard-response","38","87437","0.0-1.0-50.0-0.0","0","0","94208","","574","","","75","5","","","1","5","training","adjacent","FG","6","7","O.jpg","N.jpg","0","1","0","",""
"","feedback","","html-keyboard-response","39","88439","0.0-1.0-51.0-0.0","0","0","94208","","null","","","null","5","","","","","","","","","","","","","","","",""
"","time_out","","html-keyboard-response","40","90440","0.0-1.0-53.0-0.0","0","0","94208","","null","","","null","5","","","","","","","","","","","","","","","",""
"","ITI","","html-keyboard-response","41","91441","0.0-1.0-54.0","0","0","94208","","null","","","null","5","","","","","","","","","","","","","","","NaN",""
"","S1","","html-keyboard-response","42","91693","0.0-1.0-56.0","0","0","94208","","null","","","null","6","","","","","","","","","","","","","","","",""
"","ISI","","html-keyboard-response","43","92695","0.0-1.0-57.0","0","0","94208","","null","","","null","6","NaN","","","","","","","","","","","","","","",""
"","S2","","html-keyboard-response","44","92947","0.0-1.0-58.0","0","0","94208","","null","","","null","6","","NaN","","","","","","","","","","","","","",""
"","response","","html-keyboard-response","45","93454","0.0-1.0-59.0-0.0","0","0","94208","","506","","","75","6","","","1","6","training","adjacent","BA","2","1","P.jpg","L.jpg","0","0","1","",""
"","feedback","","html-keyboard-response","46","94455","0.0-1.0-60.0-0.0","0","0","94208","","null","","","null","6","","","","","","","","","","","","","","","",""
"","ITI","","html-keyboard-response","47","95456","0.0-1.0-63.0","0","0","94208","","null","","","null","6","","","","","","","","","","","","","","","NaN",""
"","S1","","html-keyboard-response","48","95707","0.0-1.0-65.0","0","0","94208","","null","","","null","7","","","","","","","","","","","","","","","",""
"","ISI","","html-keyboard-response","49","96708","0.0-1.0-66.0","0","0","94208","","null","","","null","7","NaN","","","","","","","","","","","","","","",""
"","S2","","html-keyboard-response","50","96959","0.0-1.0-67.0","0","0","94208","","null","","","null","7","","NaN","","","","","","","","","","","","","",""
"","response","","html-keyboard-response","51","97502","0.0-1.0-68.0-0.0","0","0","94208","","541","","","68","7","","","1","7","training","adjacent","AB","1","2","L.jpg","P.jpg","1","1","1","",""
"","feedback","","html-keyboard-response","52","98503","0.0-1.0-69.0-0.0","0","0","94208","","null","","","null","7","","","","","","","","","","","","","","","",""
"","ITI","","html-keyboard-response","53","99504","0.0-1.0-72.0","0","0","94208","","null","","","null","7","","","","","","","","","","","","","","","NaN",""
"","S1","","html-keyboard-response","54","99755","0.0-1.0-74.0","0","0","94208","","null","","","null","8","","","","","","","","","","","","","","","",""
"","ISI","","html-keyboard-response","55","100756","0.0-1.0-75.0","0","0","94208","","null","","","null","8","NaN","","","","","","","","","","","","","","",""
"","S2","","html-keyboard-response","56","101008","0.0-1.0-76.0","0","0","94208","","null","","","null","8","","NaN","","","","","","","","","","","","","",""
"","response","","html-keyboard-response","57","101646","0.0-1.0-77.0-0.0","0","0","94208","","637","","","68","8","","","1","8","training","adjacent","DE","4","5","Q.jpg","M.jpg","1","1","1","",""
"","feedback","","html-keyboard-response","58","102647","0.0-1.0-78.0-0.0","0","0","94208","","null","","","null","8","","","","","","","","","","","","","","","",""
"","ITI","","html-keyboard-response","59","103648","0.0-1.0-81.0","0","0","94208","","null","","","null","8","","","","","","","","","","","","","","","NaN",""
"","S1","","html-keyboard-response","60","103899","0.0-1.0-83.0","0","0","94208","","null","","","null","9","","","","","","","","","","","","","","","",""
"","ISI","","html-keyboard-response","61","104900","0.0-1.0-84.0","0","0","94208","","null","","","null","9","NaN","","","","","","","","","","","","","","",""
"","S2","","html-keyboard-response","62","105151","0.0-1.0-85.0","0","0","94208","","null","","","null","9","","NaN","","","","","","","","","","","","","",""
"","response","","html-keyboard-response","63","105454","0.0-1.0-86.0-0.0","0","0","94208","","301","","","75","9","","","1","9","training","adjacent","CB","3","2","R.jpg","P.jpg","0","0","1","",""
"","feedback","","html-keyboard-response","64","106455","0.0-1.0-87.0-0.0","0","0","94208","","null","","","null","9","","","","","","","","","","","","","","","",""
"","ITI","","html-keyboard-response","65","107456","0.0-1.0-90.0","0","0","94208","","null","","","null","9","","","","","","","","","","","","","","","NaN",""
"","S1","","html-keyboard-response","66","107707","0.0-1.0-92.0","0","0","94208","","null","","","null","10","","","","","","","","","","","","","","","",""
"","ISI","","html-keyboard-response","67","108708","0.0-1.0-93.0","0","0","94208","","null","","","null","10","NaN","","","","","","","","","","","","","","",""
"","S2","","html-keyboard-response","68","108960","0.0-1.0-94.0","0","0","94208","","null","","","null","10","","NaN","","","","","","","","","","","","","",""
"","response","","html-keyboard-response","69","109438","0.0-1.0-95.0-0.0","0","0","94208","","476","","","75","10","","","1","10","training","adjacent","FE","6","5","O.jpg","M.jpg","0","0","1","",""
"","feedback","","html-keyboard-response","70","110440","0.0-1.0-96.0-0.0","0","0","94208","","null","","","null","10","","","","","","","","","","","","","","","",""
"","ITI","","html-keyboard-response","71","111441","0.0-1.0-99.0","0","0","94208","","null","","","null","10","","","","","","","","","","","","","","","NaN",""
"","S1","","html-keyboard-response","72","111692","0.0-1.0-101.0","0","0","94208","","null","","","null","11","","","","","","","","","","","","","","","",""
"","ISI","","html-keyboard-response","73","112693","0.0-1.0-102.0","0","0","94208","","null","","","null","11","NaN","","","","","","","","","","","","","","",""
"","S2","","html-keyboard-response","74","112944","0.0-1.0-103.0","0","0","94208","","null","","","null","11","","NaN","","","","","","","","","","","","","",""
"","response","","html-keyboard-response","75","113462","0.0-1.0-104.0-0.0","0","0","94208","","517","","","68","11","","","1","11","training","adjacent","EF","5","6","M.jpg","O.jpg","1","1","1","",""
"","feedback","","html-keyboard-response","76","114463","0.0-1.0-105.0-0.0","0","0","94208","","null","","","null","11","","","","","","","","","","","","","","","",""
"","ITI","","html-keyboard-response","77","115465","0.0-1.0-108.0","0","0","94208","","null","","","null","11","","","","","","","","","","","","","","","NaN",""
"","S1","","html-keyboard-response","78","115716","0.0-1.0-110.0","0","0","94208","","null","","","null","12","","","","","","","","","","","","","","","",""
"","ISI","","html-keyboard-response","79","116717","0.0-1.0-111.0","0","0","94208","","null","","","null","12","NaN","","","","","","","","","","","","","","",""
"","S2","","html-keyboard-response","80","116968","0.0-1.0-112.0","0","0","94208","","null","","","null","12","","NaN","","","","","","","","","","","","","",""
"","response","","html-keyboard-response","81","117390","0.0-1.0-113.0-0.0","0","0","94208","","421","","","68","12","","","1","12","training","adjacent","FE","6","5","O.jpg","M.jpg","1","0","0","",""
"","feedback","","html-keyboard-response","82","118391","0.0-1.0-114.0-0.0","0","0","94208","","null","","","null","12","","","","","","","","","","","","","","","",""
"","time_out","","html-keyboard-response","83","120393","0.0-1.0-116.0-0.0","0","0","94208","","null","","","null","12","","","","","","","","","","","","","","","",""
"","ITI","","html-keyboard-response","84","121400","0.0-1.0-117.0","0","0","94208","","null","","","null","12","","","","","","","","","","","","","","","NaN",""
"","S1","","html-keyboard-response","85","121651","0.0-1.0-119.0","0","0","94208","","null","","","null","13","","","","","","","","","","","","","","","",""
"","ISI","","html-keyboard-response","86","122652","0.0-1.0-120.0","0","0","94208","","null","","","null","13","NaN","","","","","","","","","","","","","","",""
"","S2","","html-keyboard-response","87","122903","0.0-1.0-121.0","0","0","94208","","null","","","null","13","","NaN","","","","","","","","","","","","","",""
"","response","","html-keyboard-response","88","123262","0.0-1.0-122.0-0.0","0","0","94208","","357","","","75","13","","","1","13","training","adjacent","AB","1","2","L.jpg","P.jpg","0","1","0","",""
"","feedback","","html-keyboard-response","89","124263","0.0-1.0-123.0-0.0","0","0","94208","","null","","","null","13","","","","","","","","","","","","","","","",""
"","time_out","","html-keyboard-response","90","126264","0.0-1.0-125.0-0.0","0","0","94208","","null","","","null","13","","","","","","","","","","","","","","","",""
"","ITI","","html-keyboard-response","91","127265","0.0-1.0-126.0","0","0","94208","","null","","","null","13","","","","","","","","","","","","","","","NaN",""
"","S1","","html-keyboard-response","92","127516","0.0-1.0-128.0","0","0","94208","","null","","","null","14","","","","","","","","","","","","","","","",""
"","ISI","","html-keyboard-response","93","128518","0.0-1.0-129.0","0","0","94208","","null","","","null","14","NaN","","","","","","","","","","","","","","",""
"","S2","","html-keyboard-response","94","128769","0.0-1.0-130.0","0","0","94208","","null","","","null","14","","NaN","","","","","","","","","","","","","",""
"","response","","html-keyboard-response","95","129189","0.0-1.0-131.0-0.0","0","0","94208","","420","","","75","14","","","1","14","training","adjacent","DC","4","3","Q.jpg","R.jpg","0","0","1","",""
"","feedback","","html-keyboard-response","96","130191","0.0-1.0-132.0-0.0","0","0","94208","","null","","","null","14","","","","","","","","","","","","","","","",""
"","ITI","","html-keyboard-response","97","131192","0.0-1.0-135.0","0","0","94208","","null","","","null","14","","","","","","","","","","","","","","","NaN",""
"","S1","","html-keyboard-response","98","131443","0.0-1.0-137.0","0","0","94208","","null","","","null","15","","","","","","","","","","","","","","","",""
"","ISI","","html-keyboard-response","99","132445","0.0-1.0-138.0","0","0","94208","","null","","","null","15","NaN","","","","","","","","","","","","","","",""
"","S2","","html-keyboard-response","100","132696","0.0-1.0-139.0","0","0","94208","","null","","","null","15","","NaN","","","","","","","","","","","","","",""
"","response","","html-keyboard-response","101","133126","0.0-1.0-140.0-0.0","0","0","94208","","429","","","75","15","","","1","15","training","adjacent","BC","2","3","P.jpg","R.jpg","0","1","0","",""
"","feedback","","html-keyboard-response","102","134127","0.0-1.0-141.0-0.0","0","0","94208","","null","","","null","15","","","","","","","","","","","","","","","",""
"","time_out","","html-keyboard-response","103","136128","0.0-1.0-143.0-0.0","0","0","94208","","null","","","null","15","","","","","","","","","","","","","","","",""
"","ITI","","html-keyboard-response","104","137130","0.0-1.0-144.0","0","0","94208","","null","","","null","15","","","","","","","","","","","","","","","NaN",""
"","S1","","html-keyboard-response","105","137382","0.0-1.0-146.0","0","0","94208","","null","","","null","16","","","","","","","","","","","","","","","",""
"","ISI","","html-keyboard-response","106","138383","0.0-1.0-147.0","0","0","94208","","null","","","null","16","NaN","","","","","","","","","","","","","","",""
"","S2","","html-keyboard-response","107","138634","0.0-1.0-148.0","0","0","94208","","null","","","null","16","","NaN","","","","","","","","","","","","","",""
"","response","","html-keyboard-response","108","139054","0.0-1.0-149.0-0.0","0","0","94208","","419","","","75","16","","","1","16","training","adjacent","EF","5","6","M.jpg","O.jpg","0","1","0","",""
"","feedback","","html-keyboard-response","109","140055","0.0-1.0-150.0-0.0","0","0","94208","","null","","","null","16","","","","","","","","","","","","","","","",""
"","time_out","","html-keyboard-response","110","142057","0.0-1.0-152.0-0.0","0","0","94208","","null","","","null","16","","","","","","","","","","","","","","","",""
"","ITI","","html-keyboard-response","111","143058","0.0-1.0-153.0","0","0","94208","","null","","","null","16","","","","","","","","","","","","","","","NaN",""
"","S1","","html-keyboard-response","112","143309","0.0-1.0-155.0","0","0","94208","","null","","","null","17","","","","","","","","","","","","","","","",""
"","ISI","","html-keyboard-response","113","144310","0.0-1.0-156.0","0","0","94208","","null","","","null","17","NaN","","","","","","","","","","","","","","",""
"","S2","","html-keyboard-response","114","144561","0.0-1.0-157.0","0","0","94208","","null","","","null","17","","NaN","","","","","","","","","","","","","",""
"","response","","html-keyboard-response","115","144926","0.0-1.0-158.0-0.0","0","0","94208","","363","","","68","17","","","1","17","training","adjacent","AB","1","2","L.jpg","P.jpg","1","1","1","",""
"","feedback","","html-keyboard-response","116","145927","0.0-1.0-159.0-0.0","0","0","94208","","null","","","null","17","","","","","","","","","","","","","","","",""
"","ITI","","html-keyboard-response","117","146928","0.0-1.0-162.0","0","0","94208","","null","","","null","17","","","","","","","","","","","","","","","NaN",""
"","S1","","html-keyboard-response","118","147179","0.0-1.0-164.0","0","0","94208","","null","","","null","18","","","","","","","","","","","","","","","",""
"","ISI","","html-keyboard-response","119","148180","0.0-1.0-165.0","0","0","94208","","null","","","null","18","NaN","","","","","","","","","","","","","","",""
"","S2","","html-keyboard-response","120","148431","0.0-1.0-166.0","0","0","94208","","null","","","null","18","","NaN","","","","","","","","","","","","","",""
"","response","","html-keyboard-response","121","148886","0.0-1.0-167.0-0.0","0","0","94208","","454","","","75","18","","","1","18","training","adjacent","FG","6","7","O.jpg","N.jpg","0","1","0","",""
"","feedback","","html-keyboard-response","122","149888","0.0-1.0-168.0-0.0","0","0","94208","","null","","","null","18","","","","","","","","","","","","","","","",""
"","time_out","","html-keyboard-response","123","151889","0.0-1.0-170.0-0.0","0","0","94208","","null","","","null","18","","","","","","","","","","","","","","","",""
"","ITI","","html-keyboard-response","124","152890","0.0-1.0-171.0","0","0","94208","","null","","","null","18","","","","","","","","","","","","","","","NaN",""
"","S1","","html-keyboard-response","125","153141","0.0-1.0-173.0","0","0","94208","","null","","","null","19","","","","","","","","","","","","","","","",""
"","ISI","","html-keyboard-response","126","154142","0.0-1.0-174.0","0","0","94208","","null","","","null","19","NaN","","","","","","","","","","","","","","",""
"","S2","","html-keyboard-response","127","154393","0.0-1.0-175.0","0","0","94208","","null","","","null","19","","NaN","","","","","","","","","","","","","",""
"","response","","html-keyboard-response","128","155078","0.0-1.0-176.0-0.0","0","0","94208","","683","","","75","19","","","1","19","training","adjacent","ED","5","4","M.jpg","Q.jpg","0","0","1","",""
"","feedback","","html-keyboard-response","129","156079","0.0-1.0-177.0-0.0","0","0","94208","","null","","","null","19","","","","","","","","","","","","","","","",""
"","ITI","","html-keyboard-response","130","157080","0.0-1.0-180.0","0","0","94208","","null","","","null","19","","","","","","","","","","","","","","","NaN",""
"","S1","","html-keyboard-response","131","157332","0.0-1.0-182.0","0","0","94208","","null","","","null","20","","","","","","","","","","","","","","","",""
"","ISI","","html-keyboard-response","132","158333","0.0-1.0-183.0","0","0","94208","","null","","","null","20","NaN","","","","","","","","","","","","","","",""
"","S2","","html-keyboard-response","133","158585","0.0-1.0-184.0","0","0","94208","","null","","","null","20","","NaN","","","","","","","","","","","","","",""
"","response","","html-keyboard-response","134","158998","0.0-1.0-185.0-0.0","0","0","94208","","411","","","68","20","","","1","20","training","adjacent","GF","7","6","N.jpg","O.jpg","1","0","0","",""
"","feedback","","html-keyboard-response","135","159999","0.0-1.0-186.0-0.0","0","0","94208","","null","","","null","20","","","","","","","","","","","","","","","",""
"","time_out","","html-keyboard-response","136","162000","0.0-1.0-188.0-0.0","0","0","94208","","null","","","null","20","","","","","","","","","","","","","","","",""
"","ITI","","html-keyboard-response","137","163001","0.0-1.0-189.0","0","0","94208","","null","","","null","20","","","","","","","","","","","","","","","NaN",""
"","S1","","html-keyboard-response","138","163252","0.0-1.0-191.0","0","0","94208","","null","","","null","21","","","","","","","","","","","","","","","",""
"","ISI","","html-keyboard-response","139","164254","0.0-1.0-192.0","0","0","94208","","null","","","null","21","NaN","","","","","","","","","","","","","","",""
"","S2","","html-keyboard-response","140","164505","0.0-1.0-193.0","0","0","94208","","null","","","null","21","","NaN","","","","","","","","","","","","","",""
"","response","","html-keyboard-response","141","164837","0.0-1.0-194.0-0.0","0","0","94208","","332","","","75","21","","","1","21","training","adjacent","FE","6","5","O.jpg","M.jpg","0","0","1","",""
"","feedback","","html-keyboard-response","142","165839","0.0-1.0-195.0-0.0","0","0","94208","","null","","","null","21","","","","","","","","","","","","","","","",""
"","ITI","","html-keyboard-response","143","166840","0.0-1.0-198.0","0","0","94208","","null","","","null","21","","","","","","","","","","","","","","","NaN",""
"","S1","","html-keyboard-response","144","167091","0.0-1.0-200.0","0","0","94208","","null","","","null","22","","","","","","","","","","","","","","","",""
"","ISI","","html-keyboard-response","145","168092","0.0-1.0-201.0","0","0","94208","","null","","","null","22","NaN","","","","","","","","","","","","","","",""
"","S2","","html-keyboard-response","146","168344","0.0-1.0-202.0","0","0","94208","","null","","","null","22","","NaN","","","","","","","","","","","","","",""
"","response","","html-keyboard-response","147","169118","0.0-1.0-203.0-0.0","0","0","94208","","773","","","75","22","","","1","22","training","adjacent","EF","5","6","M.jpg","O.jpg","0","1","0","",""
"","feedback","","html-keyboard-response","148","170119","0.0-1.0-204.0-0.0","0","0","94208","","null","","","null","22","","","","","","","","","","","","","","","",""
"","time_out","","html-keyboard-response","149","172120","0.0-1.0-206.0-0.0","0","0","94208","","null","","","null","22","","","","","","","","","","","","","","","",""
"","ITI","","html-keyboard-response","150","173122","0.0-1.0-207.0","0","0","94208","","null","","","null","22","","","","","","","","","","","","","","","NaN",""
"","S1","","html-keyboard-response","151","173373","0.0-1.0-209.0","0","0","94208","","null","","","null","23","","","","","","","","","","","","","","","",""
"","ISI","","html-keyboard-response","152","174374","0.0-1.0-210.0","0","0","94208","","null","","","null","23","NaN","","","","","","","","","","","","","","",""
"","S2","","html-keyboard-response","153","174625","0.0-1.0-211.0","0","0","94208","","null","","","null","23","","NaN","","","","","","","","","","","","","",""
"","response","","html-keyboard-response","154","175046","0.0-1.0-212.0-0.0","0","0","94208","","420","","","75","23","","","1","23","training","adjacent","CD","3","4","R.jpg","Q.jpg","0","1","0","",""
"","feedback","","html-keyboard-response","155","176047","0.0-1.0-213.0-0.0","0","0","94208","","null","","","null","23","","","","","","","","","","","","","","","",""
"","time_out","","html-keyboard-response","156","178049","0.0-1.0-215.0-0.0","0","0","94208","","null","","","null","23","","","","","","","","","","","","","","","",""
"","ITI","","html-keyboard-response","157","179050","0.0-1.0-216.0","0","0","94208","","null","","","null","23","","","","","","","","","","","","","","","NaN",""
"","S1","","html-keyboard-response","158","179301","0.0-1.0-218.0","0","0","94208","","null","","","null","24","","","","","","","","","","","","","","","",""
"","ISI","","html-keyboard-response","159","180302","0.0-1.0-219.0","0","0","94208","","null","","","null","24","NaN","","","","","","","","","","","","","","",""
"","S2","","html-keyboard-response","160","180553","0.0-1.0-220.0","0","0","94208","","null","","","null","24","","NaN","","","","","","","","","","","","","",""
"","response","","html-keyboard-response","161","180870","0.0-1.0-221.0-0.0","0","0","94208","","315","","","75","24","","","1","24","training","adjacent","DE","4","5","Q.jpg","M.jpg","0","1","0","",""
"","feedback","","html-keyboard-response","162","181871","0.0-1.0-222.0-0.0","0","0","94208","","null","","","null","24","","","","","","","","","","","","","","","",""
"","time_out","","html-keyboard-response","163","183873","0.0-1.0-224.0-0.0","0","0","94208","","null","","","null","24","","","","","","","","","","","","","","","",""
"","ITI","","html-keyboard-response","164","184874","0.0-1.0-225.0","0","0","94208","","null","","","null","24","","","","","","","","","","","","","","","NaN",""
"","S1","","html-keyboard-response","165","185125","0.0-1.0-227.0","0","0","94208","","null","","","null","25","","","","","","","","","","","","","","","",""
"","ISI","","html-keyboard-response","166","186127","0.0-1.0-228.0","0","0","94208","","null","","","null","25","NaN","","","","","","","","","","","","","","",""
"","S2","","html-keyboard-response","167","186378","0.0-1.0-229.0","0","0","94208","","null","","","null","25","","NaN","","","","","","","","","","","","","",""
"","response","","html-keyboard-response","168","186774","0.0-1.0-230.0-0.0","0","0","94208","","395","","","75","25","","","1","25","training","adjacent","CB","3","2","R.jpg","P.jpg","0","0","1","",""
"","feedback","","html-keyboard-response","169","187775","0.0-1.0-231.0-0.0","0","0","94208","","null","","","null","25","","","","","","","","","","","","","","","",""
"","ITI","","html-keyboard-response","170","188776","0.0-1.0-234.0","0","0","94208","","null","","","null","25","","","","","","","","","","","","","","","NaN",""
"","S1","","html-keyboard-response","171","189027","0.0-1.0-236.0","0","0","94208","","null","","","null","26","","","","","","","","","","","","","","","",""
"","ISI","","html-keyboard-response","172","190029","0.0-1.0-237.0","0","0","94208","","null","","","null","26","NaN","","","","","","","","","","","","","","",""
"","S2","","html-keyboard-response","173","190281","0.0-1.0-238.0","0","0","94208","","null","","","null","26","","NaN","","","","","","","","","","","","","",""
"","response","","html-keyboard-response","174","190685","0.0-1.0-239.0-0.0","0","0","94208","","404","","","68","26","","","1","26","training","adjacent","ED","5","4","M.jpg","Q.jpg","1","0","0","",""
"","feedback","","html-keyboard-response","175","191687","0.0-1.0-240.0-0.0","0","0","94208","","null","","","null","26","","","","","","","","","","","","","","","",""
"","time_out","","html-keyboard-response","176","193688","0.0-1.0-242.0-0.0","0","0","94208","","null","","","null","26","","","","","","","","","","","","","","","",""
"","ITI","","html-keyboard-response","177","194690","0.0-1.0-243.0","0","0","94208","","null","","","null","26","","","","","","","","","","","","","","","NaN",""
"","S1","","html-keyboard-response","178","194941","0.0-1.0-245.0","0","0","94208","","null","","","null","27","","","","","","","","","","","","","","","",""
"","ISI","","html-keyboard-response","179","195942","0.0-1.0-246.0","0","0","94208","","null","","","null","27","NaN","","","","","","","","","","","","","","",""
"","S2","","html-keyboard-response","180","196193","0.0-1.0-247.0","0","0","94208","","null","","","null","27","","NaN","","","","","","","","","","","","","",""
"","response","","html-keyboard-response","181","196510","0.0-1.0-248.0-0.0","0","0","94208","","316","","","75","27","","","1","27","training","adjacent","BC","2","3","P.jpg","R.jpg","0","1","0","",""
"","feedback","","html-keyboard-response","182","197511","0.0-1.0-249.0-0.0","0","0","94208","","null","","","null","27","","","","","","","","","","","","","","","",""
"","time_out","","html-keyboard-response","183","199513","0.0-1.0-251.0-0.0","0","0","94208","","null","","","null","27","","","","","","","","","","","","","","","",""
"","ITI","","html-keyboard-response","184","200514","0.0-1.0-252.0","0","0","94208","","null","","","null","27","","","","","","","","","","","","","","","NaN",""
"","S1","","html-keyboard-response","185","200765","0.0-1.0-254.0","0","0","94208","","null","","","null","28","","","","","","","","","","","","","","","",""
"","ISI","","html-keyboard-response","186","201766","0.0-1.0-255.0","0","0","94208","","null","","","null","28","NaN","","","","","","","","","","","","","","",""
"","S2","","html-keyboard-response","187","202017","0.0-1.0-256.0","0","0","94208","","null","","","null","28","","NaN","","","","","","","","","","","","","",""
"","response","","html-keyboard-response","188","202301","0.0-1.0-257.0-0.0","0","0","94208","","284","","","75","28","","","1","28","training","adjacent","FG","6","7","O.jpg","N.jpg","0","1","0","",""
"","feedback","","html-keyboard-response","189","203303","0.0-1.0-258.0-0.0","0","0","94208","","null","","","null","28","","","","","","","","","","","","","","","",""
"","time_out","","html-keyboard-response","190","205305","0.0-1.0-260.0-0.0","0","0","94208","","null","","","null","28","","","","","","","","","","","","","","","",""
"","ITI","","html-keyboard-response","191","206306","0.0-1.0-261.0","0","0","94208","","null","","","null","28","","","","","","","","","","","","","","","NaN",""
"","S1","","html-keyboard-response","192","206557","0.0-1.0-263.0","0","0","94208","","null","","","null","29","","","","","","","","","","","","","","","",""
"","ISI","","html-keyboard-response","193","207558","0.0-1.0-264.0","0","0","94208","","null","","","null","29","NaN","","","","","","","","","","","","","","",""
"","S2","","html-keyboard-response","194","207809","0.0-1.0-265.0","0","0","94208","","null","","","null","29","","NaN","","","","","","","","","","","","","",""
"","response","","html-keyboard-response","195","208134","0.0-1.0-266.0-0.0","0","0","94208","","323","","","75","29","","","1","29","training","adjacent","ED","5","4","M.jpg","Q.jpg","0","0","1","",""
"","feedback","","html-keyboard-response","196","209135","0.0-1.0-267.0-0.0","0","0","94208","","null","","","null","29","","","","","","","","","","","","","","","",""
"","ITI","","html-keyboard-response","197","210136","0.0-1.0-270.0","0","0","94208","","null","","","null","29","","","","","","","","","","","","","","","NaN",""
"","S1","","html-keyboard-response","198","210387","0.0-1.0-272.0","0","0","94208","","null","","","null","30","","","","","","","","","","","","","","","",""
"","ISI","","html-keyboard-response","199","211388","0.0-1.0-273.0","0","0","94208","","null","","","null","30","NaN","","","","","","","","","","","","","","",""
"","S2","","html-keyboard-response","200","211640","0.0-1.0-274.0","0","0","94208","","null","","","null","30","","NaN","","","","","","","","","","","","","",""
"","response","","html-keyboard-response","201","212246","0.0-1.0-275.0-0.0","0","0","94208","","604","","","68","30","","","1","30","training","adjacent","EF","5","6","M.jpg","O.jpg","1","1","1","",""
"","feedback","","html-keyboard-response","202","213247","0.0-1.0-276.0-0.0","0","0","94208","","null","","","null","30","","","","","","","","","","","","","","","",""
"","ITI","","html-keyboard-response","203","214248","0.0-1.0-279.0","0","0","94208","","null","","","null","30","","","","","","","","","","","","","","","NaN",""
"","S1","","html-keyboard-response","204","214499","0.0-1.0-281.0","0","0","94208","","null","","","null","31","","","","","","","","","","","","","","","",""
"","ISI","","html-keyboard-response","205","215501","0.0-1.0-282.0","0","0","94208","","null","","","null","31","NaN","","","","","","","","","","","","","","",""
"","S2","","html-keyboard-response","206","215753","0.0-1.0-283.0","0","0","94208","","null","","","null","31","","NaN","","","","","","","","","","","","","",""
"","response","","html-keyboard-response","207","216134","0.0-1.0-284.0-0.0","0","0","94208","","380","","","75","31","","","1","31","training","adjacent","GF","7","6","N.jpg","O.jpg","0","0","1","",""
"","feedback","","html-keyboard-response","208","217135","0.0-1.0-285.0-0.0","0","0","94208","","null","","","null","31","","","","","","","","","","","","","","","",""
"","ITI","","html-keyboard-response","209","218136","0.0-1.0-288.0","0","0","94208","","null","","","null","31","","","","","","","","","","","","","","","NaN",""
"","S1","","html-keyboard-response","210","218387","0.0-1.0-290.0","0","0","94208","","null","","","null","32","","","","","","","","","","","","","","","",""
"","ISI","","html-keyboard-response","211","219389","0.0-1.0-291.0","0","0","94208","","null","","","null","32","NaN","","","","","","","","","","","","","","",""
"","S2","","html-keyboard-response","212","219640","0.0-1.0-292.0","0","0","94208","","null","","","null","32","","NaN","","","","","","","","","","","","","",""
"","response","","html-keyboard-response","213","220414","0.0-1.0-293.0-0.0","0","0","94208","","773","","","75","32","","","1","32","training","adjacent","CD","3","4","R.jpg","Q.jpg","0","1","0","",""
"","feedback","","html-keyboard-response","214","221415","0.0-1.0-294.0-0.0","0","0","94208","","null","","","null","32","","","","","","","","","","","","","","","",""
"","time_out","","html-keyboard-response","215","223416","0.0-1.0-296.0-0.0","0","0","94208","","null","","","null","32","","","","","","","","","","","","","","","",""
"","ITI","","html-keyboard-response","216","224418","0.0-1.0-297.0","0","0","94208","","null","","","null","32","","","","","","","","","","","","","","","NaN",""
"","S1","","html-keyboard-response","217","224669","0.0-1.0-299.0","0","0","94208","","null","","","null","33","","","","","","","","","","","","","","","",""
"","ISI","","html-keyboard-response","218","225670","0.0-1.0-300.0","0","0","94208","","null","","","null","33","NaN","","","","","","","","","","","","","","",""
"","S2","","html-keyboard-response","219","225921","0.0-1.0-301.0","0","0","94208","","null","","","null","33","","NaN","","","","","","","","","","","","","",""
"","response","","html-keyboard-response","220","226294","0.0-1.0-302.0-0.0","0","0","94208","","372","","","75","33","","","1","33","training","adjacent","DC","4","3","Q.jpg","R.jpg","0","0","1","",""
"","feedback","","html-keyboard-response","221","227295","0.0-1.0-303.0-0.0","0","0","94208","","null","","","null","33","","","","","","","","","","","","","","","",""
"","ITI","","html-keyboard-response","222","228297","0.0-1.0-306.0","0","0","94208","","null","","","null","33","","","","","","","","","","","","","","","NaN",""
"","S1","","html-keyboard-response","223","228548","0.0-1.0-308.0","0","0","94208","","null","","","null","34","","","","","","","","","","","","","","","",""
"","ISI","","html-keyboard-response","224","229549","0.0-1.0-309.0","0","0","94208","","null","","","null","34","NaN","","","","","","","","","","","","","","",""
"","S2","","html-keyboard-response","225","229800","0.0-1.0-310.0","0","0","94208","","null","","","null","34","","NaN","","","","","","","","","","","","","",""
"","response","","html-keyboard-response","226","230350","0.0-1.0-311.0-0.0","0","0","94208","","549","","","75","34","","","1","34","training","adjacent","CB","3","2","R.jpg","P.jpg","0","0","1","",""
"","feedback","","html-keyboard-response","227","231351","0.0-1.0-312.0-0.0","0","0","94208","","null","","","null","34","","","","","","","","","","","","","","","",""
"","ITI","","html-keyboard-response","228","232352","0.0-1.0-315.0","0","0","94208","","null","","","null","34","","","","","","","","","","","","","","","NaN",""
"","S1","","html-keyboard-response","229","232605","0.0-1.0-317.0","0","0","94208","","null","","","null","35","","","","","","","","","","","","","","","",""
"","ISI","","html-keyboard-response","230","233606","0.0-1.0-318.0","0","0","94208","","null","","","null","35","NaN","","","","","","","","","","","","","","",""
"","S2","","html-keyboard-response","231","233859","0.0-1.0-319.0","0","0","94208","","null","","","null","35","","NaN","","","","","","","","","","","","","",""
"","response","","html-keyboard-response","232","234582","0.0-1.0-320.0-0.0","0","0","94208","","723","","","68","35","","","1","35","training","adjacent","BA","2","1","P.jpg","L.jpg","1","0","0","",""
"","feedback","","html-keyboard-response","233","235583","0.0-1.0-321.0-0.0","0","0","94208","","null","","","null","35","","","","","","","","","","","","","","","",""
"","time_out","","html-keyboard-response","234","237585","0.0-1.0-323.0-0.0","0","0","94208","","null","","","null","35","","","","","","","","","","","","","","","",""
"","ITI","","html-keyboard-response","235","238586","0.0-1.0-324.0","0","0","94208","","null","","","null","35","","","","","","","","","","","","","","","NaN",""
"","S1","","html-keyboard-response","236","238837","0.0-1.0-326.0","0","0","94208","","null","","","null","36","","","","","","","","","","","","","","","",""
"","ISI","","html-keyboard-response","237","239838","0.0-1.0-327.0","0","0","94208","","null","","","null","36","NaN","","","","","","","","","","","","","","",""
"","S2","","html-keyboard-response","238","240089","0.0-1.0-328.0","0","0","94208","","null","","","null","36","","NaN","","","","","","","","","","","","","",""
"","response","","html-keyboard-response","239","240462","0.0-1.0-329.0-0.0","0","0","94208","","371","","","75","36","","","1","36","training","adjacent","DE","4","5","Q.jpg","M.jpg","0","1","0","",""
"","feedback","","html-keyboard-response","240","241463","0.0-1.0-330.0-0.0","0","0","94208","","null","","","null","36","","","","","","","","","","","","","","","",""
"","time_out","","html-keyboard-response","241","243465","0.0-1.0-332.0-0.0","0","0","94208","","null","","","null","36","","","","","","","","","","","","","","","",""
"","ITI","","html-keyboard-response","242","244466","0.0-1.0-333.0","0","0","94208","","null","","","null","36","","","","","","","","","","","","","","","NaN",""
"","S1","","html-keyboard-response","243","244718","0.0-1.0-335.0","0","0","94208","","null","","","null","37","","","","","","","","","","","","","","","",""
"","ISI","","html-keyboard-response","244","245719","0.0-1.0-336.0","0","0","94208","","null","","","null","37","NaN","","","","","","","","","","","","","","",""
"","S2","","html-keyboard-response","245","245970","0.0-1.0-337.0","0","0","94208","","null","","","null","37","","NaN","","","","","","","","","","","","","",""
"","response","","html-keyboard-response","246","246462","0.0-1.0-338.0-0.0","0","0","94208","","490","","","75","37","","","1","37","training","adjacent","DE","4","5","Q.jpg","M.jpg","0","1","0","",""
"","feedback","","html-keyboard-response","247","247464","0.0-1.0-339.0-0.0","0","0","94208","","null","","","null","37","","","","","","","","","","","","","","","",""
"","time_out","","html-keyboard-response","248","249465","0.0-1.0-341.0-0.0","0","0","94208","","null","","","null","37","","","","","","","","","","","","","","","",""
"","ITI","","html-keyboard-response","249","250467","0.0-1.0-342.0","0","0","94208","","null","","","null","37","","","","","","","","","","","","","","","NaN",""
"","S1","","html-keyboard-response","250","250718","0.0-1.0-344.0","0","0","94208","","null","","","null","38","","","","","","","","","","","","","","","",""
"","ISI","","html-keyboard-response","251","251719","0.0-1.0-345.0","0","0","94208","","null","","","null","38","NaN","","","","","","","","","","","","","","",""
"","S2","","html-keyboard-response","252","251971","0.0-1.0-346.0","0","0","94208","","null","","","null","38","","NaN","","","","","","","","","","","","","",""
"","response","","html-keyboard-response","253","252270","0.0-1.0-347.0-0.0","0","0","94208","","298","","","68","38","","","1","38","training","adjacent","CD","3","4","R.jpg","Q.jpg","1","1","1","",""
"","feedback","","html-keyboard-response","254","253278","0.0-1.0-348.0-0.0","0","0","94208","","null","","","null","38","","","","","","","","","","","","","","","",""
"","ITI","","html-keyboard-response","255","254279","0.0-1.0-351.0","0","0","94208","","null","","","null","38","","","","","","","","","","","","","","","NaN",""
"","S1","","html-keyboard-response","256","254530","0.0-1.0-353.0","0","0","94208","","null","","","null","39","","","","","","","","","","","","","","","",""
"","ISI","","html-keyboard-response","257","255532","0.0-1.0-354.0","0","0","94208","","null","","","null","39","NaN","","","","","","","","","","","","","","",""
"","S2","","html-keyboard-response","258","255784","0.0-1.0-355.0","0","0","94208","","null","","","null","39","","NaN","","","","","","","","","","","","","",""
"","response","","html-keyboard-response","259","256222","0.0-1.0-356.0-0.0","0","0","94208","","437","","","68","39","","","1","39","training","adjacent","CB","3","2","R.jpg","P.jpg","1","0","0","",""
"","feedback","","html-keyboard-response","260","257223","0.0-1.0-357.0-0.0","0","0","94208","","null","","","null","39","","","","","","","","","","","","","","","",""
"","time_out","","html-keyboard-response","261","259225","0.0-1.0-359.0-0.0","0","0","94208","","null","","","null","39","","","","","","","","","","","","","","","",""
"","ITI","","html-keyboard-response","262","260226","0.0-1.0-360.0","0","0","94208","","null","","","null","39","","","","","","","","","","","","","","","NaN",""
"","S1","","html-keyboard-response","263","260477","0.0-1.0-362.0","0","0","94208","","null","","","null","40","","","","","","","","","","","","","","","",""
"","ISI","","html-keyboard-response","264","261478","0.0-1.0-363.0","0","0","94208","","null","","","null","40","NaN","","","","","","","","","","","","","","",""
"","S2","","html-keyboard-response","265","261729","0.0-1.0-364.0","0","0","94208","","null","","","null","40","","NaN","","","","","","","","","","","","","",""
"","response","","html-keyboard-response","266","262134","0.0-1.0-365.0-0.0","0","0","94208","","404","","","75","40","","","1","40","training","adjacent","DC","4","3","Q.jpg","R.jpg","0","0","1","",""
"","feedback","","html-keyboard-response","267","263135","0.0-1.0-366.0-0.0","0","0","94208","","null","","","null","40","","","","","","","","","","","","","","","",""
"","ITI","","html-keyboard-response","268","264137","0.0-1.0-369.0","0","0","94208","","null","","","null","40","","","","","","","","","","","","","","","NaN",""
"","S1","","html-keyboard-response","269","264388","0.0-1.0-371.0","0","0","94208","","null","","","null","41","","","","","","","","","","","","","","","",""
"","ISI","","html-keyboard-response","270","265389","0.0-1.0-372.0","0","0","94208","","null","","","null","41","NaN","","","","","","","","","","","","","","",""
"","S2","","html-keyboard-response","271","265640","0.0-1.0-373.0","0","0","94208","","null","","","null","41","","NaN","","","","","","","","","","","","","",""
"","response","","html-keyboard-response","272","266078","0.0-1.0-374.0-0.0","0","0","94208","","437","","","75","41","","","1","41","training","adjacent","ED","5","4","M.jpg","Q.jpg","0","0","1","",""
"","feedback","","html-keyboard-response","273","267079","0.0-1.0-375.0-0.0","0","0","94208","","null","","","null","41","","","","","","","","","","","","","","","",""
"","ITI","","html-keyboard-response","274","268081","0.0-1.0-378.0","0","0","94208","","null","","","null","41","","","","","","","","","","","","","","","NaN",""
"","S1","","html-keyboard-response","275","268332","0.0-1.0-380.0","0","0","94208","","null","","","null","42","","","","","","","","","","","","","","","",""
"","ISI","","html-keyboard-response","276","269333","0.0-1.0-381.0","0","0","94208","","null","","","null","42","NaN","","","","","","","","","","","","","","",""
"","S2","","html-keyboard-response","277","269585","0.0-1.0-382.0","0","0","94208","","null","","","null","42","","NaN","","","","","","","","","","","","","",""
"","response","","html-keyboard-response","278","270030","0.0-1.0-383.0-0.0","0","0","94208","","444","","","68","42","","","1","42","training","adjacent","FE","6","5","O.jpg","M.jpg","1","0","0","",""
"","feedback","","html-keyboard-response","279","271031","0.0-1.0-384.0-0.0","0","0","94208","","null","","","null","42","","","","","","","","","","","","","","","",""
"","time_out","","html-keyboard-response","280","273032","0.0-1.0-386.0-0.0","0","0","94208","","null","","","null","42","","","","","","","","","","","","","","","",""
"","ITI","","html-keyboard-response","281","274033","0.0-1.0-387.0","0","0","94208","","null","","","null","42","","","","","","","","","","","","","","","NaN",""
"","S1","","html-keyboard-response","282","274284","0.0-1.0-389.0","0","0","94208","","null","","","null","43","","","","","","","","","","","","","","","",""
"","ISI","","html-keyboard-response","283","275286","0.0-1.0-390.0","0","0","94208","","null","","","null","43","NaN","","","","","","","","","","","","","","",""
"","S2","","html-keyboard-response","284","275537","0.0-1.0-391.0","0","0","94208","","null","","","null","43","","NaN","","","","","","","","","","","","","",""
"","response","","html-keyboard-response","285","275910","0.0-1.0-392.0-0.0","0","0","94208","","372","","","75","43","","","1","43","training","adjacent","BC","2","3","P.jpg","R.jpg","0","1","0","",""
"","feedback","","html-keyboard-response","286","276911","0.0-1.0-393.0-0.0","0","0","94208","","null","","","null","43","","","","","","","","","","","","","","","",""
"","time_out","","html-keyboard-response","287","278912","0.0-1.0-395.0-0.0","0","0","94208","","null","","","null","43","","","","","","","","","","","","","","","",""
"","ITI","","html-keyboard-response","288","279914","0.0-1.0-396.0","0","0","94208","","null","","","null","43","","","","","","","","","","","","","","","NaN",""
"","S1","","html-keyboard-response","289","280165","0.0-1.0-398.0","0","0","94208","","null","","","null","44","","","","","","","","","","","","","","","",""
"","ISI","","html-keyboard-response","290","281166","0.0-1.0-399.0","0","0","94208","","null","","","null","44","NaN","","","","","","","","","","","","","","",""
"","S2","","html-keyboard-response","291","281418","0.0-1.0-400.0","0","0","94208","","null","","","null","44","","NaN","","","","","","","","","","","","","",""
"","response","","html-keyboard-response","292","281862","0.0-1.0-401.0-0.0","0","0","94208","","443","","","68","44","","","1","44","training","adjacent","CD","3","4","R.jpg","Q.jpg","1","1","1","",""
"","feedback","","html-keyboard-response","293","282863","0.0-1.0-402.0-0.0","0","0","94208","","null","","","null","44","","","","","","","","","","","","","","","",""
"","ITI","","html-keyboard-response","294","283865","0.0-1.0-405.0","0","0","94208","","null","","","null","44","","","","","","","","","","","","","","","NaN",""
"","S1","","html-keyboard-response","295","284116","0.0-1.0-407.0","0","0","94208","","null","","","null","45","","","","","","","","","","","","","","","",""
"","ISI","","html-keyboard-response","296","285117","0.0-1.0-408.0","0","0","94208","","null","","","null","45","NaN","","","","","","","","","","","","","","",""
"","S2","","html-keyboard-response","297","285368","0.0-1.0-409.0","0","0","94208","","null","","","null","45","","NaN","","","","","","","","","","","","","",""
"","response","","html-keyboard-response","298","286030","0.0-1.0-410.0-0.0","0","0","94208","","661","","","75","45","","","1","45","training","adjacent","DC","4","3","Q.jpg","R.jpg","0","0","1","",""
"","feedback","","html-keyboard-response","299","287031","0.0-1.0-411.0-0.0","0","0","94208","","null","","","null","45","","","","","","","","","","","","","","","",""
"","ITI","","html-keyboard-response","300","288033","0.0-1.0-414.0","0","0","94208","","null","","","null","45","","","","","","","","","","","","","","","NaN",""
"","S1","","html-keyboard-response","301","288284","0.0-1.0-416.0","0","0","94208","","null","","","null","46","","","","","","","","","","","","","","","",""
"","ISI","","html-keyboard-response","302","289285","0.0-1.0-417.0","0","0","94208","","null","","","null","46","NaN","","","","","","","","","","","","","","",""
"","S2","","html-keyboard-response","303","289537","0.0-1.0-418.0","0","0","94208","","null","","","null","46","","NaN","","","","","","","","","","","","","",""
"","response","","html-keyboard-response","304","290245","0.0-1.0-419.0-0.0","0","0","94208","","708","","","75","46","","","1","46","training","adjacent","BC","2","3","P.jpg","R.jpg","0","1","0","",""
"","feedback","","html-keyboard-response","305","291247","0.0-1.0-420.0-0.0","0","0","94208","","null","","","null","46","","","","","","","","","","","","","","","",""
"","time_out","","html-keyboard-response","306","293249","0.0-1.0-422.0-0.0","0","0","94208","","null","","","null","46","","","","","","","","","","","","","","","",""
"","ITI","","html-keyboard-response","307","294250","0.0-1.0-423.0","0","0","94208","","null","","","null","46","","","","","","","","","","","","","","","NaN",""
"","S1","","html-keyboard-response","308","294501","0.0-1.0-425.0","0","0","94208","","null","","","null","47","","","","","","","","","","","","","","","",""
"","ISI","","html-keyboard-response","309","295502","0.0-1.0-426.0","0","0","94208","","null","","","null","47","NaN","","","","","","","","","","","","","","",""
"","S2","","html-keyboard-response","310","295753","0.0-1.0-427.0","0","0","94208","","null","","","null","47","","NaN","","","","","","","","","","","","","",""
"","response","","html-keyboard-response","311","296286","0.0-1.0-428.0-0.0","0","0","94208","","531","","","68","47","","","1","47","training","adjacent","FG","6","7","O.jpg","N.jpg","1","1","1","",""
"","feedback","","html-keyboard-response","312","297288","0.0-1.0-429.0-0.0","0","0","94208","","null","","","null","47","","","","","","","","","","","","","","","",""
"","ITI","","html-keyboard-response","313","298289","0.0-1.0-432.0","0","0","94208","","null","","","null","47","","","","","","","","","","","","","","","NaN",""
"","block_over","","html-keyboard-response","314","302670","0.0-1.0-433.0-0.0","0","0","94208","","4379","","","32","47","","","","","","","","","","","","","","","",""
"","S1","","html-keyboard-response","315","302921","0.0-1.0-434.0","0","0","94208","","null","","","null","48","","","","","","","","","","","","","","","",""
"","ISI","","html-keyboard-response","316","303922","0.0-1.0-435.0","0","0","94208","","null","","","null","48","NaN","","","","","","","","","","","","","","",""
"","S2","","html-keyboard-response","317","304173","0.0-1.0-436.0","0","0","94208","","null","","","null","48","","NaN","","","","","","","","","","","","","",""
"","response","","html-keyboard-response","318","304806","0.0-1.0-437.0-0.0","0","0","94208","","631","","","75","48","","","2","48","training","adjacent","AB","1","2","L.jpg","P.jpg","0","1","0","",""
"","feedback","","html-keyboard-response","319","305808","0.0-1.0-438.0-0.0","0","0","94208","","null","","","null","48","","","","","","","","","","","","","","","",""
"","time_out","","html-keyboard-response","320","307809","0.0-1.0-440.0-0.0","0","0","94208","","null","","","null","48","","","","","","","","","","","","","","","",""
"","ITI","","html-keyboard-response","321","308810","0.0-1.0-441.0","0","0","94208","","null","","","null","48","","","","","","","","","","","","","","","NaN",""
"","S1","","html-keyboard-response","322","309061","0.0-1.0-443.0","0","0","94208","","null","","","null","49","","","","","","","","","","","","","","","",""
"","ISI","","html-keyboard-response","323","310063","0.0-1.0-444.0","0","0","94208","","null","","","null","49","NaN","","","","","","","","","","","","","","",""
"","S2","","html-keyboard-response","324","310315","0.0-1.0-445.0","0","0","94208","","null","","","null","49","","NaN","","","","","","","","","","","","","",""
"","response","","html-keyboard-response","325","310782","0.0-1.0-446.0-0.0","0","0","94208","","466","","","75","49","","","2","49","training","adjacent","BC","2","3","P.jpg","R.jpg","0","1","0","",""
"","feedback","","html-keyboard-response","326","311783","0.0-1.0-447.0-0.0","0","0","94208","","null","","","null","49","","","","","","","","","","","","","","","",""
"","time_out","","html-keyboard-response","327","313784","0.0-1.0-449.0-0.0","0","0","94208","","null","","","null","49","","","","","","","","","","","","","","","",""
"","ITI","","html-keyboard-response","328","314786","0.0-1.0-450.0","0","0","94208","","null","","","null","49","","","","","","","","","","","","","","","NaN",""
"","S1","","html-keyboard-response","329","315037","0.0-1.0-452.0","0","0","94208","","null","","","null","50","","","","","","","","","","","","","","","",""
"","ISI","","html-keyboard-response","330","316038","0.0-1.0-453.0","0","0","94208","","null","","","null","50","NaN","","","","","","","","","","","","","","",""
"","S2","","html-keyboard-response","331","316290","0.0-1.0-454.0","0","0","94208","","null","","","null","50","","NaN","","","","","","","","","","","","","",""
"","response","","html-keyboard-response","332","316782","0.0-1.0-455.0-0.0","0","0","94208","","491","","","75","50","","","2","50","training","adjacent","DC","4","3","Q.jpg","R.jpg","0","0","1","",""
"","feedback","","html-keyboard-response","333","317783","0.0-1.0-456.0-0.0","0","0","94208","","null","","","null","50","","","","","","","","","","","","","","","",""
"","ITI","","html-keyboard-response","334","318784","0.0-1.0-459.0","0","0","94208","","null","","","null","50","","","","","","","","","","","","","","","NaN",""
"","S1","","html-keyboard-response","335","319037","0.0-1.0-461.0","0","0","94208","","null","","","null","51","","","","","","","","","","","","","","","",""
"","ISI","","html-keyboard-response","336","320038","0.0-1.0-462.0","0","0","94208","","null","","","null","51","NaN","","","","","","","","","","","","","","",""
"","S2","","html-keyboard-response","337","320290","0.0-1.0-463.0","0","0","94208","","null","","","null","51","","NaN","","","","","","","","","","","","","",""
"","response","","html-keyboard-response","338","320878","0.0-1.0-464.0-0.0","0","0","94208","","587","","","75","51","","","2","51","training","adjacent","BA","2","1","P.jpg","L.jpg","0","0","1","",""
"","feedback","","html-keyboard-response","339","321879","0.0-1.0-465.0-0.0","0","0","94208","","null","","","null","51","","","","","","","","","","","","","","","",""
"","ITI","","html-keyboard-response","340","322880","0.0-1.0-468.0","0","0","94208","","null","","","null","51","","","","","","","","","","","","","","","NaN",""
"","S1","","html-keyboard-response","341","323131","0.0-1.0-470.0","0","0","94208","","null","","","null","52","","","","","","","","","","","","","","","",""
"","ISI","","html-keyboard-response","342","324133","0.0-1.0-471.0","0","0","94208","","null","","","null","52","NaN","","","","","","","","","","","","","","",""
"","S2","","html-keyboard-response","343","324385","0.0-1.0-472.0","0","0","94208","","null","","","null","52","","NaN","","","","","","","","","","","","","",""
"","response","","html-keyboard-response","344","324949","0.0-1.0-473.0-0.0","0","0","94208","","564","","","68","52","","","2","52","training","adjacent","DE","4","5","Q.jpg","M.jpg","1","1","1","",""
"","feedback","","html-keyboard-response","345","325951","0.0-1.0-474.0-0.0","0","0","94208","","null","","","null","52","","","","","","","","","","","","","","","",""
"","ITI","","html-keyboard-response","346","326952","0.0-1.0-477.0","0","0","94208","","null","","","null","52","","","","","","","","","","","","","","","NaN",""
"","S1","","html-keyboard-response","347","327203","0.0-1.0-479.0","0","0","94208","","null","","","null","53","","","","","","","","","","","","","","","",""
"","ISI","","html-keyboard-response","348","328205","0.0-1.0-480.0","0","0","94208","","null","","","null","53","NaN","","","","","","","","","","","","","","",""
"","S2","","html-keyboard-response","349","328456","0.0-1.0-481.0","0","0","94208","","null","","","null","53","","NaN","","","","","","","","","","","","","",""
"","response","","html-keyboard-response","350","329022","0.0-1.0-482.0-0.0","0","0","94208","","565","","","68","53","","","2","53","training","adjacent","FE","6","5","O.jpg","M.jpg","1","0","0","",""
"","feedback","","html-keyboard-response","351","330023","0.0-1.0-483.0-0.0","0","0","94208","","null","","","null","53","","","","","","","","","","","","","","","",""
"","time_out","","html-keyboard-response","352","332024","0.0-1.0-485.0-0.0","0","0","94208","","null","","","null","53","","","","","","","","","","","","","","","",""
"","ITI","","html-keyboard-response","353","333026","0.0-1.0-486.0","0","0","94208","","null","","","null","53","","","","","","","","","","","","","","","NaN",""
"","S1","","html-keyboard-response","354","333277","0.0-1.0-488.0","0","0","94208","","null","","","null","54","","","","","","","","","","","","","","","",""
"","ISI","","html-keyboard-response","355","334278","0.0-1.0-489.0","0","0","94208","","null","","","null","54","NaN","","","","","","","","","","","","","","",""
"","S2","","html-keyboard-response","356","334529","0.0-1.0-490.0","0","0","94208","","null","","","null","54","","NaN","","","","","","","","","","","","","",""
"","response","","html-keyboard-response","357","335470","0.0-1.0-491.0-0.0","0","0","94208","","940","","","68","54","","","2","54","training","adjacent","BA","2","1","P.jpg","L.jpg","1","0","0","",""
"","feedback","","html-keyboard-response","358","336471","0.0-1.0-492.0-0.0","0","0","94208","","null","","","null","54","","","","","","","","","","","","","","","",""
"","time_out","","html-keyboard-response","359","338473","0.0-1.0-494.0-0.0","0","0","94208","","null","","","null","54","","","","","","","","","","","","","","","",""
"","ITI","","html-keyboard-response","360","339474","0.0-1.0-495.0","0","0","94208","","null","","","null","54","","","","","","","","","","","","","","","NaN",""
"","S1","","html-keyboard-response","361","339725","0.0-1.0-497.0","0","0","94208","","null","","","null","55","","","","","","","","","","","","","","","",""
"","ISI","","html-keyboard-response","362","340726","0.0-1.0-498.0","0","0","94208","","null","","","null","55","NaN","","","","","","","","","","","","","","",""
"","S2","","html-keyboard-response","363","340977","0.0-1.0-499.0","0","0","94208","","null","","","null","55","","NaN","","","","","","","","","","","","","",""
"","response","","html-keyboard-response","364","341686","0.0-1.0-500.0-0.0","0","0","94208","","707","","","75","55","","","2","55","training","adjacent","EF","5","6","M.jpg","O.jpg","0","1","0","",""
"","feedback","","html-keyboard-response","365","342687","0.0-1.0-501.0-0.0","0","0","94208","","null","","","null","55","","","","","","","","","","","","","","","",""
"","time_out","","html-keyboard-response","366","344688","0.0-1.0-503.0-0.0","0","0","94208","","null","","","null","55","","","","","","","","","","","","","","","",""
"","ITI","","html-keyboard-response","367","345690","0.0-1.0-504.0","0","0","94208","","null","","","null","55","","","","","","","","","","","","","","","NaN",""
"","S1","","html-keyboard-response","368","345942","0.0-1.0-506.0","0","0","94208","","null","","","null","56","","","","","","","","","","","","","","","",""
"","ISI","","html-keyboard-response","369","346943","0.0-1.0-507.0","0","0","94208","","null","","","null","56","NaN","","","","","","","","","","","","","","",""
"","S2","","html-keyboard-response","370","347195","0.0-1.0-508.0","0","0","94208","","null","","","null","56","","NaN","","","","","","","","","","","","","",""
"","response","","html-keyboard-response","371","347502","0.0-1.0-509.0-0.0","0","0","94208","","306","","","75","56","","","2","56","training","adjacent","EF","5","6","M.jpg","O.jpg","0","1","0","",""
"","feedback","","html-keyboard-response","372","348503","0.0-1.0-510.0-0.0","0","0","94208","","null","","","null","56","","","","","","","","","","","","","","","",""
"","time_out","","html-keyboard-response","373","350505","0.0-1.0-512.0-0.0","0","0","94208","","null","","","null","56","","","","","","","","","","","","","","","",""
"","ITI","","html-keyboard-response","374","351506","0.0-1.0-513.0","0","0","94208","","null","","","null","56","","","","","","","","","","","","","","","NaN",""
"","S1","","html-keyboard-response","375","351757","0.0-1.0-515.0","0","0","94208","","null","","","null","57","","","","","","","","","","","","","","","",""
"","ISI","","html-keyboard-response","376","352758","0.0-1.0-516.0","0","0","94208","","null","","","null","57","NaN","","","","","","","","","","","","","","",""
"","S2","","html-keyboard-response","377","353010","0.0-1.0-517.0","0","0","94208","","null","","","null","57","","NaN","","","","","","","","","","","","","",""
"","response","","html-keyboard-response","378","353477","0.0-1.0-518.0-0.0","0","0","94208","","466","","","68","57","","","2","57","training","adjacent","CD","3","4","R.jpg","Q.jpg","1","1","1","",""
"","feedback","","html-keyboard-response","379","354479","0.0-1.0-519.0-0.0","0","0","94208","","null","","","null","57","","","","","","","","","","","","","","","",""
"","ITI","","html-keyboard-response","380","355481","0.0-1.0-522.0","0","0","94208","","null","","","null","57","","","","","","","","","","","","","","","NaN",""
"","S1","","html-keyboard-response","381","355733","0.0-1.0-524.0","0","0","94208","","null","","","null","58","","","","","","","","","","","","","","","",""
"","ISI","","html-keyboard-response","382","356734","0.0-1.0-525.0","0","0","94208","","null","","","null","58","NaN","","","","","","","","","","","","","","",""
"","S2","","html-keyboard-response","383","356985","0.0-1.0-526.0","0","0","94208","","null","","","null","58","","NaN","","","","","","","","","","","","","",""
"","response","","html-keyboard-response","384","357702","0.0-1.0-527.0-0.0","0","0","94208","","716","","","75","58","","","2","58","training","adjacent","ED","5","4","M.jpg","Q.jpg","0","0","1","",""
"","feedback","","html-keyboard-response","385","358703","0.0-1.0-528.0-0.0","0","0","94208","","null","","","null","58","","","","","","","","","","","","","","","",""
"","ITI","","html-keyboard-response","386","359705","0.0-1.0-531.0","0","0","94208","","null","","","null","58","","","","","","","","","","","","","","","NaN",""
"","S1","","html-keyboard-response","387","359956","0.0-1.0-533.0","0","0","94208","","null","","","null","59","","","","","","","","","","","","","","","",""
"","ISI","","html-keyboard-response","388","360957","0.0-1.0-534.0","0","0","94208","","null","","","null","59","NaN","","","","","","","","","","","","","","",""
"","S2","","html-keyboard-response","389","361208","0.0-1.0-535.0","0","0","94208","","null","","","null","59","","NaN","","","","","","","","","","","","","",""
"","response","","html-keyboard-response","390","362021","0.0-1.0-536.0-0.0","0","0","94208","","813","","","75","59","","","2","59","training","adjacent","FE","6","5","O.jpg","M.jpg","0","0","1","",""
"","feedback","","html-keyboard-response","391","363023","0.0-1.0-537.0-0.0","0","0","94208","","null","","","null","59","","","","","","","","","","","","","","","",""
"","ITI","","html-keyboard-response","392","364025","0.0-1.0-540.0","0","0","94208","","null","","","null","59","","","","","","","","","","","","","","","NaN",""
"","S1","","html-keyboard-response","393","364276","0.0-1.0-542.0","0","0","94208","","null","","","null","60","","","","","","","","","","","","","","","",""
"","ISI","","html-keyboard-response","394","365277","0.0-1.0-543.0","0","0","94208","","null","","","null","60","NaN","","","","","","","","","","","","","","",""
"","S2","","html-keyboard-response","395","365528","0.0-1.0-544.0","0","0","94208","","null","","","null","60","","NaN","","","","","","","","","","","","","",""
"","response","","html-keyboard-response","396","366229","0.0-1.0-545.0-0.0","0","0","94208","","701","","","75","60","","","2","60","training","adjacent","FE","6","5","O.jpg","M.jpg","0","0","1","",""
"","feedback","","html-keyboard-response","397","367231","0.0-1.0-546.0-0.0","0","0","94208","","null","","","null","60","","","","","","","","","","","","","","","",""
"","ITI","","html-keyboard-response","398","368233","0.0-1.0-549.0","0","0","94208","","null","","","null","60","","","","","","","","","","","","","","","NaN",""
"","S1","","html-keyboard-response","399","368484","0.0-1.0-551.0","0","0","94208","","null","","","null","61","","","","","","","","","","","","","","","",""
"","ISI","","html-keyboard-response","400","369485","0.0-1.0-552.0","0","0","94208","","null","","","null","61","NaN","","","","","","","","","","","","","","",""
"","S2","","html-keyboard-response","401","369737","0.0-1.0-553.0","0","0","94208","","null","","","null","61","","NaN","","","","","","","","","","","","","",""
"","response","","html-keyboard-response","402","370262","0.0-1.0-554.0-0.0","0","0","94208","","524","","","68","61","","","2","61","training","adjacent","EF","5","6","M.jpg","O.jpg","1","1","1","",""
"","feedback","","html-keyboard-response","403","371263","0.0-1.0-555.0-0.0","0","0","94208","","null","","","null","61","","","","","","","","","","","","","","","",""
"","ITI","","html-keyboard-response","404","372265","0.0-1.0-558.0","0","0","94208","","null","","","null","61","","","","","","","","","","","","","","","NaN",""
"","S1","","html-keyboard-response","405","372516","0.0-1.0-560.0","0","0","94208","","null","","","null","62","","","","","","","","","","","","","","","",""
"","ISI","","html-keyboard-response","406","373517","0.0-1.0-561.0","0","0","94208","","null","","","null","62","NaN","","","","","","","","","","","","","","",""
"","S2","","html-keyboard-response","407","373768","0.0-1.0-562.0","0","0","94208","","null","","","null","62","","NaN","","","","","","","","","","","","","",""
"","response","","html-keyboard-response","408","374238","0.0-1.0-563.0-0.0","0","0","94208","","469","","","75","62","","","2","62","training","adjacent","AB","1","2","L.jpg","P.jpg","0","1","0","",""
"","feedback","","html-keyboard-response","409","375239","0.0-1.0-564.0-0.0","0","0","94208","","null","","","null","62","","","","","","","","","","","","","","","",""
"","time_out","","html-keyboard-response","410","377241","0.0-1.0-566.0-0.0","0","0","94208","","null","","","null","62","","","","","","","","","","","","","","","",""
"","ITI","","html-keyboard-response","411","378242","0.0-1.0-567.0","0","0","94208","","null","","","null","62","","","","","","","","","","","","","","","NaN",""
"","S1","","html-keyboard-response","412","378493","0.0-1.0-569.0","0","0","94208","","null","","","null","63","","","","","","","","","","","","","","","",""
"","ISI","","html-keyboard-response","413","379494","0.0-1.0-570.0","0","0","94208","","null","","","null","63","NaN","","","","","","","","","","","","","","",""
"","S2","","html-keyboard-response","414","379745","0.0-1.0-571.0","0","0","94208","","null","","","null","63","","NaN","","","","","","","","","","","","","",""
"","response","","html-keyboard-response","415","380390","0.0-1.0-572.0-0.0","0","0","94208","","643","","","75","63","","","2","63","training","adjacent","GF","7","6","N.jpg","O.jpg","0","0","1","",""
"","feedback","","html-keyboard-response","416","381392","0.0-1.0-573.0-0.0","0","0","94208","","null","","","null","63","","","","","","","","","","","","","","","",""
"","ITI","","html-keyboard-response","417","382393","0.0-1.0-576.0","0","0","94208","","null","","","null","63","","","","","","","","","","","","","","","NaN",""
"","S1","","html-keyboard-response","418","382644","0.0-1.0-578.0","0","0","94208","","null","","","null","64","","","","","","","","","","","","","","","",""
"","ISI","","html-keyboard-response","419","383645","0.0-1.0-579.0","0","0","94208","","null","","","null","64","NaN","","","","","","","","","","","","","","",""
"","S2","","html-keyboard-response","420","383896","0.0-1.0-580.0","0","0","94208","","null","","","null","64","","NaN","","","","","","","","","","","","","",""
"","response","","html-keyboard-response","421","384782","0.0-1.0-581.0-0.0","0","0","94208","","884","","","75","64","","","2","64","training","adjacent","FE","6","5","O.jpg","M.jpg","0","0","1","",""
"","feedback","","html-keyboard-response","422","385784","0.0-1.0-582.0-0.0","0","0","94208","","null","","","null","64","","","","","","","","","","","","","","","",""
"","ITI","","html-keyboard-response","423","386785","0.0-1.0-585.0","0","0","94208","","null","","","null","64","","","","","","","","","","","","","","","NaN",""
"","S1","","html-keyboard-response","424","387036","0.0-1.0-587.0","0","0","94208","","null","","","null","65","","","","","","","","","","","","","","","",""
"","ISI","","html-keyboard-response","425","388037","0.0-1.0-588.0","0","0","94208","","null","","","null","65","NaN","","","","","","","","","","","","","","",""
"","S2","","html-keyboard-response","426","388289","0.0-1.0-589.0","0","0","94208","","null","","","null","65","","NaN","","","","","","","","","","","","","",""
"","response","","html-keyboard-response","427","388941","0.0-1.0-590.0-0.0","0","0","94208","","652","","","75","65","","","2","65","training","adjacent","BA","2","1","P.jpg","L.jpg","0","0","1","",""
"","feedback","","html-keyboard-response","428","389943","0.0-1.0-591.0-0.0","0","0","94208","","null","","","null","65","","","","","","","","","","","","","","","",""
"","ITI","","html-keyboard-response","429","390945","0.0-1.0-594.0","0","0","94208","","null","","","null","65","","","","","","","","","","","","","","","NaN",""
"","S1","","html-keyboard-response","430","391196","0.0-1.0-596.0","0","0","94208","","null","","","null","66","","","","","","","","","","","","","","","",""
"","ISI","","html-keyboard-response","431","392197","0.0-1.0-597.0","0","0","94208","","null","","","null","66","NaN","","","","","","","","","","","","","","",""
"","S2","","html-keyboard-response","432","392449","0.0-1.0-598.0","0","0","94208","","null","","","null","66","","NaN","","","","","","","","","","","","","",""
"","response","","html-keyboard-response","433","393438","0.0-1.0-599.0-0.0","0","0","94208","","988","","","75","66","","","2","66","training","adjacent","CB","3","2","R.jpg","P.jpg","0","0","1","",""
"","feedback","","html-keyboard-response","434","394440","0.0-1.0-600.0-0.0","0","0","94208","","null","","","null","66","","","","","","","","","","","","","","","",""
"","ITI","","html-keyboard-response","435","395441","0.0-1.0-603.0","0","0","94208","","null","","","null","66","","","","","","","","","","","","","","","NaN",""
"","S1","","html-keyboard-response","436","395692","0.0-1.0-605.0","0","0","94208","","null","","","null","67","","","","","","","","","","","","","","","",""
"","ISI","","html-keyboard-response","437","396693","0.0-1.0-606.0","0","0","94208","","null","","","null","67","NaN","","","","","","","","","","","","","","",""
"","S2","","html-keyboard-response","438","396944","0.0-1.0-607.0","0","0","94208","","null","","","null","67","","NaN","","","","","","","","","","","","","",""
"","response","","html-keyboard-response","439","397542","0.0-1.0-608.0-0.0","0","0","94208","","596","","","75","67","","","2","67","training","adjacent","CB","3","2","R.jpg","P.jpg","0","0","1","",""
"","feedback","","html-keyboard-response","440","398544","0.0-1.0-609.0-0.0","0","0","94208","","null","","","null","67","","","","","","","","","","","","","","","",""
"","ITI","","html-keyboard-response","441","399545","0.0-1.0-612.0","0","0","94208","","null","","","null","67","","","","","","","","","","","","","","","NaN",""
"","S1","","html-keyboard-response","442","399796","0.0-1.0-614.0","0","0","94208","","null","","","null","68","","","","","","","","","","","","","","","",""
"","ISI","","html-keyboard-response","443","400797","0.0-1.0-615.0","0","0","94208","","null","","","null","68","NaN","","","","","","","","","","","","","","",""
"","S2","","html-keyboard-response","444","401049","0.0-1.0-616.0","0","0","94208","","null","","","null","68","","NaN","","","","","","","","","","","","","",""
"","response","","html-keyboard-response","445","401758","0.0-1.0-617.0-0.0","0","0","94208","","707","","","68","68","","","2","68","training","adjacent","FG","6","7","O.jpg","N.jpg","1","1","1","",""
"","feedback","","html-keyboard-response","446","402760","0.0-1.0-618.0-0.0","0","0","94208","","null","","","null","68","","","","","","","","","","","","","","","",""
"","ITI","","html-keyboard-response","447","403761","0.0-1.0-621.0","0","0","94208","","null","","","null","68","","","","","","","","","","","","","","","NaN",""
"","S1","","html-keyboard-response","448","404013","0.0-1.0-623.0","0","0","94208","","null","","","null","69","","","","","","","","","","","","","","","",""
"","ISI","","html-keyboard-response","449","405014","0.0-1.0-624.0","0","0","94208","","null","","","null","69","NaN","","","","","","","","","","","","","","",""
"","S2","","html-keyboard-response","450","405266","0.0-1.0-625.0","0","0","94208","","null","","","null","69","","NaN","","","","","","","","","","","","","",""
"","response","","html-keyboard-response","451","406062","0.0-1.0-626.0-0.0","0","0","94208","","794","","","75","69","","","2","69","training","adjacent","DC","4","3","Q.jpg","R.jpg","0","0","1","",""
"","feedback","","html-keyboard-response","452","407064","0.0-1.0-627.0-0.0","0","0","94208","","null","","","null","69","","","","","","","","","","","","","","","",""
"","ITI","","html-keyboard-response","453","408065","0.0-1.0-630.0","0","0","94208","","null","","","null","69","","","","","","","","","","","","","","","NaN",""
"","S1","","html-keyboard-response","454","408316","0.0-1.0-632.0","0","0","94208","","null","","","null","70","","","","","","","","","","","","","","","",""
"","ISI","","html-keyboard-response","455","409317","0.0-1.0-633.0","0","0","94208","","null","","","null","70","NaN","","","","","","","","","","","","","","",""
"","S2","","html-keyboard-response","456","409568","0.0-1.0-634.0","0","0","94208","","null","","","null","70","","NaN","","","","","","","","","","","","","",""
"","response","","html-keyboard-response","457","410566","0.0-1.0-635.0-0.0","0","0","94208","","996","","","68","70","","","2","70","training","adjacent","FG","6","7","O.jpg","N.jpg","1","1","1","",""
"","feedback","","html-keyboard-response","458","411568","0.0-1.0-636.0-0.0","0","0","94208","","null","","","null","70","","","","","","","","","","","","","","","",""
"","ITI","","html-keyboard-response","459","412569","0.0-1.0-639.0","0","0","94208","","null","","","null","70","","","","","","","","","","","","","","","NaN",""
"","S1","","html-keyboard-response","460","412820","0.0-1.0-641.0","0","0","94208","","null","","","null","71","","","","","","","","","","","","","","","",""
"","ISI","","html-keyboard-response","461","413821","0.0-1.0-642.0","0","0","94208","","null","","","null","71","NaN","","","","","","","","","","","","","","",""
"","S2","","html-keyboard-response","462","414072","0.0-1.0-643.0","0","0","94208","","null","","","null","71","","NaN","","","","","","","","","","","","","",""
"","response","","html-keyboard-response","463","414862","0.0-1.0-644.0-0.0","0","0","94208","","788","","","75","71","","","2","71","training","adjacent","CB","3","2","R.jpg","P.jpg","0","0","1","",""
"","feedback","","html-keyboard-response","464","415864","0.0-1.0-645.0-0.0","0","0","94208","","null","","","null","71","","","","","","","","","","","","","","","",""
"","ITI","","html-keyboard-response","465","416865","0.0-1.0-648.0","0","0","94208","","null","","","null","71","","","","","","","","","","","","","","","NaN",""
"","S1","","html-keyboard-response","466","417117","0.0-1.0-650.0","0","0","94208","","null","","","null","72","","","","","","","","","","","","","","","",""
"","ISI","","html-keyboard-response","467","418118","0.0-1.0-651.0","0","0","94208","","null","","","null","72","NaN","","","","","","","","","","","","","","",""
"","S2","","html-keyboard-response","468","418369","0.0-1.0-652.0","0","0","94208","","null","","","null","72","","NaN","","","","","","","","","","","","","",""
"","response","","html-keyboard-response","469","419414","0.0-1.0-653.0-0.0","0","0","94208","","1043","","","75","72","","","2","72","training","adjacent","DE","4","5","Q.jpg","M.jpg","0","1","0","",""
"","feedback","","html-keyboard-response","470","420416","0.0-1.0-654.0-0.0","0","0","94208","","null","","","null","72","","","","","","","","","","","","","","","",""
"","time_out","","html-keyboard-response","471","422417","0.0-1.0-656.0-0.0","0","0","94208","","null","","","null","72","","","","","","","","","","","","","","","",""
"","ITI","","html-keyboard-response","472","423418","0.0-1.0-657.0","0","0","94208","","null","","","null","72","","","","","","","","","","","","","","","NaN",""
"","S1","","html-keyboard-response","473","423669","0.0-1.0-659.0","0","0","94208","","null","","","null","73","","","","","","","","","","","","","","","",""
"","ISI","","html-keyboard-response","474","424671","0.0-1.0-660.0","0","0","94208","","null","","","null","73","NaN","","","","","","","","","","","","","","",""
"","S2","","html-keyboard-response","475","424923","0.0-1.0-661.0","0","0","94208","","null","","","null","73","","NaN","","","","","","","","","","","","","",""
"","response","","html-keyboard-response","476","425934","0.0-1.0-662.0-0.0","0","0","94208","","1010","","","68","73","","","2","73","training","adjacent","AB","1","2","L.jpg","P.jpg","1","1","1","",""
"","feedback","","html-keyboard-response","477","426935","0.0-1.0-663.0-0.0","0","0","94208","","null","","","null","73","","","","","","","","","","","","","","","",""
"","ITI","","html-keyboard-response","478","427936","0.0-1.0-666.0","0","0","94208","","null","","","null","73","","","","","","","","","","","","","","","NaN",""
"","S1","","html-keyboard-response","479","428187","0.0-1.0-668.0","0","0","94208","","null","","","null","74","","","","","","","","","","","","","","","",""
"","ISI","","html-keyboard-response","480","429194","0.0-1.0-669.0","0","0","94208","","null","","","null","74","NaN","","","","","","","","","","","","","","",""
"","S2","","html-keyboard-response","481","429446","0.0-1.0-670.0","0","0","94208","","null","","","null","74","","NaN","","","","","","","","","","","","","",""
"","response","","html-keyboard-response","482","429966","0.0-1.0-671.0-0.0","0","0","94208","","519","","","68","74","","","2","74","training","adjacent","DE","4","5","Q.jpg","M.jpg","1","1","1","",""
"","feedback","","html-keyboard-response","483","430967","0.0-1.0-672.0-0.0","0","0","94208","","null","","","null","74","","","","","","","","","","","","","","","",""
"","ITI","","html-keyboard-response","484","431968","0.0-1.0-675.0","0","0","94208","","null","","","null","74","","","","","","","","","","","","","","","NaN",""
"","S1","","html-keyboard-response","485","432220","0.0-1.0-677.0","0","0","94208","","null","","","null","75","","","","","","","","","","","","","","","",""
"","ISI","","html-keyboard-response","486","433222","0.0-1.0-678.0","0","0","94208","","null","","","null","75","NaN","","","","","","","","","","","","","","",""
"","S2","","html-keyboard-response","487","433473","0.0-1.0-679.0","0","0","94208","","null","","","null","75","","NaN","","","","","","","","","","","","","",""
"","response","","html-keyboard-response","488","434406","0.0-1.0-680.0-0.0","0","0","94208","","932","","","75","75","","","2","75","training","adjacent","CB","3","2","R.jpg","P.jpg","0","0","1","",""
"","feedback","","html-keyboard-response","489","435407","0.0-1.0-681.0-0.0","0","0","94208","","null","","","null","75","","","","","","","","","","","","","","","",""
"","ITI","","html-keyboard-response","490","436408","0.0-1.0-684.0","0","0","94208","","null","","","null","75","","","","","","","","","","","","","","","NaN",""
"","S1","","html-keyboard-response","491","436659","0.0-1.0-686.0","0","0","94208","","null","","","null","76","","","","","","","","","","","","","","","",""
"","ISI","","html-keyboard-response","492","437661","0.0-1.0-687.0","0","0","94208","","null","","","null","76","NaN","","","","","","","","","","","","","","",""
"","S2","","html-keyboard-response","493","437912","0.0-1.0-688.0","0","0","94208","","null","","","null","76","","NaN","","","","","","","","","","","","","",""
"","response","","html-keyboard-response","494","438750","0.0-1.0-689.0-0.0","0","0","94208","","837","","","68","76","","","2","76","training","adjacent","GF","7","6","N.jpg","O.jpg","1","0","0","",""
"","feedback","","html-keyboard-response","495","439751","0.0-1.0-690.0-0.0","0","0","94208","","null","","","null","76","","","","","","","","","","","","","","","",""
"","time_out","","html-keyboard-response","496","441753","0.0-1.0-692.0-0.0","0","0","94208","","null","","","null","76","","","","","","","","","","","","","","","",""
"","ITI","","html-keyboard-response","497","442754","0.0-1.0-693.0","0","0","94208","","null","","","null","76","","","","","","","","","","","","","","","NaN",""
"","S1","","html-keyboard-response","498","443005","0.0-1.0-695.0","0","0","94208","","null","","","null","77","","","","","","","","","","","","","","","",""
"","ISI","","html-keyboard-response","499","444006","0.0-1.0-696.0","0","0","94208","","null","","","null","77","NaN","","","","","","","","","","","","","","",""
"","S2","","html-keyboard-response","500","444258","0.0-1.0-697.0","0","0","94208","","null","","","null","77","","NaN","","","","","","","","","","","","","",""
"","response","","html-keyboard-response","501","444990","0.0-1.0-698.0-0.0","0","0","94208","","731","","","68","77","","","2","77","training","adjacent","CD","3","4","R.jpg","Q.jpg","1","1","1","",""
"","feedback","","html-keyboard-response","502","445991","0.0-1.0-699.0-0.0","0","0","94208","","null","","","null","77","","","","","","","","","","","","","","","",""
"","ITI","","html-keyboard-response","503","446994","0.0-1.0-702.0","0","0","94208","","null","","","null","77","","","","","","","","","","","","","","","NaN",""
"","S1","","html-keyboard-response","504","447245","0.0-1.0-704.0","0","0","94208","","null","","","null","78","","","","","","","","","","","","","","","",""
"","ISI","","html-keyboard-response","505","448247","0.0-1.0-705.0","0","0","94208","","null","","","null","78","NaN","","","","","","","","","","","","","","",""
"","S2","","html-keyboard-response","506","448499","0.0-1.0-706.0","0","0","94208","","null","","","null","78","","NaN","","","","","","","","","","","","","",""
"","response","","html-keyboard-response","507","449766","0.0-1.0-707.0-0.0","0","0","94208","","1266","","","68","78","","","2","78","training","adjacent","CD","3","4","R.jpg","Q.jpg","1","1","1","",""
"","feedback","","html-keyboard-response","508","450768","0.0-1.0-708.0-0.0","0","0","94208","","null","","","null","78","","","","","","","","","","","","","","","",""
"","ITI","","html-keyboard-response","509","451769","0.0-1.0-711.0","0","0","94208","","null","","","null","78","","","","","","","","","","","","","","","NaN",""
"","S1","","html-keyboard-response","510","452020","0.0-1.0-713.0","0","0","94208","","null","","","null","79","","","","","","","","","","","","","","","",""
"","ISI","","html-keyboard-response","511","453021","0.0-1.0-714.0","0","0","94208","","null","","","null","79","NaN","","","","","","","","","","","","","","",""
"","S2","","html-keyboard-response","512","453273","0.0-1.0-715.0","0","0","94208","","null","","","null","79","","NaN","","","","","","","","","","","","","",""
"","response","","html-keyboard-response","513","454310","0.0-1.0-716.0-0.0","0","0","94208","","1035","","","68","79","","","2","79","training","adjacent","DE","4","5","Q.jpg","M.jpg","1","1","1","",""
"","feedback","","html-keyboard-response","514","455312","0.0-1.0-717.0-0.0","0","0","94208","","null","","","null","79","","","","","","","","","","","","","","","",""
"","ITI","","html-keyboard-response","515","456313","0.0-1.0-720.0","0","0","94208","","null","","","null","79","","","","","","","","","","","","","","","NaN",""
"","S1","","html-keyboard-response","516","456565","0.0-1.0-722.0","0","0","94208","","null","","","null","80","","","","","","","","","","","","","","","",""
"","ISI","","html-keyboard-response","517","457566","0.0-1.0-723.0","0","0","94208","","null","","","null","80","NaN","","","","","","","","","","","","","","",""
"","S2","","html-keyboard-response","518","457817","0.0-1.0-724.0","0","0","94208","","null","","","null","80","","NaN","","","","","","","","","","","","","",""
"","response","","html-keyboard-response","519","458198","0.0-1.0-725.0-0.0","0","0","94208","","380","","","75","80","","","2","80","training","adjacent","GF","7","6","N.jpg","O.jpg","0","0","1","",""
"","feedback","","html-keyboard-response","520","459199","0.0-1.0-726.0-0.0","0","0","94208","","null","","","null","80","","","","","","","","","","","","","","","",""
"","ITI","","html-keyboard-response","521","460200","0.0-1.0-729.0","0","0","94208","","null","","","null","80","","","","","","","","","","","","","","","NaN",""
"","S1","","html-keyboard-response","522","460451","0.0-1.0-731.0","0","0","94208","","null","","","null","81","","","","","","","","","","","","","","","",""
"","ISI","","html-keyboard-response","523","461453","0.0-1.0-732.0","0","0","94208","","null","","","null","81","NaN","","","","","","","","","","","","","","",""
"","S2","","html-keyboard-response","524","461705","0.0-1.0-733.0","0","0","94208","","null","","","null","81","","NaN","","","","","","","","","","","","","",""
"","response","","html-keyboard-response","525","462654","0.0-1.0-734.0-0.0","0","0","94208","","948","","","68","81","","","2","81","training","adjacent","BA","2","1","P.jpg","L.jpg","1","0","0","",""
"","feedback","","html-keyboard-response","526","463655","0.0-1.0-735.0-0.0","0","0","94208","","null","","","null","81","","","","","","","","","","","","","","","",""
"","time_out","","html-keyboard-response","527","465657","0.0-1.0-737.0-0.0","0","0","94208","","null","","","null","81","","","","","","","","","","","","","","","",""
"","ITI","","html-keyboard-response","528","466658","0.0-1.0-738.0","0","0","94208","","null","","","null","81","","","","","","","","","","","","","","","NaN",""
"","S1","","html-keyboard-response","529","466911","0.0-1.0-740.0","0","0","94208","","null","","","null","82","","","","","","","","","","","","","","","",""
"","ISI","","html-keyboard-response","530","467912","0.0-1.0-741.0","0","0","94208","","null","","","null","82","NaN","","","","","","","","","","","","","","",""
"","S2","","html-keyboard-response","531","468164","0.0-1.0-742.0","0","0","94208","","null","","","null","82","","NaN","","","","","","","","","","","","","",""
"","response","","html-keyboard-response","532","468806","0.0-1.0-743.0-0.0","0","0","94208","","640","","","75","82","","","2","82","training","adjacent","BC","2","3","P.jpg","R.jpg","0","1","0","",""
"","feedback","","html-keyboard-response","533","469810","0.0-1.0-744.0-0.0","0","0","94208","","null","","","null","82","","","","","","","","","","","","","","","",""
"","time_out","","html-keyboard-response","534","471811","0.0-1.0-746.0-0.0","0","0","94208","","null","","","null","82","","","","","","","","","","","","","","","",""
"","ITI","","html-keyboard-response","535","472812","0.0-1.0-747.0","0","0","94208","","null","","","null","82","","","","","","","","","","","","","","","NaN",""
"","S1","","html-keyboard-response","536","473063","0.0-1.0-749.0","0","0","94208","","null","","","null","83","","","","","","","","","","","","","","","",""
"","ISI","","html-keyboard-response","537","474065","0.0-1.0-750.0","0","0","94208","","null","","","null","83","NaN","","","","","","","","","","","","","","",""
"","S2","","html-keyboard-response","538","474318","0.0-1.0-751.0","0","0","94208","","null","","","null","83","","NaN","","","","","","","","","","","","","",""
"","response","","html-keyboard-response","539","474694","0.0-1.0-752.0-0.0","0","0","94208","","375","","","75","83","","","2","83","training","adjacent","ED","5","4","M.jpg","Q.jpg","0","0","1","",""
"","feedback","","html-keyboard-response","540","475695","0.0-1.0-753.0-0.0","0","0","94208","","null","","","null","83","","","","","","","","","","","","","","","",""
"","ITI","","html-keyboard-response","541","476696","0.0-1.0-756.0","0","0","94208","","null","","","null","83","","","","","","","","","","","","","","","NaN",""
"","S1","","html-keyboard-response","542","476947","0.0-1.0-758.0","0","0","94208","","null","","","null","84","","","","","","","","","","","","","","","",""
"","ISI","","html-keyboard-response","543","477948","0.0-1.0-759.0","0","0","94208","","null","","","null","84","NaN","","","","","","","","","","","","","","",""
"","S2","","html-keyboard-response","544","478201","0.0-1.0-760.0","0","0","94208","","null","","","null","84","","NaN","","","","","","","","","","","","","",""
"","response","","html-keyboard-response","545","479222","0.0-1.0-761.0-0.0","0","0","94208","","1019","","","68","84","","","2","84","training","adjacent","AB","1","2","L.jpg","P.jpg","1","1","1","",""
"","feedback","","html-keyboard-response","546","480224","0.0-1.0-762.0-0.0","0","0","94208","","null","","","null","84","","","","","","","","","","","","","","","",""
"","ITI","","html-keyboard-response","547","481225","0.0-1.0-765.0","0","0","94208","","null","","","null","84","","","","","","","","","","","","","","","NaN",""
"","S1","","html-keyboard-response","548","481477","0.0-1.0-767.0","0","0","94208","","null","","","null","85","","","","","","","","","","","","","","","",""
"","ISI","","html-keyboard-response","549","482478","0.0-1.0-768.0","0","0","94208","","null","","","null","85","NaN","","","","","","","","","","","","","","",""
"","S2","","html-keyboard-response","550","482730","0.0-1.0-769.0","0","0","94208","","null","","","null","85","","NaN","","","","","","","","","","","","","",""
"","response","","html-keyboard-response","551","483101","0.0-1.0-770.0-0.0","0","0","94208","","370","","","75","85","","","2","85","training","adjacent","ED","5","4","M.jpg","Q.jpg","0","0","1","",""
"","feedback","","html-keyboard-response","552","484103","0.0-1.0-771.0-0.0","0","0","94208","","null","","","null","85","","","","","","","","","","","","","","","",""
"","ITI","","html-keyboard-response","553","485104","0.0-1.0-774.0","0","0","94208","","null","","","null","85","","","","","","","","","","","","","","","NaN",""
"","S1","","html-keyboard-response","554","485356","0.0-1.0-776.0","0","0","94208","","null","","","null","86","","","","","","","","","","","","","","","",""
"","ISI","","html-keyboard-response","555","486357","0.0-1.0-777.0","0","0","94208","","null","","","null","86","NaN","","","","","","","","","","","","","","",""
"","S2","","html-keyboard-response","556","486609","0.0-1.0-778.0","0","0","94208","","null","","","null","86","","NaN","","","","","","","","","","","","","",""
"","response","","html-keyboard-response","557","487261","0.0-1.0-779.0-0.0","0","0","94208","","651","","","75","86","","","2","86","training","adjacent","GF","7","6","N.jpg","O.jpg","0","0","1","",""
"","feedback","","html-keyboard-response","558","488263","0.0-1.0-780.0-0.0","0","0","94208","","null","","","null","86","","","","","","","","","","","","","","","",""
"","ITI","","html-keyboard-response","559","489264","0.0-1.0-783.0","0","0","94208","","null","","","null","86","","","","","","","","","","","","","","","NaN",""
"","S1","","html-keyboard-response","560","489516","0.0-1.0-785.0","0","0","94208","","null","","","null","87","","","","","","","","","","","","","","","",""
"","ISI","","html-keyboard-response","561","490517","0.0-1.0-786.0","0","0","94208","","null","","","null","87","NaN","","","","","","","","","","","","","","",""
"","S2","","html-keyboard-response","562","490770","0.0-1.0-787.0","0","0","94208","","null","","","null","87","","NaN","","","","","","","","","","","","","",""
"","response","","html-keyboard-response","563","491694","0.0-1.0-788.0-0.0","0","0","94208","","922","","","75","87","","","2","87","training","adjacent","FG","6","7","O.jpg","N.jpg","0","1","0","",""
"","feedback","","html-keyboard-response","564","492695","0.0-1.0-789.0-0.0","0","0","94208","","null","","","null","87","","","","","","","","","","","","","","","",""
"","time_out","","html-keyboard-response","565","494696","0.0-1.0-791.0-0.0","0","0","94208","","null","","","null","87","","","","","","","","","","","","","","","",""
"","ITI","","html-keyboard-response","566","495698","0.0-1.0-792.0","0","0","94208","","null","","","null","87","","","","","","","","","","","","","","","NaN",""
"","S1","","html-keyboard-response","567","495949","0.0-1.0-794.0","0","0","94208","","null","","","null","88","","","","","","","","","","","","","","","",""
"","ISI","","html-keyboard-response","568","496951","0.0-1.0-795.0","0","0","94208","","null","","","null","88","NaN","","","","","","","","","","","","","","",""
"","S2","","html-keyboard-response","569","497202","0.0-1.0-796.0","0","0","94208","","null","","","null","88","","NaN","","","","","","","","","","","","","",""
"","response","","html-keyboard-response","570","498206","0.0-1.0-797.0-0.0","0","0","94208","","1003","","","68","88","","","2","88","training","adjacent","DC","4","3","Q.jpg","R.jpg","1","0","0","",""
"","feedback","","html-keyboard-response","571","499207","0.0-1.0-798.0-0.0","0","0","94208","","null","","","null","88","","","","","","","","","","","","","","","",""
"","time_out","","html-keyboard-response","572","501209","0.0-1.0-800.0-0.0","0","0","94208","","null","","","null","88","","","","","","","","","","","","","","","",""
"","ITI","","html-keyboard-response","573","502210","0.0-1.0-801.0","0","0","94208","","null","","","null","88","","","","","","","","","","","","","","","NaN",""
"","S1","","html-keyboard-response","574","502461","0.0-1.0-803.0","0","0","94208","","null","","","null","89","","","","","","","","","","","","","","","",""
"","ISI","","html-keyboard-response","575","503462","0.0-1.0-804.0","0","0","94208","","null","","","null","89","NaN","","","","","","","","","","","","","","",""
"","S2","","html-keyboard-response","576","503713","0.0-1.0-805.0","0","0","94208","","null","","","null","89","","NaN","","","","","","","","","","","","","",""
"","response","","html-keyboard-response","577","504046","0.0-1.0-806.0-0.0","0","0","94208","","331","","","75","89","","","2","89","training","adjacent","ED","5","4","M.jpg","Q.jpg","0","0","1","",""
"","feedback","","html-keyboard-response","578","505047","0.0-1.0-807.0-0.0","0","0","94208","","null","","","null","89","","","","","","","","","","","","","","","",""
"","ITI","","html-keyboard-response","579","506049","0.0-1.0-810.0","0","0","94208","","null","","","null","89","","","","","","","","","","","","","","","NaN",""
"","S1","","html-keyboard-response","580","506301","0.0-1.0-812.0","0","0","94208","","null","","","null","90","","","","","","","","","","","","","","","",""
"","ISI","","html-keyboard-response","581","507302","0.0-1.0-813.0","0","0","94208","","null","","","null","90","NaN","","","","","","","","","","","","","","",""
"","S2","","html-keyboard-response","582","507554","0.0-1.0-814.0","0","0","94208","","null","","","null","90","","NaN","","","","","","","","","","","","","",""
