"success","ttype","start_time","trial_type","trial_index","time_elapsed","internal_node_id","warning","missed_checkup","PID","view_history","rt","responses","repeat_instructions","key_press","index","keypress_isi","keypress_S2","block","trial_num","phase","group_type","pair_type","S1_stim","S2_stim","S1_img","S2_img","S1_chosen","S1_higher","accuracy","keypress_iti","total_bonus_tally"
"true","full_screen","d03072023hr1840","fullscreen","0","8379","0.0-0.0","0","0","42781","","","","","","","","","","","","","","","","","","","","","",""
"","instructions","","instructions","1","31366","0.0-1.0-0.0-0.0","0","0","42781","[{""page_index"":0,""viewing_time"":3178},{""page_index"":1,""viewing_time"":14717},{""page_index"":2,""viewing_time"":3704},{""page_index"":3,""viewing_time"":1385}]","22984","","","","","","","","","","","","","","","","","","","",""
"","comprehension_check","","survey-multi-choice","2","50304","0.0-1.0-0.0-1.0","0","0","42781","","18934","{""Q0"":""True"",""Q1"":""K"",""Q2"":""Only when the screen 'MAKE A CHOICE' is shown"",""Q3"":""Green mark"",""Q4"":""either D or K""}","1","","","","","","","","","","","","","","","","","",""
"","missed_instruction_checkup","","html-keyboard-response","3","51598","0.0-1.0-0.0-2.0-0.0","0","1","42781","","1292","","","32","","","","","","","","","","","","","","","","",""
"","instructions","","instructions","4","62000","0.0-1.0-0.1-0.1","0","0","42781","[{""page_index"":0,""viewing_time"":2641},{""page_index"":1,""viewing_time"":5072},{""page_index"":2,""viewing_time"":1535},{""page_index"":3,""viewing_time"":1151}]","10400","","","","","","","","","","","","","","","","","","","",""
"","comprehension_check","","survey-multi-choice","5","70894","0.0-1.0-0.1-1.1","0","0","42781","","8889","{""Q0"":""True"",""Q1"":""K"",""Q2"":""Once the second image appears and while the screen 'MAKE A CHOICE' is shown"",""Q3"":""Green mark"",""Q4"":""either D or K""}","0","","","","","","","","","","","","","","","","","",""
"","start_exp","","html-keyboard-response","6","71940","0.0-1.0-1.0","0","0","42781","","1044","","","32","","","","","","","","","","","","","","","","",""
"","S1","","html-keyboard-response","7","72196","0.0-1.0-2.0","0","0","42781","","null","","","null","0","","","","","","","","","","","","","","","",""
"","ISI","","html-keyboard-response","8","73206","0.0-1.0-3.0","0","0","42781","","null","","","null","0","NaN","","","","","","","","","","","","","","",""
"","S2","","html-keyboard-response","9","73467","0.0-1.0-4.0","0","0","42781","","null","","","null","0","","NaN","","","","","","","","","","","","","",""
"","response","","html-keyboard-response","10","74764","0.0-1.0-5.0-0.0","0","0","42781","","1296","","","68","0","","","1","0","training","adjacent","DC","4","3","N.jpg","L.jpg","0","0","1","",""
"","feedback","","html-keyboard-response","11","75772","0.0-1.0-6.0-0.0","0","0","42781","","null","","","null","0","","","","","","","","","","","","","","","",""
"","ITI","","html-keyboard-response","12","76782","0.0-1.0-9.0","0","0","42781","","null","","","null","0","","","","","","","","","","","","","","","NaN",""
"","S1","","html-keyboard-response","13","77043","0.0-1.0-11.0","0","0","42781","","null","","","null","1","","","","","","","","","","","","","","","",""
"","ISI","","html-keyboard-response","14","78053","0.0-1.0-12.0","0","0","42781","","null","","","null","1","NaN","","","","","","","","","","","","","","",""
"","S2","","html-keyboard-response","15","78315","0.0-1.0-13.0","0","0","42781","","null","","","null","1","","NaN","","","","","","","","","","","","","",""
"","response","","html-keyboard-response","16","79040","0.0-1.0-14.0-0.0","0","0","42781","","723","","","75","1","","","1","1","training","adjacent","DC","4","3","N.jpg","L.jpg","1","0","0","",""
"","feedback","","html-keyboard-response","17","80050","0.0-1.0-15.0-0.0","0","0","42781","","null","","","null","1","","","","","","","","","","","","","","","",""
"","time_out","","html-keyboard-response","18","82059","0.0-1.0-17.0-0.0","0","0","42781","","null","","","null","1","","","","","","","","","","","","","","","",""
"","ITI","","html-keyboard-response","19","83069","0.0-1.0-18.0","0","0","42781","","null","","","null","1","","","","","","","","","","","","","","","NaN",""
"","S1","","html-keyboard-response","20","83325","0.0-1.0-20.0","0","0","42781","","null","","","null","2","","","","","","","","","","","","","","","",""
"","ISI","","html-keyboard-response","21","84335","0.0-1.0-21.0","0","0","42781","","null","","","null","2","NaN","","","","","","","","","","","","","","",""
"","S2","","html-keyboard-response","22","84596","0.0-1.0-22.0","0","0","42781","","null","","","null","2","","NaN","","","","","","","","","","","","","",""
"","response","","html-keyboard-response","23","85375","0.0-1.0-23.0-0.0","0","0","42781","","777","","","68","2","","","1","2","training","adjacent","CB","3","2","L.jpg","O.jpg","0","0","1","",""
"","feedback","","html-keyboard-response","24","86378","0.0-1.0-24.0-0.0","0","0","42781","","null","","","null","2","","","","","","","","","","","","","","","",""
"","ITI","","html-keyboard-response","25","87388","0.0-1.0-27.0","0","0","42781","","null","","","null","2","","","","","","","","","","","","","","","NaN",""
"","S1","","html-keyboard-response","26","87644","0.0-1.0-29.0","0","0","42781","","null","","","null","3","","","","","","","","","","","","","","","",""
"","ISI","","html-keyboard-response","27","88653","0.0-1.0-30.0","0","0","42781","","null","","","null","3","NaN","","","","","","","","","","","","","","",""
"","S2","","html-keyboard-response","28","88909","0.0-1.0-31.0","0","0","42781","","null","","","null","3","","NaN","","","","","","","","","","","","","",""
"","response","","html-keyboard-response","29","89256","0.0-1.0-32.0-0.0","0","0","42781","","345","","","75","3","","","1","3","training","adjacent","DC","4","3","N.jpg","L.jpg","1","0","0","",""
"","feedback","","html-keyboard-response","30","90268","0.0-1.0-33.0-0.0","0","0","42781","","null","","","null","3","","","","","","","","","","","","","","","",""
"","time_out","","html-keyboard-response","31","92276","0.0-1.0-35.0-0.0","0","0","42781","","null","","","null","3","","","","","","","","","","","","","","","",""
"","ITI","","html-keyboard-response","32","93286","0.0-1.0-36.0","0","0","42781","","null","","","null","3","","","","","","","","","","","","","","","NaN",""
"","S1","","html-keyboard-response","33","93547","0.0-1.0-38.0","0","0","42781","","null","","","null","4","","","","","","","","","","","","","","","",""
"","ISI","","html-keyboard-response","34","94558","0.0-1.0-39.0","0","0","42781","","null","","","null","4","NaN","","","","","","","","","","","","","","",""
"","S2","","html-keyboard-response","35","94813","0.0-1.0-40.0","0","0","42781","","null","","","null","4","","NaN","","","","","","","","","","","","","",""
"","response","","html-keyboard-response","36","95388","0.0-1.0-41.0-0.0","0","0","42781","","574","","","68","4","","","1","4","training","adjacent","DC","4","3","N.jpg","L.jpg","0","0","1","",""
"","feedback","","html-keyboard-response","37","96398","0.0-1.0-42.0-0.0","0","0","42781","","null","","","null","4","","","","","","","","","","","","","","","",""
"","ITI","","html-keyboard-response","38","97402","0.0-1.0-45.0","0","0","42781","","null","","","null","4","","","","","","","","","","","","","","","NaN",""
"","S1","","html-keyboard-response","39","97663","0.0-1.0-47.0","0","0","42781","","null","","","null","5","","","","","","","","","","","","","","","",""
"","ISI","","html-keyboard-response","40","98667","0.0-1.0-48.0","0","0","42781","","null","","","null","5","NaN","","","","","","","","","","","","","","",""
"","S2","","html-keyboard-response","41","98923","0.0-1.0-49.0","0","0","42781","","null","","","null","5","","NaN","","","","","","","","","","","","","",""
"","response","","html-keyboard-response","42","99755","0.0-1.0-50.0-0.0","0","0","42781","","829","","","68","5","","","1","5","training","adjacent","FG","6","7","R.jpg","Q.jpg","0","1","0","",""
"","feedback","","html-keyboard-response","43","100762","0.0-1.0-51.0-0.0","0","0","42781","","null","","","null","5","","","","","","","","","","","","","","","",""
"","time_out","","html-keyboard-response","44","102771","0.0-1.0-53.0-0.0","0","0","42781","","null","","","null","5","","","","","","","","","","","","","","","",""
"","ITI","","html-keyboard-response","45","103782","0.0-1.0-54.0","0","0","42781","","null","","","null","5","","","","","","","","","","","","","","","NaN",""
"","S1","","html-keyboard-response","46","104037","0.0-1.0-56.0","0","0","42781","","null","","","null","6","","","","","","","","","","","","","","","",""
"","ISI","","html-keyboard-response","47","105047","0.0-1.0-57.0","0","0","42781","","null","","","null","6","NaN","","","","","","","","","","","","","","",""
"","S2","","html-keyboard-response","48","105309","0.0-1.0-58.0","0","0","42781","","null","","","null","6","","NaN","","","","","","","","","","","","","",""
"","response","","html-keyboard-response","49","105829","0.0-1.0-59.0-0.0","0","0","42781","","519","","","75","6","","","1","6","training","adjacent","DE","4","5","N.jpg","P.jpg","1","1","1","",""
"","feedback","","html-keyboard-response","50","106835","0.0-1.0-60.0-0.0","0","0","42781","","null","","","null","6","","","","","","","","","","","","","","","",""
"","ITI","","html-keyboard-response","51","107846","0.0-1.0-63.0","0","0","42781","","null","","","null","6","","","","","","","","","","","","","","","NaN",""
"","S1","","html-keyboard-response","52","108101","0.0-1.0-65.0","0","0","42781","","null","","","null","7","","","","","","","","","","","","","","","",""
"","ISI","","html-keyboard-response","53","109111","0.0-1.0-66.0","0","0","42781","","null","","","null","7","NaN","","","","","","","","","","","","","","",""
"","S2","","html-keyboard-response","54","109372","0.0-1.0-67.0","0","0","42781","","null","","","null","7","","NaN","","","","","","","","","","","","","",""
"","response","","html-keyboard-response","55","110195","0.0-1.0-68.0-0.0","0","0","42781","","820","","","75","7","","","1","7","training","adjacent","AB","1","2","M.jpg","O.jpg","1","1","1","",""
"","feedback","","html-keyboard-response","56","111206","0.0-1.0-69.0-0.0","0","0","42781","","null","","","null","7","","","","","","","","","","","","","","","",""
"","ITI","","html-keyboard-response","57","112211","0.0-1.0-72.0","0","0","42781","","null","","","null","7","","","","","","","","","","","","","","","NaN",""
"","S1","","html-keyboard-response","58","112466","0.0-1.0-74.0","0","0","42781","","null","","","null","8","","","","","","","","","","","","","","","",""
"","ISI","","html-keyboard-response","59","113477","0.0-1.0-75.0","0","0","42781","","null","","","null","8","NaN","","","","","","","","","","","","","","",""
"","S2","","html-keyboard-response","60","113732","0.0-1.0-76.0","0","0","42781","","null","","","null","8","","NaN","","","","","","","","","","","","","",""
"","response","","html-keyboard-response","61","114234","0.0-1.0-77.0-0.0","0","0","42781","","501","","","75","8","","","1","8","training","adjacent","DE","4","5","N.jpg","P.jpg","1","1","1","",""
"","feedback","","html-keyboard-response","62","115247","0.0-1.0-78.0-0.0","0","0","42781","","null","","","null","8","","","","","","","","","","","","","","","",""
"","ITI","","html-keyboard-response","63","116251","0.0-1.0-81.0","0","0","42781","","null","","","null","8","","","","","","","","","","","","","","","NaN",""
"","S1","","html-keyboard-response","64","116507","0.0-1.0-83.0","0","0","42781","","null","","","null","9","","","","","","","","","","","","","","","",""
"","ISI","","html-keyboard-response","65","117517","0.0-1.0-84.0","0","0","42781","","null","","","null","9","NaN","","","","","","","","","","","","","","",""
"","S2","","html-keyboard-response","66","117772","0.0-1.0-85.0","0","0","42781","","null","","","null","9","","NaN","","","","","","","","","","","","","",""
"","response","","html-keyboard-response","67","117846","0.0-1.0-86.0-0.0","0","0","42781","","71","","","68","9","","","1","9","training","adjacent","EF","5","6","P.jpg","R.jpg","0","1","0","",""
"","feedback","","html-keyboard-response","68","118852","0.0-1.0-87.0-0.0","0","0","42781","","null","","","null","9","","","","","","","","","","","","","","","",""
"","time_out","","html-keyboard-response","69","120861","0.0-1.0-89.0-0.0","0","0","42781","","null","","","null","9","","","","","","","","","","","","","","","",""
"","ITI","","html-keyboard-response","70","121871","0.0-1.0-90.0","0","0","42781","","null","","","null","9","","","","","","","","","","","","","","","NaN",""
"","S1","","html-keyboard-response","71","122132","0.0-1.0-92.0","0","0","42781","","null","","","null","10","","","","","","","","","","","","","","","",""
"","ISI","","html-keyboard-response","72","123142","0.0-1.0-93.0","0","0","42781","","null","","","null","10","NaN","","","","","","","","","","","","","","",""
"","S2","","html-keyboard-response","73","123398","0.0-1.0-94.0","0","0","42781","","null","","","null","10","","NaN","","","","","","","","","","","","","",""
"","response","","html-keyboard-response","74","123505","0.0-1.0-95.0-0.0","0","0","42781","","106","","","75","10","","","1","10","training","adjacent","DE","4","5","N.jpg","P.jpg","1","1","1","",""
"","feedback","","html-keyboard-response","75","124517","0.0-1.0-96.0-0.0","0","0","42781","","null","","","null","10","","","","","","","","","","","","","","","",""
"","ITI","","html-keyboard-response","76","125526","0.0-1.0-99.0","0","0","42781","","null","","","null","10","","","","","","","","","","","","","","","NaN",""
"","S1","","html-keyboard-response","77","125783","0.0-1.0-101.0","0","0","42781","","null","","","null","11","","","","","","","","","","","","","","","",""
"","ISI","","html-keyboard-response","78","126787","0.0-1.0-102.0","0","0","42781","","null","","","null","11","NaN","","","","","","","","","","","","","","",""
"","S2","","html-keyboard-response","79","127047","0.0-1.0-103.0","0","0","42781","","null","","","null","11","","NaN","","","","","","","","","","","","","",""
"","response","","html-keyboard-response","80","127690","0.0-1.0-104.0-0.0","0","0","42781","","642","","","68","11","","","1","11","training","adjacent","FG","6","7","R.jpg","Q.jpg","0","1","0","",""
"","feedback","","html-keyboard-response","81","128703","0.0-1.0-105.0-0.0","0","0","42781","","null","","","null","11","","","","","","","","","","","","","","","",""
"","time_out","","html-keyboard-response","82","130712","0.0-1.0-107.0-0.0","0","0","42781","","null","","","null","11","","","","","","","","","","","","","","","",""
"","ITI","","html-keyboard-response","83","131716","0.0-1.0-108.0","0","0","42781","","null","","","null","11","","","","","","","","","","","","","","","NaN",""
"","S1","","html-keyboard-response","84","131972","0.0-1.0-110.0","0","0","42781","","null","","","null","12","","","","","","","","","","","","","","","",""
"","ISI","","html-keyboard-response","85","132982","0.0-1.0-111.0","0","0","42781","","null","","","null","12","NaN","","","","","","","","","","","","","","",""
"","S2","","html-keyboard-response","86","133237","0.0-1.0-112.0","0","0","42781","","null","","","null","12","","NaN","","","","","","","","","","","","","",""
"","response","","html-keyboard-response","87","133361","0.0-1.0-113.0-0.0","0","0","42781","","123","","","75","12","","","1","12","training","adjacent","DE","4","5","N.jpg","P.jpg","1","1","1","",""
"","feedback","","html-keyboard-response","88","134375","0.0-1.0-114.0-0.0","0","0","42781","","null","","","null","12","","","","","","","","","","","","","","","",""
"","ITI","","html-keyboard-response","89","135379","0.0-1.0-117.0","0","0","42781","","null","","","null","12","","","","","","","","","","","","","","","NaN",""
"","S1","","html-keyboard-response","90","135635","0.0-1.0-119.0","0","0","42781","","null","","","null","13","","","","","","","","","","","","","","","",""
"","ISI","","html-keyboard-response","91","136645","0.0-1.0-120.0","0","0","42781","","null","","","null","13","NaN","","","","","","","","","","","","","","",""
"","S2","","html-keyboard-response","92","136900","0.0-1.0-121.0","0","0","42781","","null","","","null","13","","NaN","","","","","","","","","","","","","",""
"","response","","html-keyboard-response","93","137423","0.0-1.0-122.0-0.0","0","0","42781","","522","","","75","13","","","1","13","training","adjacent","CB","3","2","L.jpg","O.jpg","1","0","0","",""
"","feedback","","html-keyboard-response","94","138427","0.0-1.0-123.0-0.0","0","0","42781","","null","","","null","13","","","","","","","","","","","","","","","",""
"","time_out","","html-keyboard-response","95","140436","0.0-1.0-125.0-0.0","0","0","42781","","null","","","null","13","","","","","","","","","","","","","","","",""
"","ITI","","html-keyboard-response","96","141446","0.0-1.0-126.0","0","0","42781","","null","","","null","13","","","","","","","","","","","","","","","NaN",""
"","S1","","html-keyboard-response","97","141701","0.0-1.0-128.0","0","0","42781","","null","","","null","14","","","","","","","","","","","","","","","",""
"","ISI","","html-keyboard-response","98","142711","0.0-1.0-129.0","0","0","42781","","null","","","null","14","NaN","","","","","","","","","","","","","","",""
"","S2","","html-keyboard-response","99","142972","0.0-1.0-130.0","0","0","42781","","null","","","null","14","","NaN","","","","","","","","","","","","","",""
"","response","","html-keyboard-response","100","143172","0.0-1.0-131.0-0.0","0","0","42781","","198","","","75","14","","","1","14","training","adjacent","AB","1","2","M.jpg","O.jpg","1","1","1","",""
"","feedback","","html-keyboard-response","101","144180","0.0-1.0-132.0-0.0","0","0","42781","","null","","","null","14","","","","","","","","","","","","","","","",""
"","ITI","","html-keyboard-response","102","145190","0.0-1.0-135.0","0","0","42781","","null","","","null","14","","","","","","","","","","","","","","","NaN",""
"","S1","","html-keyboard-response","103","145446","0.0-1.0-137.0","0","0","42781","","null","","","null","15","","","","","","","","","","","","","","","",""
"","ISI","","html-keyboard-response","104","146455","0.0-1.0-138.0","0","0","42781","","null","","","null","15","NaN","","","","","","","","","","","","","","",""
"","S2","","html-keyboard-response","105","146717","0.0-1.0-139.0","0","0","42781","","null","","","null","15","","NaN","","","","","","","","","","","","","",""
"","response","","html-keyboard-response","106","147212","0.0-1.0-140.0-0.0","0","0","42781","","494","","","75","15","","","1","15","training","adjacent","FE","6","5","R.jpg","P.jpg","1","0","0","",""
"","feedback","","html-keyboard-response","107","148220","0.0-1.0-141.0-0.0","0","0","42781","","null","","","null","15","","","","","","","","","","","","","","","",""
"","time_out","","html-keyboard-response","108","150228","0.0-1.0-143.0-0.0","0","0","42781","","null","","","null","15","","","","","","","","","","","","","","","",""
"","ITI","","html-keyboard-response","109","151239","0.0-1.0-144.0","0","0","42781","","null","","","null","15","","","","","","","","","","","","","","","NaN",""
"","S1","","html-keyboard-response","110","151494","0.0-1.0-146.0","0","0","42781","","null","","","null","16","","","","","","","","","","","","","","","",""
"","ISI","","html-keyboard-response","111","152505","0.0-1.0-147.0","0","0","42781","","null","","","null","16","NaN","","","","","","","","","","","","","","",""
"","S2","","html-keyboard-response","112","152766","0.0-1.0-148.0","0","0","42781","","null","","","null","16","","NaN","","","","","","","","","","","","","",""
"","response","","html-keyboard-response","113","153085","0.0-1.0-149.0-0.0","0","0","42781","","318","","","68","16","","","1","16","training","adjacent","BA","2","1","O.jpg","M.jpg","0","0","1","",""
"","feedback","","html-keyboard-response","114","154095","0.0-1.0-150.0-0.0","0","0","42781","","null","","","null","16","","","","","","","","","","","","","","","",""
"","ITI","","html-keyboard-response","115","155102","0.0-1.0-153.0","0","0","42781","","null","","","null","16","","","","","","","","","","","","","","","NaN",""
"","S1","","html-keyboard-response","116","155360","0.0-1.0-155.0","0","0","42781","","null","","","null","17","","","","","","","","","","","","","","","",""
"","ISI","","html-keyboard-response","117","156365","0.0-1.0-156.0","0","0","42781","","null","","","null","17","NaN","","","","","","","","","","","","","","",""
"","S2","","html-keyboard-response","118","156620","0.0-1.0-157.0","0","0","42781","","null","","","null","17","","NaN","","","","","","","","","","","","","",""
"","response","","html-keyboard-response","119","157057","0.0-1.0-158.0-0.0","0","0","42781","","434","","","68","17","","","1","17","training","adjacent","EF","5","6","P.jpg","R.jpg","0","1","0","",""
"","feedback","","html-keyboard-response","120","158060","0.0-1.0-159.0-0.0","0","0","42781","","null","","","null","17","","","","","","","","","","","","","","","",""
"","time_out","","html-keyboard-response","121","160069","0.0-1.0-161.0-0.0","0","0","42781","","null","","","null","17","","","","","","","","","","","","","","","",""
"","ITI","","html-keyboard-response","122","161078","0.0-1.0-162.0","0","0","42781","","null","","","null","17","","","","","","","","","","","","","","","NaN",""
"","S1","","html-keyboard-response","123","161334","0.0-1.0-164.0","0","0","42781","","null","","","null","18","","","","","","","","","","","","","","","",""
"","ISI","","html-keyboard-response","124","162345","0.0-1.0-165.0","0","0","42781","","null","","","null","18","NaN","","","","","","","","","","","","","","",""
"","S2","","html-keyboard-response","125","162605","0.0-1.0-166.0","0","0","42781","","null","","","null","18","","NaN","","","","","","","","","","","","","",""
"","response","","html-keyboard-response","126","163008","0.0-1.0-167.0-0.0","0","0","42781","","401","","","68","18","","","1","18","training","adjacent","ED","5","4","P.jpg","N.jpg","0","0","1","",""
"","feedback","","html-keyboard-response","127","164016","0.0-1.0-168.0-0.0","0","0","42781","","null","","","null","18","","","","","","","","","","","","","","","",""
"","ITI","","html-keyboard-response","128","165020","0.0-1.0-171.0","0","0","42781","","null","","","null","18","","","","","","","","","","","","","","","NaN",""
"","S1","","html-keyboard-response","129","165281","0.0-1.0-173.0","0","0","42781","","null","","","null","19","","","","","","","","","","","","","","","",""
"","ISI","","html-keyboard-response","130","166286","0.0-1.0-174.0","0","0","42781","","null","","","null","19","NaN","","","","","","","","","","","","","","",""
"","S2","","html-keyboard-response","131","166541","0.0-1.0-175.0","0","0","42781","","null","","","null","19","","NaN","","","","","","","","","","","","","",""
"","response","","html-keyboard-response","132","167565","0.0-1.0-176.0-0.0","0","0","42781","","1022","","","68","19","","","1","19","training","adjacent","FE","6","5","R.jpg","P.jpg","0","0","1","",""
"","feedback","","html-keyboard-response","133","168573","0.0-1.0-177.0-0.0","0","0","42781","","null","","","null","19","","","","","","","","","","","","","","","",""
"","ITI","","html-keyboard-response","134","169582","0.0-1.0-180.0","0","0","42781","","null","","","null","19","","","","","","","","","","","","","","","NaN",""
"","S1","","html-keyboard-response","135","169839","0.0-1.0-182.0","0","0","42781","","null","","","null","20","","","","","","","","","","","","","","","",""
"","ISI","","html-keyboard-response","136","170848","0.0-1.0-183.0","0","0","42781","","null","","","null","20","NaN","","","","","","","","","","","","","","",""
"","S2","","html-keyboard-response","137","171110","0.0-1.0-184.0","0","0","42781","","null","","","null","20","","NaN","","","","","","","","","","","","","",""
"","response","","html-keyboard-response","138","172336","0.0-1.0-185.0-0.0","0","0","42781","","1224","","","75","20","","","1","20","training","adjacent","BC","2","3","O.jpg","L.jpg","1","1","1","",""
"","feedback","","html-keyboard-response","139","173345","0.0-1.0-186.0-0.0","0","0","42781","","null","","","null","20","","","","","","","","","","","","","","","",""
"","ITI","","html-keyboard-response","140","174349","0.0-1.0-189.0","0","0","42781","","null","","","null","20","","","","","","","","","","","","","","","NaN",""
"","S1","","html-keyboard-response","141","174605","0.0-1.0-191.0","0","0","42781","","null","","","null","21","","","","","","","","","","","","","","","",""
"","ISI","","html-keyboard-response","142","175614","0.0-1.0-192.0","0","0","42781","","null","","","null","21","NaN","","","","","","","","","","","","","","",""
"","S2","","html-keyboard-response","143","175870","0.0-1.0-193.0","0","0","42781","","null","","","null","21","","NaN","","","","","","","","","","","","","",""
"","response","","html-keyboard-response","144","176601","0.0-1.0-194.0-0.0","0","0","42781","","729","","","75","21","","","1","21","training","adjacent","BC","2","3","O.jpg","L.jpg","1","1","1","",""
"","feedback","","html-keyboard-response","145","177607","0.0-1.0-195.0-0.0","0","0","42781","","null","","","null","21","","","","","","","","","","","","","","","",""
"","ITI","","html-keyboard-response","146","178616","0.0-1.0-198.0","0","0","42781","","null","","","null","21","","","","","","","","","","","","","","","NaN",""
"","S1","","html-keyboard-response","147","178881","0.0-1.0-200.0","0","0","42781","","null","","","null","22","","","","","","","","","","","","","","","",""
"","ISI","","html-keyboard-response","148","179887","0.0-1.0-201.0","0","0","42781","","null","","","null","22","NaN","","","","","","","","","","","","","","",""
"","S2","","html-keyboard-response","149","180143","0.0-1.0-202.0","0","0","42781","","null","","","null","22","","NaN","","","","","","","","","","","","","",""
"","response","","html-keyboard-response","150","180661","0.0-1.0-203.0-0.0","0","0","42781","","517","","","75","22","","","1","22","training","adjacent","EF","5","6","P.jpg","R.jpg","1","1","1","",""
"","feedback","","html-keyboard-response","151","181669","0.0-1.0-204.0-0.0","0","0","42781","","null","","","null","22","","","","","","","","","","","","","","","",""
"","ITI","","html-keyboard-response","152","182679","0.0-1.0-207.0","0","0","42781","","null","","","null","22","","","","","","","","","","","","","","","NaN",""
"","S1","","html-keyboard-response","153","182935","0.0-1.0-209.0","0","0","42781","","null","","","null","23","","","","","","","","","","","","","","","",""
"","ISI","","html-keyboard-response","154","183945","0.0-1.0-210.0","0","0","42781","","null","","","null","23","NaN","","","","","","","","","","","","","","",""
"","S2","","html-keyboard-response","155","184206","0.0-1.0-211.0","0","0","42781","","null","","","null","23","","NaN","","","","","","","","","","","","","",""
"","response","","html-keyboard-response","156","185106","0.0-1.0-212.0-0.0","0","0","42781","","898","","","68","23","","","1","23","training","adjacent","FE","6","5","R.jpg","P.jpg","0","0","1","",""
"","feedback","","html-keyboard-response","157","186116","0.0-1.0-213.0-0.0","0","0","42781","","null","","","null","23","","","","","","","","","","","","","","","",""
"","ITI","","html-keyboard-response","158","187128","0.0-1.0-216.0","0","0","42781","","null","","","null","23","","","","","","","","","","","","","","","NaN",""
"","S1","","html-keyboard-response","159","187382","0.0-1.0-218.0","0","0","42781","","null","","","null","24","","","","","","","","","","","","","","","",""
"","ISI","","html-keyboard-response","160","188392","0.0-1.0-219.0","0","0","42781","","null","","","null","24","NaN","","","","","","","","","","","","","","",""
"","S2","","html-keyboard-response","161","188647","0.0-1.0-220.0","0","0","42781","","null","","","null","24","","NaN","","","","","","","","","","","","","",""
"","response","","html-keyboard-response","162","188909","0.0-1.0-221.0-0.0","0","0","42781","","260","","","68","24","","","1","24","training","adjacent","AB","1","2","M.jpg","O.jpg","0","1","0","",""
"","feedback","","html-keyboard-response","163","189918","0.0-1.0-222.0-0.0","0","0","42781","","null","","","null","24","","","","","","","","","","","","","","","",""
"","time_out","","html-keyboard-response","164","191927","0.0-1.0-224.0-0.0","0","0","42781","","null","","","null","24","","","","","","","","","","","","","","","",""
"","ITI","","html-keyboard-response","165","192937","0.0-1.0-225.0","0","0","42781","","null","","","null","24","","","","","","","","","","","","","","","NaN",""
"","S1","","html-keyboard-response","166","193199","0.0-1.0-227.0","0","0","42781","","null","","","null","25","","","","","","","","","","","","","","","",""
"","ISI","","html-keyboard-response","167","194208","0.0-1.0-228.0","0","0","42781","","null","","","null","25","NaN","","","","","","","","","","","","","","",""
"","S2","","html-keyboard-response","168","194469","0.0-1.0-229.0","0","0","42781","","null","","","null","25","","NaN","","","","","","","","","","","","","",""
"","response","","html-keyboard-response","169","194704","0.0-1.0-230.0-0.0","0","0","42781","","232","","","75","25","","","1","25","training","adjacent","BA","2","1","O.jpg","M.jpg","1","0","0","",""
"","feedback","","html-keyboard-response","170","195712","0.0-1.0-231.0-0.0","0","0","42781","","null","","","null","25","","","","","","","","","","","","","","","",""
"","time_out","","html-keyboard-response","171","197721","0.0-1.0-233.0-0.0","0","0","42781","","null","","","null","25","","","","","","","","","","","","","","","",""
"","ITI","","html-keyboard-response","172","198725","0.0-1.0-234.0","0","0","42781","","null","","","null","25","","","","","","","","","","","","","","","NaN",""
"","S1","","html-keyboard-response","173","198986","0.0-1.0-236.0","0","0","42781","","null","","","null","26","","","","","","","","","","","","","","","",""
"","ISI","","html-keyboard-response","174","199991","0.0-1.0-237.0","0","0","42781","","null","","","null","26","NaN","","","","","","","","","","","","","","",""
"","S2","","html-keyboard-response","175","200246","0.0-1.0-238.0","0","0","42781","","null","","","null","26","","NaN","","","","","","","","","","","","","",""
"","response","","html-keyboard-response","176","200757","0.0-1.0-239.0-0.0","0","0","42781","","510","","","68","26","","","1","26","training","adjacent","FE","6","5","R.jpg","P.jpg","0","0","1","",""
"","feedback","","html-keyboard-response","177","201767","0.0-1.0-240.0-0.0","0","0","42781","","null","","","null","26","","","","","","","","","","","","","","","",""
"","ITI","","html-keyboard-response","178","202776","0.0-1.0-243.0","0","0","42781","","null","","","null","26","","","","","","","","","","","","","","","NaN",""
"","S1","","html-keyboard-response","179","203032","0.0-1.0-245.0","0","0","42781","","null","","","null","27","","","","","","","","","","","","","","","",""
"","ISI","","html-keyboard-response","180","204038","0.0-1.0-246.0","0","0","42781","","null","","","null","27","NaN","","","","","","","","","","","","","","",""
"","S2","","html-keyboard-response","181","204298","0.0-1.0-247.0","0","0","42781","","null","","","null","27","","NaN","","","","","","","","","","","","","",""
"","response","","html-keyboard-response","182","204909","0.0-1.0-248.0-0.0","0","0","42781","","609","","","75","27","","","1","27","training","adjacent","AB","1","2","M.jpg","O.jpg","1","1","1","",""
"","feedback","","html-keyboard-response","183","205917","0.0-1.0-249.0-0.0","0","0","42781","","null","","","null","27","","","","","","","","","","","","","","","",""
"","ITI","","html-keyboard-response","184","206927","0.0-1.0-252.0","0","0","42781","","null","","","null","27","","","","","","","","","","","","","","","NaN",""
"","S1","","html-keyboard-response","185","207183","0.0-1.0-254.0","0","0","42781","","null","","","null","28","","","","","","","","","","","","","","","",""
"","ISI","","html-keyboard-response","186","208193","0.0-1.0-255.0","0","0","42781","","null","","","null","28","NaN","","","","","","","","","","","","","","",""
"","S2","","html-keyboard-response","187","208454","0.0-1.0-256.0","0","0","42781","","null","","","null","28","","NaN","","","","","","","","","","","","","",""
"","response","","html-keyboard-response","188","208745","0.0-1.0-257.0-0.0","0","0","42781","","289","","","68","28","","","1","28","training","adjacent","BC","2","3","O.jpg","L.jpg","0","1","0","",""
"","feedback","","html-keyboard-response","189","209749","0.0-1.0-258.0-0.0","0","0","42781","","null","","","null","28","","","","","","","","","","","","","","","",""
"","time_out","","html-keyboard-response","190","211757","0.0-1.0-260.0-0.0","0","0","42781","","null","","","null","28","","","","","","","","","","","","","","","",""
"","ITI","","html-keyboard-response","191","212767","0.0-1.0-261.0","0","0","42781","","null","","","null","28","","","","","","","","","","","","","","","NaN",""
"","S1","","html-keyboard-response","192","213023","0.0-1.0-263.0","0","0","42781","","null","","","null","29","","","","","","","","","","","","","","","",""
"","ISI","","html-keyboard-response","193","214033","0.0-1.0-264.0","0","0","42781","","null","","","null","29","NaN","","","","","","","","","","","","","","",""
"","S2","","html-keyboard-response","194","214294","0.0-1.0-265.0","0","0","42781","","null","","","null","29","","NaN","","","","","","","","","","","","","",""
"","response","","html-keyboard-response","195","214844","0.0-1.0-266.0-0.0","0","0","42781","","547","","","75","29","","","1","29","training","adjacent","CD","3","4","L.jpg","N.jpg","1","1","1","",""
"","feedback","","html-keyboard-response","196","215856","0.0-1.0-267.0-0.0","0","0","42781","","null","","","null","29","","","","","","","","","","","","","","","",""
"","ITI","","html-keyboard-response","197","216866","0.0-1.0-270.0","0","0","42781","","null","","","null","29","","","","","","","","","","","","","","","NaN",""
"","S1","","html-keyboard-response","198","217127","0.0-1.0-272.0","0","0","42781","","null","","","null","30","","","","","","","","","","","","","","","",""
"","ISI","","html-keyboard-response","199","218137","0.0-1.0-273.0","0","0","42781","","null","","","null","30","NaN","","","","","","","","","","","","","","",""
"","S2","","html-keyboard-response","200","218398","0.0-1.0-274.0","0","0","42781","","null","","","null","30","","NaN","","","","","","","","","","","","","",""
"","response","","html-keyboard-response","201","219502","0.0-1.0-275.0-0.0","0","0","42781","","1102","","","75","30","","","1","30","training","adjacent","CD","3","4","L.jpg","N.jpg","1","1","1","",""
"","feedback","","html-keyboard-response","202","220512","0.0-1.0-276.0-0.0","0","0","42781","","null","","","null","30","","","","","","","","","","","","","","","",""
"","ITI","","html-keyboard-response","203","221521","0.0-1.0-279.0","0","0","42781","","null","","","null","30","","","","","","","","","","","","","","","NaN",""
"","S1","","html-keyboard-response","204","221783","0.0-1.0-281.0","0","0","42781","","null","","","null","31","","","","","","","","","","","","","","","",""
"","ISI","","html-keyboard-response","205","222793","0.0-1.0-282.0","0","0","42781","","null","","","null","31","NaN","","","","","","","","","","","","","","",""
"","S2","","html-keyboard-response","206","223054","0.0-1.0-283.0","0","0","42781","","null","","","null","31","","NaN","","","","","","","","","","","","","",""
"","response","","html-keyboard-response","207","223394","0.0-1.0-284.0-0.0","0","0","42781","","338","","","68","31","","","1","31","training","adjacent","EF","5","6","P.jpg","R.jpg","0","1","0","",""
"","feedback","","html-keyboard-response","208","224401","0.0-1.0-285.0-0.0","0","0","42781","","null","","","null","31","","","","","","","","","","","","","","","",""
"","time_out","","html-keyboard-response","209","226410","0.0-1.0-287.0-0.0","0","0","42781","","null","","","null","31","","","","","","","","","","","","","","","",""
"","ITI","","html-keyboard-response","210","227414","0.0-1.0-288.0","0","0","42781","","null","","","null","31","","","","","","","","","","","","","","","NaN",""
"","S1","","html-keyboard-response","211","227669","0.0-1.0-290.0","0","0","42781","","null","","","null","32","","","","","","","","","","","","","","","",""
"","ISI","","html-keyboard-response","212","228679","0.0-1.0-291.0","0","0","42781","","null","","","null","32","NaN","","","","","","","","","","","","","","",""
"","S2","","html-keyboard-response","213","228935","0.0-1.0-292.0","0","0","42781","","null","","","null","32","","NaN","","","","","","","","","","","","","",""
"","response","","html-keyboard-response","214","229560","0.0-1.0-293.0-0.0","0","0","42781","","624","","","68","32","","","1","32","training","adjacent","GF","7","6","Q.jpg","R.jpg","0","0","1","",""
"","feedback","","html-keyboard-response","215","230566","0.0-1.0-294.0-0.0","0","0","42781","","null","","","null","32","","","","","","","","","","","","","","","",""
"","ITI","","html-keyboard-response","216","231576","0.0-1.0-297.0","0","0","42781","","null","","","null","32","","","","","","","","","","","","","","","NaN",""
"","S1","","html-keyboard-response","217","231832","0.0-1.0-299.0","0","0","42781","","null","","","null","33","","","","","","","","","","","","","","","",""
"","ISI","","html-keyboard-response","218","232842","0.0-1.0-300.0","0","0","42781","","null","","","null","33","NaN","","","","","","","","","","","","","","",""
"","S2","","html-keyboard-response","219","233103","0.0-1.0-301.0","0","0","42781","","null","","","null","33","","NaN","","","","","","","","","","","","","",""
"","response","","html-keyboard-response","220","233374","0.0-1.0-302.0-0.0","0","0","42781","","270","","","75","33","","","1","33","training","adjacent","BA","2","1","O.jpg","M.jpg","1","0","0","",""
"","feedback","","html-keyboard-response","221","234386","0.0-1.0-303.0-0.0","0","0","42781","","null","","","null","33","","","","","","","","","","","","","","","",""
"","time_out","","html-keyboard-response","222","236395","0.0-1.0-305.0-0.0","0","0","42781","","null","","","null","33","","","","","","","","","","","","","","","",""
"","ITI","","html-keyboard-response","223","237399","0.0-1.0-306.0","0","0","42781","","null","","","null","33","","","","","","","","","","","","","","","NaN",""
"","S1","","html-keyboard-response","224","237654","0.0-1.0-308.0","0","0","42781","","null","","","null","34","","","","","","","","","","","","","","","",""
"","ISI","","html-keyboard-response","225","238664","0.0-1.0-309.0","0","0","42781","","null","","","null","34","NaN","","","","","","","","","","","","","","",""
"","S2","","html-keyboard-response","226","238919","0.0-1.0-310.0","0","0","42781","","null","","","null","34","","NaN","","","","","","","","","","","","","",""
"","response","","html-keyboard-response","227","239777","0.0-1.0-311.0-0.0","0","0","42781","","856","","","75","34","","","1","34","training","adjacent","CD","3","4","L.jpg","N.jpg","1","1","1","",""
"","feedback","","html-keyboard-response","228","240783","0.0-1.0-312.0-0.0","0","0","42781","","null","","","null","34","","","","","","","","","","","","","","","",""
"","ITI","","html-keyboard-response","229","241793","0.0-1.0-315.0","0","0","42781","","null","","","null","34","","","","","","","","","","","","","","","NaN",""
"","S1","","html-keyboard-response","230","242049","0.0-1.0-317.0","0","0","42781","","null","","","null","35","","","","","","","","","","","","","","","",""
"","ISI","","html-keyboard-response","231","243059","0.0-1.0-318.0","0","0","42781","","null","","","null","35","NaN","","","","","","","","","","","","","","",""
"","S2","","html-keyboard-response","232","243320","0.0-1.0-319.0","0","0","42781","","null","","","null","35","","NaN","","","","","","","","","","","","","",""
"","response","","html-keyboard-response","233","243985","0.0-1.0-320.0-0.0","0","0","42781","","663","","","75","35","","","1","35","training","adjacent","FG","6","7","R.jpg","Q.jpg","1","1","1","",""
"","feedback","","html-keyboard-response","234","244991","0.0-1.0-321.0-0.0","0","0","42781","","null","","","null","35","","","","","","","","","","","","","","","",""
"","ITI","","html-keyboard-response","235","246002","0.0-1.0-324.0","0","0","42781","","null","","","null","35","","","","","","","","","","","","","","","NaN",""
"","S1","","html-keyboard-response","236","246263","0.0-1.0-326.0","0","0","42781","","null","","","null","36","","","","","","","","","","","","","","","",""
"","ISI","","html-keyboard-response","237","247273","0.0-1.0-327.0","0","0","42781","","null","","","null","36","NaN","","","","","","","","","","","","","","",""
"","S2","","html-keyboard-response","238","247529","0.0-1.0-328.0","0","0","42781","","null","","","null","36","","NaN","","","","","","","","","","","","","",""
"","response","","html-keyboard-response","239","248069","0.0-1.0-329.0-0.0","0","0","42781","","539","","","75","36","","","1","36","training","adjacent","FG","6","7","R.jpg","Q.jpg","1","1","1","",""
"","feedback","","html-keyboard-response","240","249079","0.0-1.0-330.0-0.0","0","0","42781","","null","","","null","36","","","","","","","","","","","","","","","",""
"","ITI","","html-keyboard-response","241","250088","0.0-1.0-333.0","0","0","42781","","null","","","null","36","","","","","","","","","","","","","","","NaN",""
"","S1","","html-keyboard-response","242","250344","0.0-1.0-335.0","0","0","42781","","null","","","null","37","","","","","","","","","","","","","","","",""
"","ISI","","html-keyboard-response","243","251354","0.0-1.0-336.0","0","0","42781","","null","","","null","37","NaN","","","","","","","","","","","","","","",""
"","S2","","html-keyboard-response","244","251615","0.0-1.0-337.0","0","0","42781","","null","","","null","37","","NaN","","","","","","","","","","","","","",""
"","response","","html-keyboard-response","245","251962","0.0-1.0-338.0-0.0","0","0","42781","","345","","","68","37","","","1","37","training","adjacent","BA","2","1","O.jpg","M.jpg","0","0","1","",""
"","feedback","","html-keyboard-response","246","252968","0.0-1.0-339.0-0.0","0","0","42781","","null","","","null","37","","","","","","","","","","","","","","","",""
"","ITI","","html-keyboard-response","247","253978","0.0-1.0-342.0","0","0","42781","","null","","","null","37","","","","","","","","","","","","","","","NaN",""
"","S1","","html-keyboard-response","248","254240","0.0-1.0-344.0","0","0","42781","","null","","","null","38","","","","","","","","","","","","","","","",""
"","ISI","","html-keyboard-response","249","255250","0.0-1.0-345.0","0","0","42781","","null","","","null","38","NaN","","","","","","","","","","","","","","",""
"","S2","","html-keyboard-response","250","255505","0.0-1.0-346.0","0","0","42781","","null","","","null","38","","NaN","","","","","","","","","","","","","",""
"","response","","html-keyboard-response","251","255753","0.0-1.0-347.0-0.0","0","0","42781","","247","","","68","38","","","1","38","training","adjacent","BC","2","3","O.jpg","L.jpg","0","1","0","",""
"","feedback","","html-keyboard-response","252","256759","0.0-1.0-348.0-0.0","0","0","42781","","null","","","null","38","","","","","","","","","","","","","","","",""
"","time_out","","html-keyboard-response","253","258768","0.0-1.0-350.0-0.0","0","0","42781","","null","","","null","38","","","","","","","","","","","","","","","",""
"","ITI","","html-keyboard-response","254","259777","0.0-1.0-351.0","0","0","42781","","null","","","null","38","","","","","","","","","","","","","","","NaN",""
"","S1","","html-keyboard-response","255","260033","0.0-1.0-353.0","0","0","42781","","null","","","null","39","","","","","","","","","","","","","","","",""
"","ISI","","html-keyboard-response","256","261043","0.0-1.0-354.0","0","0","42781","","null","","","null","39","NaN","","","","","","","","","","","","","","",""
"","S2","","html-keyboard-response","257","261304","0.0-1.0-355.0","0","0","42781","","null","","","null","39","","NaN","","","","","","","","","","","","","",""
"","response","","html-keyboard-response","258","261559","0.0-1.0-356.0-0.0","0","0","42781","","253","","","75","39","","","1","39","training","adjacent","ED","5","4","P.jpg","N.jpg","1","0","0","",""
"","feedback","","html-keyboard-response","259","262570","0.0-1.0-357.0-0.0","0","0","42781","","null","","","null","39","","","","","","","","","","","","","","","",""
"","time_out","","html-keyboard-response","260","264578","0.0-1.0-359.0-0.0","0","0","42781","","null","","","null","39","","","","","","","","","","","","","","","",""
"","ITI","","html-keyboard-response","261","265583","0.0-1.0-360.0","0","0","42781","","null","","","null","39","","","","","","","","","","","","","","","NaN",""
"","S1","","html-keyboard-response","262","265843","0.0-1.0-362.0","0","0","42781","","null","","","null","40","","","","","","","","","","","","","","","",""
"","ISI","","html-keyboard-response","263","266848","0.0-1.0-363.0","0","0","42781","","null","","","null","40","NaN","","","","","","","","","","","","","","",""
"","S2","","html-keyboard-response","264","267103","0.0-1.0-364.0","0","0","42781","","null","","","null","40","","NaN","","","","","","","","","","","","","",""
"","response","","html-keyboard-response","265","267961","0.0-1.0-365.0-0.0","0","0","42781","","856","","","75","40","","","1","40","training","adjacent","CD","3","4","L.jpg","N.jpg","1","1","1","",""
"","feedback","","html-keyboard-response","266","268967","0.0-1.0-366.0-0.0","0","0","42781","","null","","","null","40","","","","","","","","","","","","","","","",""
"","ITI","","html-keyboard-response","267","269977","0.0-1.0-369.0","0","0","42781","","null","","","null","40","","","","","","","","","","","","","","","NaN",""
"","S1","","html-keyboard-response","268","270233","0.0-1.0-371.0","0","0","42781","","null","","","null","41","","","","","","","","","","","","","","","",""
"","ISI","","html-keyboard-response","269","271243","0.0-1.0-372.0","0","0","42781","","null","","","null","41","NaN","","","","","","","","","","","","","","",""
"","S2","","html-keyboard-response","270","271504","0.0-1.0-373.0","0","0","42781","","null","","","null","41","","NaN","","","","","","","","","","","","","",""
"","response","","html-keyboard-response","271","271899","0.0-1.0-374.0-0.0","0","0","42781","","394","","","75","41","","","1","41","training","adjacent","ED","5","4","P.jpg","N.jpg","1","0","0","",""
"","feedback","","html-keyboard-response","272","272905","0.0-1.0-375.0-0.0","0","0","42781","","null","","","null","41","","","","","","","","","","","","","","","",""
"","time_out","","html-keyboard-response","273","274912","0.0-1.0-377.0-0.0","0","0","42781","","null","","","null","41","","","","","","","","","","","","","","","",""
"","ITI","","html-keyboard-response","274","275921","0.0-1.0-378.0","0","0","42781","","null","","","null","41","","","","","","","","","","","","","","","NaN",""
"","S1","","html-keyboard-response","275","276177","0.0-1.0-380.0","0","0","42781","","null","","","null","42","","","","","","","","","","","","","","","",""
"","ISI","","html-keyboard-response","276","277187","0.0-1.0-381.0","0","0","42781","","null","","","null","42","NaN","","","","","","","","","","","","","","",""
"","S2","","html-keyboard-response","277","277449","0.0-1.0-382.0","0","0","42781","","null","","","null","42","","NaN","","","","","","","","","","","","","",""
"","response","","html-keyboard-response","278","278076","0.0-1.0-383.0-0.0","0","0","42781","","626","","","75","42","","","1","42","training","adjacent","CB","3","2","L.jpg","O.jpg","1","0","0","",""
"","feedback","","html-keyboard-response","279","279091","0.0-1.0-384.0-0.0","0","0","42781","","null","","","null","42","","","","","","","","","","","","","","","",""
"","time_out","","html-keyboard-response","280","281098","0.0-1.0-386.0-0.0","0","0","42781","","null","","","null","42","","","","","","","","","","","","","","","",""
"","ITI","","html-keyboard-response","281","282104","0.0-1.0-387.0","0","0","42781","","null","","","null","42","","","","","","","","","","","","","","","NaN",""
"","S1","","html-keyboard-response","282","282360","0.0-1.0-389.0","0","0","42781","","null","","","null","43","","","","","","","","","","","","","","","",""
"","ISI","","html-keyboard-response","283","283370","0.0-1.0-390.0","0","0","42781","","null","","","null","43","NaN","","","","","","","","","","","","","","",""
"","S2","","html-keyboard-response","284","283628","0.0-1.0-391.0","0","0","42781","","null","","","null","43","","NaN","","","","","","","","","","","","","",""
"","response","","html-keyboard-response","285","283848","0.0-1.0-392.0-0.0","0","0","42781","","219","","","75","43","","","1","43","training","adjacent","ED","5","4","P.jpg","N.jpg","1","0","0","",""
"","feedback","","html-keyboard-response","286","284856","0.0-1.0-393.0-0.0","0","0","42781","","null","","","null","43","","","","","","","","","","","","","","","",""
"","time_out","","html-keyboard-response","287","286864","0.0-1.0-395.0-0.0","0","0","42781","","null","","","null","43","","","","","","","","","","","","","","","",""
"","ITI","","html-keyboard-response","288","287874","0.0-1.0-396.0","0","0","42781","","null","","","null","43","","","","","","","","","","","","","","","NaN",""
"","S1","","html-keyboard-response","289","288130","0.0-1.0-398.0","0","0","42781","","null","","","null","44","","","","","","","","","","","","","","","",""
"","ISI","","html-keyboard-response","290","289140","0.0-1.0-399.0","0","0","42781","","null","","","null","44","NaN","","","","","","","","","","","","","","",""
"","S2","","html-keyboard-response","291","289401","0.0-1.0-400.0","0","0","42781","","null","","","null","44","","NaN","","","","","","","","","","","","","",""
"","response","","html-keyboard-response","292","289688","0.0-1.0-401.0-0.0","0","0","42781","","284","","","68","44","","","1","44","training","adjacent","GF","7","6","Q.jpg","R.jpg","0","0","1","",""
"","feedback","","html-keyboard-response","293","290695","0.0-1.0-402.0-0.0","0","0","42781","","null","","","null","44","","","","","","","","","","","","","","","",""
"","ITI","","html-keyboard-response","294","291706","0.0-1.0-405.0","0","0","42781","","null","","","null","44","","","","","","","","","","","","","","","NaN",""
"","S1","","html-keyboard-response","295","291961","0.0-1.0-407.0","0","0","42781","","null","","","null","45","","","","","","","","","","","","","","","",""
"","ISI","","html-keyboard-response","296","292971","0.0-1.0-408.0","0","0","42781","","null","","","null","45","NaN","","","","","","","","","","","","","","",""
"","S2","","html-keyboard-response","297","293233","0.0-1.0-409.0","0","0","42781","","null","","","null","45","","NaN","","","","","","","","","","","","","",""
"","response","","html-keyboard-response","298","293569","0.0-1.0-410.0-0.0","0","0","42781","","335","","","68","45","","","1","45","training","adjacent","GF","7","6","Q.jpg","R.jpg","0","0","1","",""
"","feedback","","html-keyboard-response","299","294579","0.0-1.0-411.0-0.0","0","0","42781","","null","","","null","45","","","","","","","","","","","","","","","",""
"","ITI","","html-keyboard-response","300","295584","0.0-1.0-414.0","0","0","42781","","null","","","null","45","","","","","","","","","","","","","","","NaN",""
"","S1","","html-keyboard-response","301","295839","0.0-1.0-416.0","0","0","42781","","null","","","null","46","","","","","","","","","","","","","","","",""
"","ISI","","html-keyboard-response","302","296849","0.0-1.0-417.0","0","0","42781","","null","","","null","46","NaN","","","","","","","","","","","","","","",""
"","S2","","html-keyboard-response","303","297104","0.0-1.0-418.0","0","0","42781","","null","","","null","46","","NaN","","","","","","","","","","","","","",""
"","response","","html-keyboard-response","304","297260","0.0-1.0-419.0-0.0","0","0","42781","","154","","","68","46","","","1","46","training","adjacent","GF","7","6","Q.jpg","R.jpg","0","0","1","",""
"","feedback","","html-keyboard-response","305","298266","0.0-1.0-420.0-0.0","0","0","42781","","null","","","null","46","","","","","","","","","","","","","","","",""
"","ITI","","html-keyboard-response","306","299276","0.0-1.0-423.0","0","0","42781","","null","","","null","46","","","","","","","","","","","","","","","NaN",""
"","S1","","html-keyboard-response","307","299537","0.0-1.0-425.0","0","0","42781","","null","","","null","47","","","","","","","","","","","","","","","",""
"","ISI","","html-keyboard-response","308","300547","0.0-1.0-426.0","0","0","42781","","null","","","null","47","NaN","","","","","","","","","","","","","","",""
"","S2","","html-keyboard-response","309","300808","0.0-1.0-427.0","0","0","42781","","null","","","null","47","","NaN","","","","","","","","","","","","","",""
"","response","","html-keyboard-response","310","301265","0.0-1.0-428.0-0.0","0","0","42781","","455","","","75","47","","","1","47","training","adjacent","CB","3","2","L.jpg","O.jpg","1","0","0","",""
"","feedback","","html-keyboard-response","311","302271","0.0-1.0-429.0-0.0","0","0","42781","","null","","","null","47","","","","","","","","","","","","","","","",""
"","time_out","","html-keyboard-response","312","304280","0.0-1.0-431.0-0.0","0","0","42781","","null","","","null","47","","","","","","","","","","","","","","","",""
"","ITI","","html-keyboard-response","313","305289","0.0-1.0-432.0","0","0","42781","","null","","","null","47","","","","","","","","","","","","","","","NaN",""
"","block_over","","html-keyboard-response","314","309850","0.0-1.0-433.0-0.0","0","0","42781","","4559","","","32","47","","","","","","","","","","","","","","","",""
"","S1","","html-keyboard-response","315","310108","0.0-1.0-434.0","0","0","42781","","null","","","null","48","","","","","","","","","","","","","","","",""
"","ISI","","html-keyboard-response","316","311112","0.0-1.0-435.0","0","0","42781","","null","","","null","48","NaN","","","","","","","","","","","","","","",""
"","S2","","html-keyboard-response","317","311368","0.0-1.0-436.0","0","0","42781","","null","","","null","48","","NaN","","","","","","","","","","","","","",""
"","response","","html-keyboard-response","318","311763","0.0-1.0-437.0-0.0","0","0","42781","","393","","","75","48","","","2","48","training","adjacent","ED","5","4","P.jpg","N.jpg","1","0","0","",""
"","feedback","","html-keyboard-response","319","312772","0.0-1.0-438.0-0.0","0","0","42781","","null","","","null","48","","","","","","","","","","","","","","","",""
"","time_out","","html-keyboard-response","320","314776","0.0-1.0-440.0-0.0","0","0","42781","","null","","","null","48","","","","","","","","","","","","","","","",""
"","ITI","","html-keyboard-response","321","315786","0.0-1.0-441.0","0","0","42781","","null","","","null","48","","","","","","","","","","","","","","","NaN",""
"","S1","","html-keyboard-response","322","316041","0.0-1.0-443.0","0","0","42781","","null","","","null","49","","","","","","","","","","","","","","","",""
"","ISI","","html-keyboard-response","323","317051","0.0-1.0-444.0","0","0","42781","","null","","","null","49","NaN","","","","","","","","","","","","","","",""
"","S2","","html-keyboard-response","324","317306","0.0-1.0-445.0","0","0","42781","","null","","","null","49","","NaN","","","","","","","","","","","","","",""
"","response","","html-keyboard-response","325","317861","0.0-1.0-446.0-0.0","0","0","42781","","553","","","75","49","","","2","49","training","adjacent","FG","6","7","R.jpg","Q.jpg","1","1","1","",""
"","feedback","","html-keyboard-response","326","318868","0.0-1.0-447.0-0.0","0","0","42781","","null","","","null","49","","","","","","","","","","","","","","","",""
"","ITI","","html-keyboard-response","327","319872","0.0-1.0-450.0","0","0","42781","","null","","","null","49","","","","","","","","","","","","","","","NaN",""
"","S1","","html-keyboard-response","328","320128","0.0-1.0-452.0","0","0","42781","","null","","","null","50","","","","","","","","","","","","","","","",""
"","ISI","","html-keyboard-response","329","321137","0.0-1.0-453.0","0","0","42781","","null","","","null","50","NaN","","","","","","","","","","","","","","",""
"","S2","","html-keyboard-response","330","321393","0.0-1.0-454.0","0","0","42781","","null","","","null","50","","NaN","","","","","","","","","","","","","",""
"","response","","html-keyboard-response","331","321878","0.0-1.0-455.0-0.0","0","0","42781","","483","","","68","50","","","2","50","training","adjacent","EF","5","6","P.jpg","R.jpg","0","1","0","",""
"","feedback","","html-keyboard-response","332","322891","0.0-1.0-456.0-0.0","0","0","42781","","null","","","null","50","","","","","","","","","","","","","","","",""
"","time_out","","html-keyboard-response","333","324899","0.0-1.0-458.0-0.0","0","0","42781","","null","","","null","50","","","","","","","","","","","","","","","",""
"","ITI","","html-keyboard-response","334","325904","0.0-1.0-459.0","0","0","42781","","null","","","null","50","","","","","","","","","","","","","","","NaN",""
"","S1","","html-keyboard-response","335","326161","0.0-1.0-461.0","0","0","42781","","null","","","null","51","","","","","","","","","","","","","","","",""
"","ISI","","html-keyboard-response","336","327170","0.0-1.0-462.0","0","0","42781","","null","","","null","51","NaN","","","","","","","","","","","","","","",""
"","S2","","html-keyboard-response","337","327425","0.0-1.0-463.0","0","0","42781","","null","","","null","51","","NaN","","","","","","","","","","","","","",""
"","response","","html-keyboard-response","338","327863","0.0-1.0-464.0-0.0","0","0","42781","","437","","","75","51","","","2","51","training","adjacent","FE","6","5","R.jpg","P.jpg","1","0","0","",""
"","feedback","","html-keyboard-response","339","328876","0.0-1.0-465.0-0.0","0","0","42781","","null","","","null","51","","","","","","","","","","","","","","","",""
"","time_out","","html-keyboard-response","340","330885","0.0-1.0-467.0-0.0","0","0","42781","","null","","","null","51","","","","","","","","","","","","","","","",""
"","ITI","","html-keyboard-response","341","331889","0.0-1.0-468.0","0","0","42781","","null","","","null","51","","","","","","","","","","","","","","","NaN",""
"","S1","","html-keyboard-response","342","332144","0.0-1.0-470.0","0","0","42781","","null","","","null","52","","","","","","","","","","","","","","","",""
"","ISI","","html-keyboard-response","343","333156","0.0-1.0-471.0","0","0","42781","","null","","","null","52","NaN","","","","","","","","","","","","","","",""
"","S2","","html-keyboard-response","344","333421","0.0-1.0-472.0","0","0","42781","","null","","","null","52","","NaN","","","","","","","","","","","","","",""
"","response","","html-keyboard-response","345","333658","0.0-1.0-473.0-0.0","0","0","42781","","235","","","68","52","","","2","52","training","adjacent","EF","5","6","P.jpg","R.jpg","0","1","0","",""
"","feedback","","html-keyboard-response","346","334667","0.0-1.0-474.0-0.0","0","0","42781","","null","","","null","52","","","","","","","","","","","","","","","",""
"","time_out","","html-keyboard-response","347","336672","0.0-1.0-476.0-0.0","0","0","42781","","null","","","null","52","","","","","","","","","","","","","","","",""
"","ITI","","html-keyboard-response","348","337682","0.0-1.0-477.0","0","0","42781","","null","","","null","52","","","","","","","","","","","","","","","NaN",""
"","S1","","html-keyboard-response","349","337938","0.0-1.0-479.0","0","0","42781","","null","","","null","53","","","","","","","","","","","","","","","",""
"","ISI","","html-keyboard-response","350","338948","0.0-1.0-480.0","0","0","42781","","null","","","null","53","NaN","","","","","","","","","","","","","","",""
"","S2","","html-keyboard-response","351","339203","0.0-1.0-481.0","0","0","42781","","null","","","null","53","","NaN","","","","","","","","","","","","","",""
"","response","","html-keyboard-response","352","339621","0.0-1.0-482.0-0.0","0","0","42781","","416","","","68","53","","","2","53","training","adjacent","GF","7","6","Q.jpg","R.jpg","0","0","1","",""
"","feedback","","html-keyboard-response","353","340625","0.0-1.0-483.0-0.0","0","0","42781","","null","","","null","53","","","","","","","","","","","","","","","",""
"","ITI","","html-keyboard-response","354","341636","0.0-1.0-486.0","0","0","42781","","null","","","null","53","","","","","","","","","","","","","","","NaN",""
"","S1","","html-keyboard-response","355","341891","0.0-1.0-488.0","0","0","42781","","null","","","null","54","","","","","","","","","","","","","","","",""
"","ISI","","html-keyboard-response","356","342901","0.0-1.0-489.0","0","0","42781","","null","","","null","54","NaN","","","","","","","","","","","","","","",""
"","S2","","html-keyboard-response","357","343165","0.0-1.0-490.0","0","0","42781","","null","","","null","54","","NaN","","","","","","","","","","","","","",""
"","response","","html-keyboard-response","358","343964","0.0-1.0-491.0-0.0","0","0","42781","","797","","","68","54","","","2","54","training","adjacent","DC","4","3","N.jpg","L.jpg","0","0","1","",""
"","feedback","","html-keyboard-response","359","344971","0.0-1.0-492.0-0.0","0","0","42781","","null","","","null","54","","","","","","","","","","","","","","","",""
"","ITI","","html-keyboard-response","360","345978","0.0-1.0-495.0","0","0","42781","","null","","","null","54","","","","","","","","","","","","","","","NaN",""
"","S1","","html-keyboard-response","361","346234","0.0-1.0-497.0","0","0","42781","","null","","","null","55","","","","","","","","","","","","","","","",""
"","ISI","","html-keyboard-response","362","347243","0.0-1.0-498.0","0","0","42781","","null","","","null","55","NaN","","","","","","","","","","","","","","",""
"","S2","","html-keyboard-response","363","347499","0.0-1.0-499.0","0","0","42781","","null","","","null","55","","NaN","","","","","","","","","","","","","",""
"","response","","html-keyboard-response","364","347879","0.0-1.0-500.0-0.0","0","0","42781","","379","","","75","55","","","2","55","training","adjacent","CD","3","4","L.jpg","N.jpg","1","1","1","",""
"","feedback","","html-keyboard-response","365","348892","0.0-1.0-501.0-0.0","0","0","42781","","null","","","null","55","","","","","","","","","","","","","","","",""
"","ITI","","html-keyboard-response","366","349896","0.0-1.0-504.0","0","0","42781","","null","","","null","55","","","","","","","","","","","","","","","NaN",""
"","S1","","html-keyboard-response","367","350153","0.0-1.0-506.0","0","0","42781","","null","","","null","56","","","","","","","","","","","","","","","",""
"","ISI","","html-keyboard-response","368","351162","0.0-1.0-507.0","0","0","42781","","null","","","null","56","NaN","","","","","","","","","","","","","","",""
"","S2","","html-keyboard-response","369","351418","0.0-1.0-508.0","0","0","42781","","null","","","null","56","","NaN","","","","","","","","","","","","","",""
"","response","","html-keyboard-response","370","351548","0.0-1.0-509.0-0.0","0","0","42781","","129","","","68","56","","","2","56","training","adjacent","DC","4","3","N.jpg","L.jpg","0","0","1","",""
"","feedback","","html-keyboard-response","371","352555","0.0-1.0-510.0-0.0","0","0","42781","","null","","","null","56","","","","","","","","","","","","","","","",""
"","ITI","","html-keyboard-response","372","353565","0.0-1.0-513.0","0","0","42781","","null","","","null","56","","","","","","","","","","","","","","","NaN",""
"","S1","","html-keyboard-response","373","353827","0.0-1.0-515.0","0","0","42781","","null","","","null","57","","","","","","","","","","","","","","","",""
"","ISI","","html-keyboard-response","374","354833","0.0-1.0-516.0","0","0","42781","","null","","","null","57","NaN","","","","","","","","","","","","","","",""
"","S2","","html-keyboard-response","375","355092","0.0-1.0-517.0","0","0","42781","","null","","","null","57","","NaN","","","","","","","","","","","","","",""
"","response","","html-keyboard-response","376","355576","0.0-1.0-518.0-0.0","0","0","42781","","482","","","75","57","","","2","57","training","adjacent","AB","1","2","M.jpg","O.jpg","1","1","1","",""
"","feedback","","html-keyboard-response","377","356590","0.0-1.0-519.0-0.0","0","0","42781","","null","","","null","57","","","","","","","","","","","","","","","",""
"","ITI","","html-keyboard-response","378","357594","0.0-1.0-522.0","0","0","42781","","null","","","null","57","","","","","","","","","","","","","","","NaN",""
"","S1","","html-keyboard-response","379","357849","0.0-1.0-524.0","0","0","42781","","null","","","null","58","","","","","","","","","","","","","","","",""
"","ISI","","html-keyboard-response","380","358854","0.0-1.0-525.0","0","0","42781","","null","","","null","58","NaN","","","","","","","","","","","","","","",""
"","S2","","html-keyboard-response","381","359115","0.0-1.0-526.0","0","0","42781","","null","","","null","58","","NaN","","","","","","","","","","","","","",""
"","response","","html-keyboard-response","382","359199","0.0-1.0-527.0-0.0","0","0","42781","","81","","","68","58","","","2","58","training","adjacent","GF","7","6","Q.jpg","R.jpg","0","0","1","",""
"","feedback","","html-keyboard-response","383","360212","0.0-1.0-528.0-0.0","0","0","42781","","null","","","null","58","","","","","","","","","","","","","","","",""
"","ITI","","html-keyboard-response","384","361216","0.0-1.0-531.0","0","0","42781","","null","","","null","58","","","","","","","","","","","","","","","NaN",""
"","S1","","html-keyboard-response","385","361478","0.0-1.0-533.0","0","0","42781","","null","","","null","59","","","","","","","","","","","","","","","",""
"","ISI","","html-keyboard-response","386","362482","0.0-1.0-534.0","0","0","42781","","null","","","null","59","NaN","","","","","","","","","","","","","","",""
"","S2","","html-keyboard-response","387","362737","0.0-1.0-535.0","0","0","42781","","null","","","null","59","","NaN","","","","","","","","","","","","","",""
"","response","","html-keyboard-response","388","363014","0.0-1.0-536.0-0.0","0","0","42781","","275","","","75","59","","","2","59","training","adjacent","AB","1","2","M.jpg","O.jpg","1","1","1","",""
"","feedback","","html-keyboard-response","389","364026","0.0-1.0-537.0-0.0","0","0","42781","","null","","","null","59","","","","","","","","","","","","","","","",""
"","ITI","","html-keyboard-response","390","365036","0.0-1.0-540.0","0","0","42781","","null","","","null","59","","","","","","","","","","","","","","","NaN",""
"","S1","","html-keyboard-response","391","365292","0.0-1.0-542.0","0","0","42781","","null","","","null","60","","","","","","","","","","","","","","","",""
"","ISI","","html-keyboard-response","392","366302","0.0-1.0-543.0","0","0","42781","","null","","","null","60","NaN","","","","","","","","","","","","","","",""
"","S2","","html-keyboard-response","393","366563","0.0-1.0-544.0","0","0","42781","","null","","","null","60","","NaN","","","","","","","","","","","","","",""
"","response","","html-keyboard-response","394","366872","0.0-1.0-545.0-0.0","0","0","42781","","307","","","75","60","","","2","60","training","adjacent","FG","6","7","R.jpg","Q.jpg","1","1","1","",""
"","feedback","","html-keyboard-response","395","367881","0.0-1.0-546.0-0.0","0","0","42781","","null","","","null","60","","","","","","","","","","","","","","","",""
"","ITI","","html-keyboard-response","396","368890","0.0-1.0-549.0","0","0","42781","","null","","","null","60","","","","","","","","","","","","","","","NaN",""
"","S1","","html-keyboard-response","397","369147","0.0-1.0-551.0","0","0","42781","","null","","","null","61","","","","","","","","","","","","","","","",""
"","ISI","","html-keyboard-response","398","370157","0.0-1.0-552.0","0","0","42781","","null","","","null","61","NaN","","","","","","","","","","","","","","",""
"","S2","","html-keyboard-response","399","370412","0.0-1.0-553.0","0","0","42781","","null","","","null","61","","NaN","","","","","","","","","","","","","",""
"","response","","html-keyboard-response","400","370990","0.0-1.0-554.0-0.0","0","0","42781","","576","","","68","61","","","2","61","training","adjacent","DE","4","5","N.jpg","P.jpg","0","1","0","",""
"","feedback","","html-keyboard-response","401","371996","0.0-1.0-555.0-0.0","0","0","42781","","null","","","null","61","","","","","","","","","","","","","","","",""
"","time_out","","html-keyboard-response","402","374005","0.0-1.0-557.0-0.0","0","0","42781","","null","","","null","61","","","","","","","","","","","","","","","",""
"","ITI","","html-keyboard-response","403","375010","0.0-1.0-558.0","0","0","42781","","null","","","null","61","","","","","","","","","","","","","","","NaN",""
"","S1","","html-keyboard-response","404","375265","0.0-1.0-560.0","0","0","42781","","null","","","null","62","","","","","","","","","","","","","","","",""
"","ISI","","html-keyboard-response","405","376275","0.0-1.0-561.0","0","0","42781","","null","","","null","62","NaN","","","","","","","","","","","","","","",""
"","S2","","html-keyboard-response","406","376531","0.0-1.0-562.0","0","0","42781","","null","","","null","62","","NaN","","","","","","","","","","","","","",""
"","response","","html-keyboard-response","407","376739","0.0-1.0-563.0-0.0","0","0","42781","","207","","","68","62","","","2","62","training","adjacent","GF","7","6","Q.jpg","R.jpg","0","0","1","",""
"","feedback","","html-keyboard-response","408","377750","0.0-1.0-564.0-0.0","0","0","42781","","null","","","null","62","","","","","","","","","","","","","","","",""
"","ITI","","html-keyboard-response","409","378754","0.0-1.0-567.0","0","0","42781","","null","","","null","62","","","","","","","","","","","","","","","NaN",""
"","S1","","html-keyboard-response","410","379009","0.0-1.0-569.0","0","0","42781","","null","","","null","63","","","","","","","","","","","","","","","",""
"","ISI","","html-keyboard-response","411","380019","0.0-1.0-570.0","0","0","42781","","null","","","null","63","NaN","","","","","","","","","","","","","","",""
"","S2","","html-keyboard-response","412","380274","0.0-1.0-571.0","0","0","42781","","null","","","null","63","","NaN","","","","","","","","","","","","","",""
"","response","","html-keyboard-response","413","380385","0.0-1.0-572.0-0.0","0","0","42781","","108","","","75","63","","","2","63","training","adjacent","AB","1","2","M.jpg","O.jpg","1","1","1","",""
"","feedback","","html-keyboard-response","414","381395","0.0-1.0-573.0-0.0","0","0","42781","","null","","","null","63","","","","","","","","","","","","","","","",""
"","ITI","","html-keyboard-response","415","382405","0.0-1.0-576.0","0","0","42781","","null","","","null","63","","","","","","","","","","","","","","","NaN",""
"","S1","","html-keyboard-response","416","382667","0.0-1.0-578.0","0","0","42781","","null","","","null","64","","","","","","","","","","","","","","","",""
"","ISI","","html-keyboard-response","417","383677","0.0-1.0-579.0","0","0","42781","","null","","","null","64","NaN","","","","","","","","","","","","","","",""
"","S2","","html-keyboard-response","418","383932","0.0-1.0-580.0","0","0","42781","","null","","","null","64","","NaN","","","","","","","","","","","","","",""
"","response","","html-keyboard-response","419","384041","0.0-1.0-581.0-0.0","0","0","42781","","108","","","75","64","","","2","64","training","adjacent","AB","1","2","M.jpg","O.jpg","1","1","1","",""
"","feedback","","html-keyboard-response","420","385052","0.0-1.0-582.0-0.0","0","0","42781","","null","","","null","64","","","","","","","","","","","","","","","",""
"","ITI","","html-keyboard-response","421","386058","0.0-1.0-585.0","0","0","42781","","null","","","null","64","","","","","","","","","","","","","","","NaN",""
"","S1","","html-keyboard-response","422","386318","0.0-1.0-587.0","0","0","42781","","null","","","null","65","","","","","","","","","","","","","","","",""
"","ISI","","html-keyboard-response","423","387322","0.0-1.0-588.0","0","0","42781","","null","","","null","65","NaN","","","","","","","","","","","","","","",""
"","S2","","html-keyboard-response","424","387578","0.0-1.0-589.0","0","0","42781","","null","","","null","65","","NaN","","","","","","","","","","","","","",""
"","response","","html-keyboard-response","425","387878","0.0-1.0-590.0-0.0","0","0","42781","","299","","","75","65","","","2","65","training","adjacent","CB","3","2","L.jpg","O.jpg","1","0","0","",""
"","feedback","","html-keyboard-response","426","388884","0.0-1.0-591.0-0.0","0","0","42781","","null","","","null","65","","","","","","","","","","","","","","","",""
"","time_out","","html-keyboard-response","427","390892","0.0-1.0-593.0-0.0","0","0","42781","","null","","","null","65","","","","","","","","","","","","","","","",""
"","ITI","","html-keyboard-response","428","391902","0.0-1.0-594.0","0","0","42781","","null","","","null","65","","","","","","","","","","","","","","","NaN",""
"","S1","","html-keyboard-response","429","392164","0.0-1.0-596.0","0","0","42781","","null","","","null","66","","","","","","","","","","","","","","","",""
"","ISI","","html-keyboard-response","430","393174","0.0-1.0-597.0","0","0","42781","","null","","","null","66","NaN","","","","","","","","","","","","","","",""
"","S2","","html-keyboard-response","431","393435","0.0-1.0-598.0","0","0","42781","","null","","","null","66","","NaN","","","","","","","","","","","","","",""
"","response","","html-keyboard-response","432","393718","0.0-1.0-599.0-0.0","0","0","42781","","281","","","75","66","","","2","66","training","adjacent","BA","2","1","O.jpg","M.jpg","1","0","0","",""
"","feedback","","html-keyboard-response","433","394724","0.0-1.0-600.0-0.0","0","0","42781","","null","","","null","66","","","","","","","","","","","","","","","",""
"","time_out","","html-keyboard-response","434","396732","0.0-1.0-602.0-0.0","0","0","42781","","null","","","null","66","","","","","","","","","","","","","","","",""
"","ITI","","html-keyboard-response","435","397742","0.0-1.0-603.0","0","0","42781","","null","","","null","66","","","","","","","","","","","","","","","NaN",""
"","S1","","html-keyboard-response","436","398003","0.0-1.0-605.0","0","0","42781","","null","","","null","67","","","","","","","","","","","","","","","",""
"","ISI","","html-keyboard-response","437","399014","0.0-1.0-606.0","0","0","42781","","null","","","null","67","NaN","","","","","","","","","","","","","","",""
"","S2","","html-keyboard-response","438","399275","0.0-1.0-607.0","0","0","42781","","null","","","null","67","","NaN","","","","","","","","","","","","","",""
"","response","","html-keyboard-response","439","399546","0.0-1.0-608.0-0.0","0","0","42781","","270","","","75","67","","","2","67","training","adjacent","FE","6","5","R.jpg","P.jpg","1","0","0","",""
"","feedback","","html-keyboard-response","440","400558","0.0-1.0-609.0-0.0","0","0","42781","","null","","","null","67","","","","","","","","","","","","","","","",""
"","time_out","","html-keyboard-response","441","402567","0.0-1.0-611.0-0.0","0","0","42781","","null","","","null","67","","","","","","","","","","","","","","","",""
"","ITI","","html-keyboard-response","442","403571","0.0-1.0-612.0","0","0","42781","","null","","","null","67","","","","","","","","","","","","","","","NaN",""
"","S1","","html-keyboard-response","443","403826","0.0-1.0-614.0","0","0","42781","","null","","","null","68","","","","","","","","","","","","","","","",""
"","ISI","","html-keyboard-response","444","404836","0.0-1.0-615.0","0","0","42781","","null","","","null","68","NaN","","","","","","","","","","","","","","",""
"","S2","","html-keyboard-response","445","405092","0.0-1.0-616.0","0","0","42781","","null","","","null","68","","NaN","","","","","","","","","","","","","",""
"","response","","html-keyboard-response","446","405239","0.0-1.0-617.0-0.0","0","0","42781","","146","","","75","68","","","2","68","training","adjacent","FG","6","7","R.jpg","Q.jpg","1","1","1","",""
"","feedback","","html-keyboard-response","447","406247","0.0-1.0-618.0-0.0","0","0","42781","","null","","","null","68","","","","","","","","","","","","","","","",""
"","ITI","","html-keyboard-response","448","407251","0.0-1.0-621.0","0","0","42781","","null","","","null","68","","","","","","","","","","","","","","","NaN",""
"","S1","","html-keyboard-response","449","407506","0.0-1.0-623.0","0","0","42781","","null","","","null","69","","","","","","","","","","","","","","","",""
"","ISI","","html-keyboard-response","450","408517","0.0-1.0-624.0","0","0","42781","","null","","","null","69","NaN","","","","","","","","","","","","","","",""
"","S2","","html-keyboard-response","451","408772","0.0-1.0-625.0","0","0","42781","","null","","","null","69","","NaN","","","","","","","","","","","","","",""
"","response","","html-keyboard-response","452","409492","0.0-1.0-626.0-0.0","0","0","42781","","718","","","68","69","","","2","69","training","adjacent","CD","3","4","L.jpg","N.jpg","0","1","0","",""
"","feedback","","html-keyboard-response","453","410502","0.0-1.0-627.0-0.0","0","0","42781","","null","","","null","69","","","","","","","","","","","","","","","",""
"","time_out","","html-keyboard-response","454","412511","0.0-1.0-629.0-0.0","0","0","42781","","null","","","null","69","","","","","","","","","","","","","","","",""
"","ITI","","html-keyboard-response","455","413515","0.0-1.0-630.0","0","0","42781","","null","","","null","69","","","","","","","","","","","","","","","NaN",""
"","S1","","html-keyboard-response","456","413770","0.0-1.0-632.0","0","0","42781","","null","","","null","70","","","","","","","","","","","","","","","",""
"","ISI","","html-keyboard-response","457","414781","0.0-1.0-633.0","0","0","42781","","null","","","null","70","NaN","","","","","","","","","","","","","","",""
"","S2","","html-keyboard-response","458","415035","0.0-1.0-634.0","0","0","42781","","null","","","null","70","","NaN","","","","","","","","","","","","","",""
"","response","","html-keyboard-response","459","415299","0.0-1.0-635.0-0.0","0","0","42781","","262","","","75","70","","","2","70","training","adjacent","DE","4","5","N.jpg","P.jpg","1","1","1","",""
"","feedback","","html-keyboard-response","460","416307","0.0-1.0-636.0-0.0","0","0","42781","","null","","","null","70","","","","","","","","","","","","","","","",""
"","ITI","","html-keyboard-response","461","417317","0.0-1.0-639.0","0","0","42781","","null","","","null","70","","","","","","","","","","","","","","","NaN",""
"","S1","","html-keyboard-response","462","417573","0.0-1.0-641.0","0","0","42781","","null","","","null","71","","","","","","","","","","","","","","","",""
"","ISI","","html-keyboard-response","463","418583","0.0-1.0-642.0","0","0","42781","","null","","","null","71","NaN","","","","","","","","","","","","","","",""
"","S2","","html-keyboard-response","464","418844","0.0-1.0-643.0","0","0","42781","","null","","","null","71","","NaN","","","","","","","","","","","","","",""
"","response","","html-keyboard-response","465","418932","0.0-1.0-644.0-0.0","0","0","42781","","86","","","68","71","","","2","71","training","adjacent","CD","3","4","L.jpg","N.jpg","0","1","0","",""
"","feedback","","html-keyboard-response","466","419940","0.0-1.0-645.0-0.0","0","0","42781","","null","","","null","71","","","","","","","","","","","","","","","",""
"","time_out","","html-keyboard-response","467","421950","0.0-1.0-647.0-0.0","0","0","42781","","null","","","null","71","","","","","","","","","","","","","","","",""
"","ITI","","html-keyboard-response","468","422954","0.0-1.0-648.0","0","0","42781","","null","","","null","71","","","","","","","","","","","","","","","NaN",""
"","S1","","html-keyboard-response","469","423215","0.0-1.0-650.0","0","0","42781","","null","","","null","72","","","","","","","","","","","","","","","",""
"","ISI","","html-keyboard-response","470","424219","0.0-1.0-651.0","0","0","42781","","null","","","null","72","NaN","","","","","","","","","","","","","","",""
"","S2","","html-keyboard-response","471","424475","0.0-1.0-652.0","0","0","42781","","null","","","null","72","","NaN","","","","","","","","","","","","","",""
"","response","","html-keyboard-response","472","424636","0.0-1.0-653.0-0.0","0","0","42781","","160","","","75","72","","","2","72","training","adjacent","FG","6","7","R.jpg","Q.jpg","1","1","1","",""
"","feedback","","html-keyboard-response","473","425645","0.0-1.0-654.0-0.0","0","0","42781","","null","","","null","72","","","","","","","","","","","","","","","",""
"","ITI","","html-keyboard-response","474","426652","0.0-1.0-657.0","0","0","42781","","null","","","null","72","","","","","","","","","","","","","","","NaN",""
"","S1","","html-keyboard-response","475","426908","0.0-1.0-659.0","0","0","42781","","null","","","null","73","","","","","","","","","","","","","","","",""
"","ISI","","html-keyboard-response","476","427918","0.0-1.0-660.0","0","0","42781","","null","","","null","73","NaN","","","","","","","","","","","","","","",""
"","S2","","html-keyboard-response","477","428173","0.0-1.0-661.0","0","0","42781","","null","","","null","73","","NaN","","","","","","","","","","","","","",""
"","response","","html-keyboard-response","478","428563","0.0-1.0-662.0-0.0","0","0","42781","","389","","","68","73","","","2","73","training","adjacent","BA","2","1","O.jpg","M.jpg","0","0","1","",""
"","feedback","","html-keyboard-response","479","429571","0.0-1.0-663.0-0.0","0","0","42781","","null","","","null","73","","","","","","","","","","","","","","","",""
"","ITI","","html-keyboard-response","480","430581","0.0-1.0-666.0","0","0","42781","","null","","","null","73","","","","","","","","","","","","","","","NaN",""
"","S1","","html-keyboard-response","481","430838","0.0-1.0-668.0","0","0","42781","","null","","","null","74","","","","","","","","","","","","","","","",""
"","ISI","","html-keyboard-response","482","431848","0.0-1.0-669.0","0","0","42781","","null","","","null","74","NaN","","","","","","","","","","","","","","",""
"","S2","","html-keyboard-response","483","432109","0.0-1.0-670.0","0","0","42781","","null","","","null","74","","NaN","","","","","","","","","","","","","",""
"","response","","html-keyboard-response","484","432445","0.0-1.0-671.0-0.0","0","0","42781","","334","","","75","74","","","2","74","training","adjacent","BC","2","3","O.jpg","L.jpg","1","1","1","",""
"","feedback","","html-keyboard-response","485","433455","0.0-1.0-672.0-0.0","0","0","42781","","null","","","null","74","","","","","","","","","","","","","","","",""
"","ITI","","html-keyboard-response","486","434460","0.0-1.0-675.0","0","0","42781","","null","","","null","74","","","","","","","","","","","","","","","NaN",""
"","S1","","html-keyboard-response","487","434715","0.0-1.0-677.0","0","0","42781","","null","","","null","75","","","","","","","","","","","","","","","",""
"","ISI","","html-keyboard-response","488","435726","0.0-1.0-678.0","0","0","42781","","null","","","null","75","NaN","","","","","","","","","","","","","","",""
"","S2","","html-keyboard-response","489","435981","0.0-1.0-679.0","0","0","42781","","null","","","null","75","","NaN","","","","","","","","","","","","","",""
"","response","","html-keyboard-response","490","436225","0.0-1.0-680.0-0.0","0","0","42781","","243","","","75","75","","","2","75","training","adjacent","DC","4","3","N.jpg","L.jpg","1","0","0","",""
"","feedback","","html-keyboard-response","491","437239","0.0-1.0-681.0-0.0","0","0","42781","","null","","","null","75","","","","","","","","","","","","","","","",""
"","time_out","","html-keyboard-response","492","439243","0.0-1.0-683.0-0.0","0","0","42781","","null","","","null","75","","","","","","","","","","","","","","","",""
"","ITI","","html-keyboard-response","493","440253","0.0-1.0-684.0","0","0","42781","","null","","","null","75","","","","","","","","","","","","","","","NaN",""
"","S1","","html-keyboard-response","494","440509","0.0-1.0-686.0","0","0","42781","","null","","","null","76","","","","","","","","","","","","","","","",""
"","ISI","","html-keyboard-response","495","441519","0.0-1.0-687.0","0","0","42781","","null","","","null","76","NaN","","","","","","","","","","","","","","",""
"","S2","","html-keyboard-response","496","441780","0.0-1.0-688.0","0","0","42781","","null","","","null","76","","NaN","","","","","","","","","","","","","",""
"","response","","html-keyboard-response","497","442267","0.0-1.0-689.0-0.0","0","0","42781","","485","","","68","76","","","2","76","training","adjacent","CD","3","4","L.jpg","N.jpg","0","1","0","",""
"","feedback","","html-keyboard-response","498","443278","0.0-1.0-690.0-0.0","0","0","42781","","null","","","null","76","","","","","","","","","","","","","","","",""
"","time_out","","html-keyboard-response","499","445287","0.0-1.0-692.0-0.0","0","0","42781","","null","","","null","76","","","","","","","","","","","","","","","",""
"","ITI","","html-keyboard-response","500","446291","0.0-1.0-693.0","0","0","42781","","null","","","null","76","","","","","","","","","","","","","","","NaN",""
"","S1","","html-keyboard-response","501","446552","0.0-1.0-695.0","0","0","42781","","null","","","null","77","","","","","","","","","","","","","","","",""
"","ISI","","html-keyboard-response","502","447559","0.0-1.0-696.0","0","0","42781","","null","","","null","77","NaN","","","","","","","","","","","","","","",""
"","S2","","html-keyboard-response","503","447823","0.0-1.0-697.0","0","0","42781","","null","","","null","77","","NaN","","","","","","","","","","","","","",""
"","response","","html-keyboard-response","504","448163","0.0-1.0-698.0-0.0","0","0","42781","","338","","","68","77","","","2","77","training","adjacent","CB","3","2","L.jpg","O.jpg","0","0","1","",""
"","feedback","","html-keyboard-response","505","449176","0.0-1.0-699.0-0.0","0","0","42781","","null","","","null","77","","","","","","","","","","","","","","","",""
"","ITI","","html-keyboard-response","506","450180","0.0-1.0-702.0","0","0","42781","","null","","","null","77","","","","","","","","","","","","","","","NaN",""
"","S1","","html-keyboard-response","507","450436","0.0-1.0-704.0","0","0","42781","","null","","","null","78","","","","","","","","","","","","","","","",""
"","ISI","","html-keyboard-response","508","451446","0.0-1.0-705.0","0","0","42781","","null","","","null","78","NaN","","","","","","","","","","","","","","",""
"","S2","","html-keyboard-response","509","451701","0.0-1.0-706.0","0","0","42781","","null","","","null","78","","NaN","","","","","","","","","","","","","",""
"","response","","html-keyboard-response","510","452337","0.0-1.0-707.0-0.0","0","0","42781","","634","","","75","78","","","2","78","training","adjacent","CB","3","2","L.jpg","O.jpg","1","0","0","",""
"","feedback","","html-keyboard-response","511","453350","0.0-1.0-708.0-0.0","0","0","42781","","null","","","null","78","","","","","","","","","","","","","","","",""
"","time_out","","html-keyboard-response","512","455358","0.0-1.0-710.0-0.0","0","0","42781","","null","","","null","78","","","","","","","","","","","","","","","",""
"","ITI","","html-keyboard-response","513","456365","0.0-1.0-711.0","0","0","42781","","null","","","null","78","","","","","","","","","","","","","","","NaN",""
"","S1","","html-keyboard-response","514","456624","0.0-1.0-713.0","0","0","42781","","null","","","null","79","","","","","","","","","","","","","","","",""
"","ISI","","html-keyboard-response","515","457628","0.0-1.0-714.0","0","0","42781","","null","","","null","79","NaN","","","","","","","","","","","","","","",""
"","S2","","html-keyboard-response","516","457885","0.0-1.0-715.0","0","0","42781","","null","","","null","79","","NaN","","","","","","","","","","","","","",""
"","response","","html-keyboard-response","517","458031","0.0-1.0-716.0-0.0","0","0","42781","","143","","","68","79","","","2","79","training","adjacent","CB","3","2","L.jpg","O.jpg","0","0","1","",""
"","feedback","","html-keyboard-response","518","459039","0.0-1.0-717.0-0.0","0","0","42781","","null","","","null","79","","","","","","","","","","","","","","","",""
"","ITI","","html-keyboard-response","519","460047","0.0-1.0-720.0","0","0","42781","","null","","","null","79","","","","","","","","","","","","","","","NaN",""
"","S1","","html-keyboard-response","520","460310","0.0-1.0-722.0","0","0","42781","","null","","","null","80","","","","","","","","","","","","","","","",""
"","ISI","","html-keyboard-response","521","461320","0.0-1.0-723.0","0","0","42781","","null","","","null","80","NaN","","","","","","","","","","","","","","",""
"","S2","","html-keyboard-response","522","461581","0.0-1.0-724.0","0","0","42781","","null","","","null","80","","NaN","","","","","","","","","","","","","",""
"","response","","html-keyboard-response","523","462328","0.0-1.0-725.0-0.0","0","0","42781","","745","","","75","80","","","2","80","training","adjacent","DE","4","5","N.jpg","P.jpg","1","1","1","",""
"","feedback","","html-keyboard-response","524","463335","0.0-1.0-726.0-0.0","0","0","42781","","null","","","null","80","","","","","","","","","","","","","","","",""
"","ITI","","html-keyboard-response","525","464344","0.0-1.0-729.0","0","0","42781","","null","","","null","80","","","","","","","","","","","","","","","NaN",""
"","S1","","html-keyboard-response","526","464606","0.0-1.0-731.0","0","0","42781","","null","","","null","81","","","","","","","","","","","","","","","",""
"","ISI","","html-keyboard-response","527","465616","0.0-1.0-732.0","0","0","42781","","null","","","null","81","NaN","","","","","","","","","","","","","","",""
"","S2","","html-keyboard-response","528","465877","0.0-1.0-733.0","0","0","42781","","null","","","null","81","","NaN","","","","","","","","","","","","","",""
"","response","","html-keyboard-response","529","466221","0.0-1.0-734.0-0.0","0","0","42781","","342","","","68","81","","","2","81","training","adjacent","FE","6","5","R.jpg","P.jpg","0","0","1","",""
"","feedback","","html-keyboard-response","530","467229","0.0-1.0-735.0-0.0","0","0","42781","","null","","","null","81","","","","","","","","","","","","","","","",""
"","ITI","","html-keyboard-response","531","468240","0.0-1.0-738.0","0","0","42781","","null","","","null","81","","","","","","","","","","","","","","","NaN",""
"","S1","","html-keyboard-response","532","468501","0.0-1.0-740.0","0","0","42781","","null","","","null","82","","","","","","","","","","","","","","","",""
"","ISI","","html-keyboard-response","533","469508","0.0-1.0-741.0","0","0","42781","","null","","","null","82","NaN","","","","","","","","","","","","","","",""
"","S2","","html-keyboard-response","534","469767","0.0-1.0-742.0","0","0","42781","","null","","","null","82","","NaN","","","","","","","","","","","","","",""
"","response","","html-keyboard-response","535","470036","0.0-1.0-743.0-0.0","0","0","42781","","268","","","75","82","","","2","82","training","adjacent","DC","4","3","N.jpg","L.jpg","1","0","0","",""
"","feedback","","html-keyboard-response","536","471044","0.0-1.0-744.0-0.0","0","0","42781","","null","","","null","82","","","","","","","","","","","","","","","",""
"","time_out","","html-keyboard-response","537","473053","0.0-1.0-746.0-0.0","0","0","42781","","null","","","null","82","","","","","","","","","","","","","","","",""
"","ITI","","html-keyboard-response","538","474062","0.0-1.0-747.0","0","0","42781","","null","","","null","82","","","","","","","","","","","","","","","NaN",""
"","S1","","html-keyboard-response","539","474318","0.0-1.0-749.0","0","0","42781","","null","","","null","83","","","","","","","","","","","","","","","",""
"","ISI","","html-keyboard-response","540","475328","0.0-1.0-750.0","0","0","42781","","null","","","null","83","NaN","","","","","","","","","","","","","","",""
"","S2","","html-keyboard-response","541","475590","0.0-1.0-751.0","0","0","42781","","null","","","null","83","","NaN","","","","","","","","","","","","","",""
"","response","","html-keyboard-response","542","475751","0.0-1.0-752.0-0.0","0","0","42781","","160","","","75","83","","","2","83","training","adjacent","BC","2","3","O.jpg","L.jpg","1","1","1","",""
"","feedback","","html-keyboard-response","543","476756","0.0-1.0-753.0-0.0","0","0","42781","","null","","","null","83","","","","","","","","","","","","","","","",""
"","ITI","","html-keyboard-response","544","477766","0.0-1.0-756.0","0","0","42781","","null","","","null","83","","","","","","","","","","","","","","","NaN",""
"","S1","","html-keyboard-response","545","478021","0.0-1.0-758.0","0","0","42781","","null","","","null","84","","","","","","","","","","","","","","","",""
"","ISI","","html-keyboard-response","546","479032","0.0-1.0-759.0","0","0","42781","","null","","","null","84","NaN","","","","","","","","","","","","","","",""
"","S2","","html-keyboard-response","547","479293","0.0-1.0-760.0","0","0","42781","","null","","","null","84","","NaN","","","","","","","","","","","","","",""
"","response","","html-keyboard-response","548","479678","0.0-1.0-761.0-0.0","0","0","42781","","384","","","68","84","","","2","84","training","adjacent","EF","5","6","P.jpg","R.jpg","0","1","0","",""
"","feedback","","html-keyboard-response","549","480686","0.0-1.0-762.0-0.0","0","0","42781","","null","","","null","84","","","","","","","","","","","","","","","",""
"","time_out","","html-keyboard-response","550","482694","0.0-1.0-764.0-0.0","0","0","42781","","null","","","null","84","","","","","","","","","","","","","","","",""
"","ITI","","html-keyboard-response","551","483705","0.0-1.0-765.0","0","0","42781","","null","","","null","84","","","","","","","","","","","","","","","NaN",""
"","S1","","html-keyboard-response","552","483966","0.0-1.0-767.0","0","0","42781","","null","","","null","85","","","","","","","","","","","","","","","",""
"","ISI","","html-keyboard-response","553","484976","0.0-1.0-768.0","0","0","42781","","null","","","null","85","NaN","","","","","","","","","","","","","","",""
"","S2","","html-keyboard-response","554","485238","0.0-1.0-769.0","0","0","42781","","null","","","null","85","","NaN","","","","","","","","","","","","","",""
"","response","","html-keyboard-response","555","485551","0.0-1.0-770.0-0.0","0","0","42781","","312","","","68","85","","","2","85","training","adjacent","EF","5","6","P.jpg","R.jpg","0","1","0","",""
"","feedback","","html-keyboard-response","556","486561","0.0-1.0-771.0-0.0","0","0","42781","","null","","","null","85","","","","","","","","","","","","","","","",""
"","time_out","","html-keyboard-response","557","488568","0.0-1.0-773.0-0.0","0","0","42781","","null","","","null","85","","","","","","","","","","","","","","","",""
"","ITI","","html-keyboard-response","558","489574","0.0-1.0-774.0","0","0","42781","","null","","","null","85","","","","","","","","","","","","","","","NaN",""
"","S1","","html-keyboard-response","559","489829","0.0-1.0-776.0","0","0","42781","","null","","","null","86","","","","","","","","","","","","","","","",""
"","ISI","","html-keyboard-response","560","490839","0.0-1.0-777.0","0","0","42781","","null","","","null","86","NaN","","","","","","","","","","","","","","",""
"","S2","","html-keyboard-response","561","491095","0.0-1.0-778.0","0","0","42781","","null","","","null","86","","NaN","","","","","","","","","","","","","",""
"","response","","html-keyboard-response","562","491773","0.0-1.0-779.0-0.0","0","0","42781","","677","","","68","86","","","2","86","training","adjacent","ED","5","4","P.jpg","N.jpg","0","0","1","",""
"","feedback","","html-keyboard-response","563","492784","0.0-1.0-780.0-0.0","0","0","42781","","null","","","null","86","","","","","","","","","","","","","","","",""
"","ITI","","html-keyboard-response","564","493788","0.0-1.0-783.0","0","0","42781","","null","","","null","86","","","","","","","","","","","","","","","NaN",""
"","S1","","html-keyboard-response","565","494049","0.0-1.0-785.0","0","0","42781","","null","","","null","87","","","","","","","","","","","","","","","",""
"","ISI","","html-keyboard-response","566","495054","0.0-1.0-786.0","0","0","42781","","null","","","null","87","NaN","","","","","","","","","","","","","","",""
"","S2","","html-keyboard-response","567","495309","0.0-1.0-787.0","0","0","42781","","null","","","null","87","","NaN","","","","","","","","","","","","","",""
"","response","","html-keyboard-response","568","495565","0.0-1.0-788.0-0.0","0","0","42781","","255","","","68","87","","","2","87","training","adjacent","ED","5","4","P.jpg","N.jpg","0","0","1","",""
"","feedback","","html-keyboard-response","569","496575","0.0-1.0-789.0-0.0","0","0","42781","","null","","","null","87","","","","","","","","","","","","","","","",""
"","ITI","","html-keyboard-response","570","497585","0.0-1.0-792.0","0","0","42781","","null","","","null","87","","","","","","","","","","","","","","","NaN",""
"","S1","","html-keyboard-response","571","497846","0.0-1.0-794.0","0","0","42781","","null","","","null","88","","","","","","","","","","","","","","","",""
"","ISI","","html-keyboard-response","572","498856","0.0-1.0-795.0","0","0","42781","","null","","","null","88","NaN","","","","","","","","","","","","","","",""
"","S2","","html-keyboard-response","573","499118","0.0-1.0-796.0","0","0","42781","","null","","","null","88","","NaN","","","","","","","","","","","","","",""
"","response","","html-keyboard-response","574","499278","0.0-1.0-797.0-0.0","0","0","42781","","159","","","68","88","","","2","88","training","adjacent","ED","5","4","P.jpg","N.jpg","0","0","1","",""
"","feedback","","html-keyboard-response","575","500285","0.0-1.0-798.0-0.0","0","0","42781","","null","","","null","88","","","","","","","","","","","","","","","",""
"","ITI","","html-keyboard-response","576","501294","0.0-1.0-801.0","0","0","42781","","null","","","null","88","","","","","","","","","","","","","","","NaN",""
"","S1","","html-keyboard-response","577","501549","0.0-1.0-803.0","0","0","42781","","null","","","null","89","","","","","","","","","","","","","","","",""
"","ISI","","html-keyboard-response","578","502560","0.0-1.0-804.0","0","0","42781","","null","","","null","89","NaN","","","","","","","","","","","","","","",""
"","S2","","html-keyboard-response","579","502821","0.0-1.0-805.0","0","0","42781","","null","","","null","89","","NaN","","","","","","","","","","","","","",""
"","response","","html-keyboard-response","580","502845","0.0-1.0-806.0-0.0","0","0","42781","","22","","","75","89","","","2","89","training","adjacent","BA","2","1","O.jpg","M.jpg","1","0","0","",""
"","feedback","","html-keyboard-response","581","503855","0.0-1.0-807.0-0.0","0","0","42781","","null","","","null","89","","","","","","","","","","","","","","","",""
