"success","ttype","start_time","trial_type","trial_index","time_elapsed","internal_node_id","warning","missed_checkup","PID","view_history","rt","responses","repeat_instructions","key_press","index","keypress_isi","keypress_S2","block","trial_num","phase","group_type","pair_type","S1_stim","S2_stim","S1_img","S2_img","S1_chosen","S1_higher","accuracy","keypress_iti","total_bonus_tally"
"true","full_screen","d04062023hr2003","fullscreen","0","13437","0.0-0.0","0","0","10465","","","","","","","","","","","","","","","","","","","","","",""
"","instructions","","instructions","1","47193","0.0-1.0-0.0-0.0","0","0","10465","[{""page_index"":0,""viewing_time"":7573},{""page_index"":1,""viewing_time"":18811},{""page_index"":2,""viewing_time"":5815},{""page_index"":3,""viewing_time"":1554}]","33754","","","","","","","","","","","","","","","","","","","",""
"","comprehension_check","","survey-multi-choice","2","72069","0.0-1.0-0.0-1.0","0","0","10465","","24873","{""Q0"":""True"",""Q1"":""K"",""Q2"":""Only when the screen 'MAKE A CHOICE' is shown"",""Q3"":""Green mark"",""Q4"":""either D or K""}","1","","","","","","","","","","","","","","","","","",""
"","missed_instruction_checkup","","html-keyboard-response","3","73844","0.0-1.0-0.0-2.0-0.0","0","1","10465","","1772","","","32","","","","","","","","","","","","","","","","",""
"","instructions","","instructions","4","99586","0.0-1.0-0.1-0.1","0","0","10465","[{""page_index"":0,""viewing_time"":2842},{""page_index"":1,""viewing_time"":20432},{""page_index"":2,""viewing_time"":1523},{""page_index"":3,""viewing_time"":943}]","25741","","","","","","","","","","","","","","","","","","","",""
"","comprehension_check","","survey-multi-choice","5","109762","0.0-1.0-0.1-1.1","0","0","10465","","10172","{""Q0"":""True"",""Q1"":""K"",""Q2"":""Once the second image appears and while the screen 'MAKE A CHOICE' is shown"",""Q3"":""Green mark"",""Q4"":""either D or K""}","0","","","","","","","","","","","","","","","","","",""
"","start_exp","","html-keyboard-response","6","110894","0.0-1.0-1.0","0","0","10465","","1130","","","32","","","","","","","","","","","","","","","","",""
"","S1","","html-keyboard-response","7","111054","0.0-1.0-2.0","0","0","10465","","null","","","null","0","","","","","","","","","","","","","","","",""
"","ISI","","html-keyboard-response","8","113056","0.0-1.0-3.0","0","0","10465","","null","","","null","0","NaN","","","","","","","","","","","","","","",""
"","S2","","html-keyboard-response","9","113209","0.0-1.0-4.0","0","0","10465","","null","","","null","0","","NaN","","","","","","","","","","","","","",""
"","response","","html-keyboard-response","10","113975","0.0-1.0-5.0-0.0","0","0","10465","","763","","","75","0","","","1","0","training","adjacent","AB","1","2","O.jpg","Q.jpg","1","1","1","",""
"","feedback","","html-keyboard-response","11","114981","0.0-1.0-6.0-0.0","0","0","10465","","null","","","null","0","","","","","","","","","","","","","","","",""
"","ITI","","html-keyboard-response","12","115984","0.0-1.0-9.0","0","0","10465","","null","","","null","0","","","","","","","","","","","","","","","NaN",""
"","S1","","html-keyboard-response","13","116136","0.0-1.0-11.0","0","0","10465","","null","","","null","1","","","","","","","","","","","","","","","",""
"","ISI","","html-keyboard-response","14","118138","0.0-1.0-12.0","0","0","10465","","null","","","null","1","NaN","","","","","","","","","","","","","","",""
"","S2","","html-keyboard-response","15","118289","0.0-1.0-13.0","0","0","10465","","null","","","null","1","","NaN","","","","","","","","","","","","","",""
"","response","","html-keyboard-response","16","118837","0.0-1.0-14.0-0.0","0","0","10465","","545","","","75","1","","","1","1","training","adjacent","CD","3","4","R.jpg","M.jpg","1","1","1","",""
"","feedback","","html-keyboard-response","17","119839","0.0-1.0-15.0-0.0","0","0","10465","","null","","","null","1","","","","","","","","","","","","","","","",""
"","ITI","","html-keyboard-response","18","120849","0.0-1.0-18.0","0","0","10465","","null","","","null","1","","","","","","","","","","","","","","","NaN",""
"","S1","","html-keyboard-response","19","121002","0.0-1.0-20.0","0","0","10465","","null","","","null","2","","","","","","","","","","","","","","","",""
"","ISI","","html-keyboard-response","20","123004","0.0-1.0-21.0","0","0","10465","","null","","","null","2","NaN","","","","","","","","","","","","","","",""
"","S2","","html-keyboard-response","21","123157","0.0-1.0-22.0","0","0","10465","","null","","","null","2","","NaN","","","","","","","","","","","","","",""
"","response","","html-keyboard-response","22","123750","0.0-1.0-23.0-0.0","0","0","10465","","592","","","68","2","","","1","2","training","adjacent","CD","3","4","R.jpg","M.jpg","0","1","0","",""
"","feedback","","html-keyboard-response","23","124753","0.0-1.0-24.0-0.0","0","0","10465","","null","","","null","2","","","","","","","","","","","","","","","",""
"","time_out","","html-keyboard-response","24","126756","0.0-1.0-26.0-0.0","0","0","10465","","null","","","null","2","","","","","","","","","","","","","","","",""
"","ITI","","html-keyboard-response","25","127758","0.0-1.0-27.0","0","0","10465","","null","","","null","2","","","","","","","","","","","","","","","NaN",""
"","S1","","html-keyboard-response","26","127911","0.0-1.0-29.0","0","0","10465","","null","","","null","3","","","","","","","","","","","","","","","",""
"","ISI","","html-keyboard-response","27","129914","0.0-1.0-30.0","0","0","10465","","null","","","null","3","NaN","","","","","","","","","","","","","","",""
"","S2","","html-keyboard-response","28","130066","0.0-1.0-31.0","0","0","10465","","null","","","null","3","","NaN","","","","","","","","","","","","","",""
"","response","","html-keyboard-response","29","130595","0.0-1.0-32.0-0.0","0","0","10465","","527","","","68","3","","","1","3","training","adjacent","CB","3","2","R.jpg","Q.jpg","0","0","1","",""
"","feedback","","html-keyboard-response","30","131597","0.0-1.0-33.0-0.0","0","0","10465","","null","","","null","3","","","","","","","","","","","","","","","",""
"","ITI","","html-keyboard-response","31","132604","0.0-1.0-36.0","0","0","10465","","null","","","null","3","","","","","","","","","","","","","","","NaN",""
"","S1","","html-keyboard-response","32","132756","0.0-1.0-38.0","0","0","10465","","null","","","null","4","","","","","","","","","","","","","","","",""
"","ISI","","html-keyboard-response","33","134759","0.0-1.0-39.0","0","0","10465","","null","","","null","4","NaN","","","","","","","","","","","","","","",""
"","S2","","html-keyboard-response","34","134913","0.0-1.0-40.0","0","0","10465","","null","","","null","4","","NaN","","","","","","","","","","","","","",""
"","response","","html-keyboard-response","35","135349","0.0-1.0-41.0-0.0","0","0","10465","","435","","","75","4","","","1","4","training","adjacent","DE","4","5","M.jpg","L.jpg","1","1","1","",""
"","feedback","","html-keyboard-response","36","136352","0.0-1.0-42.0-0.0","0","0","10465","","null","","","null","4","","","","","","","","","","","","","","","",""
"","ITI","","html-keyboard-response","37","137355","0.0-1.0-45.0","0","0","10465","","null","","","null","4","","","","","","","","","","","","","","","NaN",""
"","S1","","html-keyboard-response","38","137507","0.0-1.0-47.0","0","0","10465","","null","","","null","5","","","","","","","","","","","","","","","",""
"","ISI","","html-keyboard-response","39","139511","0.0-1.0-48.0","0","0","10465","","null","","","null","5","NaN","","","","","","","","","","","","","","",""
"","S2","","html-keyboard-response","40","139663","0.0-1.0-49.0","0","0","10465","","null","","","null","5","","NaN","","","","","","","","","","","","","",""
"","response","","html-keyboard-response","41","140033","0.0-1.0-50.0-0.0","0","0","10465","","368","","","68","5","","","1","5","training","adjacent","FE","6","5","P.jpg","L.jpg","0","0","1","",""
"","feedback","","html-keyboard-response","42","141035","0.0-1.0-51.0-0.0","0","0","10465","","null","","","null","5","","","","","","","","","","","","","","","",""
"","ITI","","html-keyboard-response","43","142048","0.0-1.0-54.0","0","0","10465","","null","","","null","5","","","","","","","","","","","","","","","NaN",""
"","S1","","html-keyboard-response","44","142201","0.0-1.0-56.0","0","0","10465","","null","","","null","6","","","","","","","","","","","","","","","",""
"","ISI","","html-keyboard-response","45","144203","0.0-1.0-57.0","0","0","10465","","null","","","null","6","NaN","","","","","","","","","","","","","","",""
"","S2","","html-keyboard-response","46","144356","0.0-1.0-58.0","0","0","10465","","null","","","null","6","","NaN","","","","","","","","","","","","","",""
"","response","","html-keyboard-response","47","144631","0.0-1.0-59.0-0.0","0","0","10465","","274","","","75","6","","","1","6","training","adjacent","FE","6","5","P.jpg","L.jpg","1","0","0","",""
"","feedback","","html-keyboard-response","48","145633","0.0-1.0-60.0-0.0","0","0","10465","","null","","","null","6","","","","","","","","","","","","","","","",""
"","time_out","","html-keyboard-response","49","147635","0.0-1.0-62.0-0.0","0","0","10465","","null","","","null","6","","","","","","","","","","","","","","","",""
"","ITI","","html-keyboard-response","50","148638","0.0-1.0-63.0","0","0","10465","","null","","","null","6","","","","","","","","","","","","","","","NaN",""
"","S1","","html-keyboard-response","51","148791","0.0-1.0-65.0","0","0","10465","","null","","","null","7","","","","","","","","","","","","","","","",""
"","ISI","","html-keyboard-response","52","150793","0.0-1.0-66.0","0","0","10465","","null","","","null","7","NaN","","","","","","","","","","","","","","",""
"","S2","","html-keyboard-response","53","150946","0.0-1.0-67.0","0","0","10465","","null","","","null","7","","NaN","","","","","","","","","","","","","",""
"","response","","html-keyboard-response","54","151354","0.0-1.0-68.0-0.0","0","0","10465","","407","","","75","7","","","1","7","training","adjacent","BA","2","1","Q.jpg","O.jpg","1","0","0","",""
"","feedback","","html-keyboard-response","55","152357","0.0-1.0-69.0-0.0","0","0","10465","","null","","","null","7","","","","","","","","","","","","","","","",""
"","time_out","","html-keyboard-response","56","154359","0.0-1.0-71.0-0.0","0","0","10465","","null","","","null","7","","","","","","","","","","","","","","","",""
"","ITI","","html-keyboard-response","57","155361","0.0-1.0-72.0","0","0","10465","","null","","","null","7","","","","","","","","","","","","","","","NaN",""
"","S1","","html-keyboard-response","58","155514","0.0-1.0-74.0","0","0","10465","","null","","","null","8","","","","","","","","","","","","","","","",""
"","ISI","","html-keyboard-response","59","157516","0.0-1.0-75.0","0","0","10465","","null","","","null","8","NaN","","","","","","","","","","","","","","",""
"","S2","","html-keyboard-response","60","157670","0.0-1.0-76.0","0","0","10465","","null","","","null","8","","NaN","","","","","","","","","","","","","",""
"","response","","html-keyboard-response","61","158149","0.0-1.0-77.0-0.0","0","0","10465","","478","","","75","8","","","1","8","training","adjacent","CD","3","4","R.jpg","M.jpg","1","1","1","",""
"","feedback","","html-keyboard-response","62","159152","0.0-1.0-78.0-0.0","0","0","10465","","null","","","null","8","","","","","","","","","","","","","","","",""
"","ITI","","html-keyboard-response","63","160154","0.0-1.0-81.0","0","0","10465","","null","","","null","8","","","","","","","","","","","","","","","NaN",""
"","S1","","html-keyboard-response","64","160307","0.0-1.0-83.0","0","0","10465","","null","","","null","9","","","","","","","","","","","","","","","",""
"","ISI","","html-keyboard-response","65","162309","0.0-1.0-84.0","0","0","10465","","null","","","null","9","NaN","","","","","","","","","","","","","","",""
"","S2","","html-keyboard-response","66","162461","0.0-1.0-85.0","0","0","10465","","null","","","null","9","","NaN","","","","","","","","","","","","","",""
"","response","","html-keyboard-response","67","162918","0.0-1.0-86.0-0.0","0","0","10465","","456","","","68","9","","","1","9","training","adjacent","CB","3","2","R.jpg","Q.jpg","0","0","1","",""
"","feedback","","html-keyboard-response","68","163921","0.0-1.0-87.0-0.0","0","0","10465","","null","","","null","9","","","","","","","","","","","","","","","",""
"","ITI","","html-keyboard-response","69","164924","0.0-1.0-90.0","0","0","10465","","null","","","null","9","","","","","","","","","","","","","","","NaN",""
"","S1","","html-keyboard-response","70","165077","0.0-1.0-92.0","0","0","10465","","null","","","null","10","","","","","","","","","","","","","","","",""
"","ISI","","html-keyboard-response","71","167080","0.0-1.0-93.0","0","0","10465","","null","","","null","10","NaN","","","","","","","","","","","","","","",""
"","S2","","html-keyboard-response","72","167232","0.0-1.0-94.0","0","0","10465","","null","","","null","10","","NaN","","","","","","","","","","","","","",""
"","response","","html-keyboard-response","73","167664","0.0-1.0-95.0-0.0","0","0","10465","","429","","","68","10","","","1","10","training","adjacent","FE","6","5","P.jpg","L.jpg","0","0","1","",""
"","feedback","","html-keyboard-response","74","168666","0.0-1.0-96.0-0.0","0","0","10465","","null","","","null","10","","","","","","","","","","","","","","","",""
"","ITI","","html-keyboard-response","75","169669","0.0-1.0-99.0","0","0","10465","","null","","","null","10","","","","","","","","","","","","","","","NaN",""
"","S1","","html-keyboard-response","76","169822","0.0-1.0-101.0","0","0","10465","","null","","","null","11","","","","","","","","","","","","","","","",""
"","ISI","","html-keyboard-response","77","171824","0.0-1.0-102.0","0","0","10465","","null","","","null","11","NaN","","","","","","","","","","","","","","",""
"","S2","","html-keyboard-response","78","171976","0.0-1.0-103.0","0","0","10465","","null","","","null","11","","NaN","","","","","","","","","","","","","",""
"","response","","html-keyboard-response","79","172718","0.0-1.0-104.0-0.0","0","0","10465","","741","","","75","11","","","1","11","training","adjacent","ED","5","4","L.jpg","M.jpg","1","0","0","",""
"","feedback","","html-keyboard-response","80","173721","0.0-1.0-105.0-0.0","0","0","10465","","null","","","null","11","","","","","","","","","","","","","","","",""
"","time_out","","html-keyboard-response","81","175723","0.0-1.0-107.0-0.0","0","0","10465","","null","","","null","11","","","","","","","","","","","","","","","",""
"","ITI","","html-keyboard-response","82","176726","0.0-1.0-108.0","0","0","10465","","null","","","null","11","","","","","","","","","","","","","","","NaN",""
"","S1","","html-keyboard-response","83","176878","0.0-1.0-110.0","0","0","10465","","null","","","null","12","","","","","","","","","","","","","","","",""
"","ISI","","html-keyboard-response","84","178882","0.0-1.0-111.0","0","0","10465","","null","","","null","12","NaN","","","","","","","","","","","","","","",""
"","S2","","html-keyboard-response","85","179034","0.0-1.0-112.0","0","0","10465","","null","","","null","12","","NaN","","","","","","","","","","","","","",""
"","response","","html-keyboard-response","86","179657","0.0-1.0-113.0-0.0","0","0","10465","","622","","","75","12","","","1","12","training","adjacent","CD","3","4","R.jpg","M.jpg","1","1","1","",""
"","feedback","","html-keyboard-response","87","180659","0.0-1.0-114.0-0.0","0","0","10465","","null","","","null","12","","","","","","","","","","","","","","","",""
"","ITI","","html-keyboard-response","88","181662","0.0-1.0-117.0","0","0","10465","","null","","","null","12","","","","","","","","","","","","","","","NaN",""
"","S1","","html-keyboard-response","89","181815","0.0-1.0-119.0","0","0","10465","","null","","","null","13","","","","","","","","","","","","","","","",""
"","ISI","","html-keyboard-response","90","183817","0.0-1.0-120.0","0","0","10465","","null","","","null","13","NaN","","","","","","","","","","","","","","",""
"","S2","","html-keyboard-response","91","183970","0.0-1.0-121.0","0","0","10465","","null","","","null","13","","NaN","","","","","","","","","","","","","",""
"","response","","html-keyboard-response","92","184660","0.0-1.0-122.0-0.0","0","0","10465","","688","","","68","13","","","1","13","training","adjacent","DE","4","5","M.jpg","L.jpg","0","1","0","",""
"","feedback","","html-keyboard-response","93","185662","0.0-1.0-123.0-0.0","0","0","10465","","null","","","null","13","","","","","","","","","","","","","","","",""
"","time_out","","html-keyboard-response","94","187664","0.0-1.0-125.0-0.0","0","0","10465","","null","","","null","13","","","","","","","","","","","","","","","",""
"","ITI","","html-keyboard-response","95","188667","0.0-1.0-126.0","0","0","10465","","null","","","null","13","","","","","","","","","","","","","","","NaN",""
"","S1","","html-keyboard-response","96","188819","0.0-1.0-128.0","0","0","10465","","null","","","null","14","","","","","","","","","","","","","","","",""
"","ISI","","html-keyboard-response","97","190822","0.0-1.0-129.0","0","0","10465","","null","","","null","14","NaN","","","","","","","","","","","","","","",""
"","S2","","html-keyboard-response","98","190974","0.0-1.0-130.0","0","0","10465","","null","","","null","14","","NaN","","","","","","","","","","","","","",""
"","response","","html-keyboard-response","99","191504","0.0-1.0-131.0-0.0","0","0","10465","","528","","","68","14","","","1","14","training","adjacent","GF","7","6","N.jpg","P.jpg","0","0","1","",""
"","feedback","","html-keyboard-response","100","192506","0.0-1.0-132.0-0.0","0","0","10465","","null","","","null","14","","","","","","","","","","","","","","","",""
"","ITI","","html-keyboard-response","101","193509","0.0-1.0-135.0","0","0","10465","","null","","","null","14","","","","","","","","","","","","","","","NaN",""
"","S1","","html-keyboard-response","102","193661","0.0-1.0-137.0","0","0","10465","","null","","","null","15","","","","","","","","","","","","","","","",""
"","ISI","","html-keyboard-response","103","195663","0.0-1.0-138.0","0","0","10465","","null","","","null","15","NaN","","","","","","","","","","","","","","",""
"","S2","","html-keyboard-response","104","195815","0.0-1.0-139.0","0","0","10465","","null","","","null","15","","NaN","","","","","","","","","","","","","",""
"","response","","html-keyboard-response","105","196336","0.0-1.0-140.0-0.0","0","0","10465","","519","","","75","15","","","1","15","training","adjacent","ED","5","4","L.jpg","M.jpg","1","0","0","",""
"","feedback","","html-keyboard-response","106","197339","0.0-1.0-141.0-0.0","0","0","10465","","null","","","null","15","","","","","","","","","","","","","","","",""
"","time_out","","html-keyboard-response","107","199340","0.0-1.0-143.0-0.0","0","0","10465","","null","","","null","15","","","","","","","","","","","","","","","",""
"","ITI","","html-keyboard-response","108","200344","0.0-1.0-144.0","0","0","10465","","null","","","null","15","","","","","","","","","","","","","","","NaN",""
"","S1","","html-keyboard-response","109","200496","0.0-1.0-146.0","0","0","10465","","null","","","null","16","","","","","","","","","","","","","","","",""
"","ISI","","html-keyboard-response","110","202498","0.0-1.0-147.0","0","0","10465","","null","","","null","16","NaN","","","","","","","","","","","","","","",""
"","S2","","html-keyboard-response","111","202651","0.0-1.0-148.0","0","0","10465","","null","","","null","16","","NaN","","","","","","","","","","","","","",""
"","response","","html-keyboard-response","112","203027","0.0-1.0-149.0-0.0","0","0","10465","","375","","","75","16","","","1","16","training","adjacent","DC","4","3","M.jpg","R.jpg","1","0","0","",""
"","feedback","","html-keyboard-response","113","204030","0.0-1.0-150.0-0.0","0","0","10465","","null","","","null","16","","","","","","","","","","","","","","","",""
"","time_out","","html-keyboard-response","114","206032","0.0-1.0-152.0-0.0","0","0","10465","","null","","","null","16","","","","","","","","","","","","","","","",""
"","ITI","","html-keyboard-response","115","207035","0.0-1.0-153.0","0","0","10465","","null","","","null","16","","","","","","","","","","","","","","","NaN",""
"","S1","","html-keyboard-response","116","207187","0.0-1.0-155.0","0","0","10465","","null","","","null","17","","","","","","","","","","","","","","","",""
"","ISI","","html-keyboard-response","117","209189","0.0-1.0-156.0","0","0","10465","","null","","","null","17","NaN","","","","","","","","","","","","","","",""
"","S2","","html-keyboard-response","118","209342","0.0-1.0-157.0","0","0","10465","","null","","","null","17","","NaN","","","","","","","","","","","","","",""
"","response","","html-keyboard-response","119","210125","0.0-1.0-158.0-0.0","0","0","10465","","782","","","68","17","","","1","17","training","adjacent","EF","5","6","L.jpg","P.jpg","0","1","0","",""
"","feedback","","html-keyboard-response","120","211127","0.0-1.0-159.0-0.0","0","0","10465","","null","","","null","17","","","","","","","","","","","","","","","",""
"","time_out","","html-keyboard-response","121","213129","0.0-1.0-161.0-0.0","0","0","10465","","null","","","null","17","","","","","","","","","","","","","","","",""
"","ITI","","html-keyboard-response","122","214132","0.0-1.0-162.0","0","0","10465","","null","","","null","17","","","","","","","","","","","","","","","NaN",""
"","S1","","html-keyboard-response","123","214285","0.0-1.0-164.0","0","0","10465","","null","","","null","18","","","","","","","","","","","","","","","",""
"","ISI","","html-keyboard-response","124","216299","0.0-1.0-165.0","0","0","10465","","null","","","null","18","NaN","","","","","","","","","","","","","","",""
"","S2","","html-keyboard-response","125","216453","0.0-1.0-166.0","0","0","10465","","null","","","null","18","","NaN","","","","","","","","","","","","","",""
"","response","","html-keyboard-response","126","216550","0.0-1.0-167.0-0.0","0","0","10465","","96","","","68","18","","","1","18","training","adjacent","AB","1","2","O.jpg","Q.jpg","0","1","0","",""
"","feedback","","html-keyboard-response","127","217553","0.0-1.0-168.0-0.0","0","0","10465","","null","","","null","18","","","","","","","","","","","","","","","",""
"","time_out","","html-keyboard-response","128","219556","0.0-1.0-170.0-0.0","0","0","10465","","null","","","null","18","","","","","","","","","","","","","","","",""
"","ITI","","html-keyboard-response","129","220558","0.0-1.0-171.0","0","0","10465","","null","","","null","18","","","","","","","","","","","","","","","NaN",""
"","S1","","html-keyboard-response","130","220711","0.0-1.0-173.0","0","0","10465","","null","","","null","19","","","","","","","","","","","","","","","",""
"","ISI","","html-keyboard-response","131","222713","0.0-1.0-174.0","0","0","10465","","null","","","null","19","NaN","","","","","","","","","","","","","","",""
"","S2","","html-keyboard-response","132","222866","0.0-1.0-175.0","0","0","10465","","null","","","null","19","","NaN","","","","","","","","","","","","","",""
"","response","","html-keyboard-response","133","223858","0.0-1.0-176.0-0.0","0","0","10465","","991","","","75","19","","","1","19","training","adjacent","BC","2","3","Q.jpg","R.jpg","1","1","1","",""
"","feedback","","html-keyboard-response","134","224862","0.0-1.0-177.0-0.0","0","0","10465","","null","","","null","19","","","","","","","","","","","","","","","",""
"","ITI","","html-keyboard-response","135","225864","0.0-1.0-180.0","0","0","10465","","null","","","null","19","","","","","","","","","","","","","","","NaN",""
"","S1","","html-keyboard-response","136","226017","0.0-1.0-182.0","0","0","10465","","null","","","null","20","","","","","","","","","","","","","","","",""
"","ISI","","html-keyboard-response","137","228020","0.0-1.0-183.0","0","0","10465","","null","","","null","20","NaN","","","","","","","","","","","","","","",""
"","S2","","html-keyboard-response","138","228173","0.0-1.0-184.0","0","0","10465","","null","","","null","20","","NaN","","","","","","","","","","","","","",""
"","response","","html-keyboard-response","139","228622","0.0-1.0-185.0-0.0","0","0","10465","","448","","","75","20","","","1","20","training","adjacent","DE","4","5","M.jpg","L.jpg","1","1","1","",""
"","feedback","","html-keyboard-response","140","229639","0.0-1.0-186.0-0.0","0","0","10465","","null","","","null","20","","","","","","","","","","","","","","","",""
"","ITI","","html-keyboard-response","141","230641","0.0-1.0-189.0","0","0","10465","","null","","","null","20","","","","","","","","","","","","","","","NaN",""
"","S1","","html-keyboard-response","142","230794","0.0-1.0-191.0","0","0","10465","","null","","","null","21","","","","","","","","","","","","","","","",""
"","ISI","","html-keyboard-response","143","232797","0.0-1.0-192.0","0","0","10465","","null","","","null","21","NaN","","","","","","","","","","","","","","",""
"","S2","","html-keyboard-response","144","232963","0.0-1.0-193.0","0","0","10465","","null","","","null","21","","NaN","","","","","","","","","","","","","",""
"","response","","html-keyboard-response","145","233517","0.0-1.0-194.0-0.0","0","0","10465","","552","","","75","21","","","1","21","training","adjacent","BC","2","3","Q.jpg","R.jpg","1","1","1","",""
"","feedback","","html-keyboard-response","146","234519","0.0-1.0-195.0-0.0","0","0","10465","","null","","","null","21","","","","","","","","","","","","","","","",""
"","ITI","","html-keyboard-response","147","235522","0.0-1.0-198.0","0","0","10465","","null","","","null","21","","","","","","","","","","","","","","","NaN",""
"","S1","","html-keyboard-response","148","235675","0.0-1.0-200.0","0","0","10465","","null","","","null","22","","","","","","","","","","","","","","","",""
"","ISI","","html-keyboard-response","149","237677","0.0-1.0-201.0","0","0","10465","","null","","","null","22","NaN","","","","","","","","","","","","","","",""
"","S2","","html-keyboard-response","150","237830","0.0-1.0-202.0","0","0","10465","","null","","","null","22","","NaN","","","","","","","","","","","","","",""
"","response","","html-keyboard-response","151","238176","0.0-1.0-203.0-0.0","0","0","10465","","344","","","75","22","","","1","22","training","adjacent","ED","5","4","L.jpg","M.jpg","1","0","0","",""
"","feedback","","html-keyboard-response","152","239178","0.0-1.0-204.0-0.0","0","0","10465","","null","","","null","22","","","","","","","","","","","","","","","",""
"","time_out","","html-keyboard-response","153","241181","0.0-1.0-206.0-0.0","0","0","10465","","null","","","null","22","","","","","","","","","","","","","","","",""
"","ITI","","html-keyboard-response","154","242183","0.0-1.0-207.0","0","0","10465","","null","","","null","22","","","","","","","","","","","","","","","NaN",""
"","S1","","html-keyboard-response","155","242336","0.0-1.0-209.0","0","0","10465","","null","","","null","23","","","","","","","","","","","","","","","",""
"","ISI","","html-keyboard-response","156","244338","0.0-1.0-210.0","0","0","10465","","null","","","null","23","NaN","","","","","","","","","","","","","","",""
"","S2","","html-keyboard-response","157","244491","0.0-1.0-211.0","0","0","10465","","null","","","null","23","","NaN","","","","","","","","","","","","","",""
"","response","","html-keyboard-response","158","245199","0.0-1.0-212.0-0.0","0","0","10465","","707","","","75","23","","","1","23","training","adjacent","ED","5","4","L.jpg","M.jpg","1","0","0","",""
"","feedback","","html-keyboard-response","159","246202","0.0-1.0-213.0-0.0","0","0","10465","","null","","","null","23","","","","","","","","","","","","","","","",""
"","time_out","","html-keyboard-response","160","248204","0.0-1.0-215.0-0.0","0","0","10465","","null","","","null","23","","","","","","","","","","","","","","","",""
"","ITI","","html-keyboard-response","161","249207","0.0-1.0-216.0","0","0","10465","","null","","","null","23","","","","","","","","","","","","","","","NaN",""
"","S1","","html-keyboard-response","162","249359","0.0-1.0-218.0","0","0","10465","","null","","","null","24","","","","","","","","","","","","","","","",""
"","ISI","","html-keyboard-response","163","251361","0.0-1.0-219.0","0","0","10465","","null","","","null","24","NaN","","","","","","","","","","","","","","",""
"","S2","","html-keyboard-response","164","251526","0.0-1.0-220.0","0","0","10465","","null","","","null","24","","NaN","","","","","","","","","","","","","",""
"","response","","html-keyboard-response","165","252096","0.0-1.0-221.0-0.0","0","0","10465","","569","","","75","24","","","1","24","training","adjacent","AB","1","2","O.jpg","Q.jpg","1","1","1","",""
"","feedback","","html-keyboard-response","166","253099","0.0-1.0-222.0-0.0","0","0","10465","","null","","","null","24","","","","","","","","","","","","","","","",""
"","ITI","","html-keyboard-response","167","254100","0.0-1.0-225.0","0","0","10465","","null","","","null","24","","","","","","","","","","","","","","","NaN",""
"","S1","","html-keyboard-response","168","254254","0.0-1.0-227.0","0","0","10465","","null","","","null","25","","","","","","","","","","","","","","","",""
"","ISI","","html-keyboard-response","169","256260","0.0-1.0-228.0","0","0","10465","","null","","","null","25","NaN","","","","","","","","","","","","","","",""
"","S2","","html-keyboard-response","170","256412","0.0-1.0-229.0","0","0","10465","","null","","","null","25","","NaN","","","","","","","","","","","","","",""
"","response","","html-keyboard-response","171","256823","0.0-1.0-230.0-0.0","0","0","10465","","408","","","68","25","","","1","25","training","adjacent","GF","7","6","N.jpg","P.jpg","0","0","1","",""
"","feedback","","html-keyboard-response","172","257826","0.0-1.0-231.0-0.0","0","0","10465","","null","","","null","25","","","","","","","","","","","","","","","",""
"","ITI","","html-keyboard-response","173","258828","0.0-1.0-234.0","0","0","10465","","null","","","null","25","","","","","","","","","","","","","","","NaN",""
"","S1","","html-keyboard-response","174","258981","0.0-1.0-236.0","0","0","10465","","null","","","null","26","","","","","","","","","","","","","","","",""
"","ISI","","html-keyboard-response","175","260983","0.0-1.0-237.0","0","0","10465","","null","","","null","26","NaN","","","","","","","","","","","","","","",""
"","S2","","html-keyboard-response","176","261135","0.0-1.0-238.0","0","0","10465","","null","","","null","26","","NaN","","","","","","","","","","","","","",""
"","response","","html-keyboard-response","177","261599","0.0-1.0-239.0-0.0","0","0","10465","","462","","","75","26","","","1","26","training","adjacent","BA","2","1","Q.jpg","O.jpg","1","0","0","",""
"","feedback","","html-keyboard-response","178","262602","0.0-1.0-240.0-0.0","0","0","10465","","null","","","null","26","","","","","","","","","","","","","","","",""
"","time_out","","html-keyboard-response","179","264605","0.0-1.0-242.0-0.0","0","0","10465","","null","","","null","26","","","","","","","","","","","","","","","",""
"","ITI","","html-keyboard-response","180","265607","0.0-1.0-243.0","0","0","10465","","null","","","null","26","","","","","","","","","","","","","","","NaN",""
"","S1","","html-keyboard-response","181","265759","0.0-1.0-245.0","0","0","10465","","null","","","null","27","","","","","","","","","","","","","","","",""
"","ISI","","html-keyboard-response","182","267762","0.0-1.0-246.0","0","0","10465","","null","","","null","27","NaN","","","","","","","","","","","","","","",""
"","S2","","html-keyboard-response","183","267915","0.0-1.0-247.0","0","0","10465","","null","","","null","27","","NaN","","","","","","","","","","","","","",""
"","response","","html-keyboard-response","184","268664","0.0-1.0-248.0-0.0","0","0","10465","","748","","","68","27","","","1","27","training","adjacent","GF","7","6","N.jpg","P.jpg","0","0","1","",""
"","feedback","","html-keyboard-response","185","269666","0.0-1.0-249.0-0.0","0","0","10465","","null","","","null","27","","","","","","","","","","","","","","","",""
"","ITI","","html-keyboard-response","186","270669","0.0-1.0-252.0","0","0","10465","","null","","","null","27","","","","","","","","","","","","","","","NaN",""
"","S1","","html-keyboard-response","187","270822","0.0-1.0-254.0","0","0","10465","","null","","","null","28","","","","","","","","","","","","","","","",""
"","ISI","","html-keyboard-response","188","272824","0.0-1.0-255.0","0","0","10465","","null","","","null","28","NaN","","","","","","","","","","","","","","",""
"","S2","","html-keyboard-response","189","272976","0.0-1.0-256.0","0","0","10465","","null","","","null","28","","NaN","","","","","","","","","","","","","",""
"","response","","html-keyboard-response","190","273305","0.0-1.0-257.0-0.0","0","0","10465","","328","","","68","28","","","1","28","training","adjacent","FE","6","5","P.jpg","L.jpg","0","0","1","",""
"","feedback","","html-keyboard-response","191","274308","0.0-1.0-258.0-0.0","0","0","10465","","null","","","null","28","","","","","","","","","","","","","","","",""
"","ITI","","html-keyboard-response","192","275310","0.0-1.0-261.0","0","0","10465","","null","","","null","28","","","","","","","","","","","","","","","NaN",""
"","S1","","html-keyboard-response","193","275463","0.0-1.0-263.0","0","0","10465","","null","","","null","29","","","","","","","","","","","","","","","",""
"","ISI","","html-keyboard-response","194","277465","0.0-1.0-264.0","0","0","10465","","null","","","null","29","NaN","","","","","","","","","","","","","","",""
"","S2","","html-keyboard-response","195","277617","0.0-1.0-265.0","0","0","10465","","null","","","null","29","","NaN","","","","","","","","","","","","","",""
"","response","","html-keyboard-response","196","277896","0.0-1.0-266.0-0.0","0","0","10465","","278","","","68","29","","","1","29","training","adjacent","FG","6","7","P.jpg","N.jpg","0","1","0","",""
"","feedback","","html-keyboard-response","197","278899","0.0-1.0-267.0-0.0","0","0","10465","","null","","","null","29","","","","","","","","","","","","","","","",""
"","time_out","","html-keyboard-response","198","280901","0.0-1.0-269.0-0.0","0","0","10465","","null","","","null","29","","","","","","","","","","","","","","","",""
"","ITI","","html-keyboard-response","199","281904","0.0-1.0-270.0","0","0","10465","","null","","","null","29","","","","","","","","","","","","","","","NaN",""
"","S1","","html-keyboard-response","200","282057","0.0-1.0-272.0","0","0","10465","","null","","","null","30","","","","","","","","","","","","","","","",""
"","ISI","","html-keyboard-response","201","284060","0.0-1.0-273.0","0","0","10465","","null","","","null","30","NaN","","","","","","","","","","","","","","",""
"","S2","","html-keyboard-response","202","284212","0.0-1.0-274.0","0","0","10465","","null","","","null","30","","NaN","","","","","","","","","","","","","",""
"","response","","html-keyboard-response","203","284907","0.0-1.0-275.0-0.0","0","0","10465","","693","","","75","30","","","1","30","training","adjacent","EF","5","6","L.jpg","P.jpg","1","1","1","",""
"","feedback","","html-keyboard-response","204","285910","0.0-1.0-276.0-0.0","0","0","10465","","null","","","null","30","","","","","","","","","","","","","","","",""
"","ITI","","html-keyboard-response","205","286913","0.0-1.0-279.0","0","0","10465","","451","","","68","30","","","","","","","","","","","","","","","d",""
"","S1","","html-keyboard-response","206","287065","0.0-1.0-281.0","0","0","10465","","null","","","null","31","","","","","","","","","","","","","","","",""
"","ISI","","html-keyboard-response","207","289068","0.0-1.0-282.0","0","0","10465","","null","","","null","31","NaN","","","","","","","","","","","","","","",""
"","S2","","html-keyboard-response","208","289221","0.0-1.0-283.0","0","0","10465","","null","","","null","31","","NaN","","","","","","","","","","","","","",""
"","response","","html-keyboard-response","209","289670","0.0-1.0-284.0-0.0","0","0","10465","","447","","","75","31","","","1","31","training","adjacent","GF","7","6","N.jpg","P.jpg","1","0","0","",""
"","feedback","","html-keyboard-response","210","290672","0.0-1.0-285.0-0.0","0","0","10465","","null","","","null","31","","","","","","","","","","","","","","","",""
"","time_out","","html-keyboard-response","211","292674","0.0-1.0-287.0-0.0","0","0","10465","","null","","","null","31","","","","","","","","","","","","","","","",""
"","ITI","","html-keyboard-response","212","293676","0.0-1.0-288.0","0","0","10465","","null","","","null","31","","","","","","","","","","","","","","","NaN",""
"","S1","","html-keyboard-response","213","293829","0.0-1.0-290.0","0","0","10465","","null","","","null","32","","","","","","","","","","","","","","","",""
"","ISI","","html-keyboard-response","214","295831","0.0-1.0-291.0","0","0","10465","","null","","","null","32","NaN","","","","","","","","","","","","","","",""
"","S2","","html-keyboard-response","215","295984","0.0-1.0-292.0","0","0","10465","","null","","","null","32","","NaN","","","","","","","","","","","","","",""
"","response","","html-keyboard-response","216","296710","0.0-1.0-293.0-0.0","0","0","10465","","724","","","75","32","","","1","32","training","adjacent","DC","4","3","M.jpg","R.jpg","1","0","0","",""
"","feedback","","html-keyboard-response","217","297712","0.0-1.0-294.0-0.0","0","0","10465","","null","","","null","32","","","","","","","","","","","","","","","",""
"","time_out","","html-keyboard-response","218","299714","0.0-1.0-296.0-0.0","0","0","10465","","null","","","null","32","","","","","","","","","","","","","","","",""
"","ITI","","html-keyboard-response","219","300716","0.0-1.0-297.0","0","0","10465","","null","","","null","32","","","","","","","","","","","","","","","NaN",""
"","S1","","html-keyboard-response","220","300868","0.0-1.0-299.0","0","0","10465","","null","","","null","33","","","","","","","","","","","","","","","",""
"","ISI","","html-keyboard-response","221","302872","0.0-1.0-300.0","0","0","10465","","null","","","null","33","NaN","","","","","","","","","","","","","","",""
"","S2","","html-keyboard-response","222","303024","0.0-1.0-301.0","0","0","10465","","null","","","null","33","","NaN","","","","","","","","","","","","","",""
"","response","","html-keyboard-response","223","304729","0.0-1.0-302.0-0.0","0","0","10465","","1704","","","68","33","","","1","33","training","adjacent","BA","2","1","Q.jpg","O.jpg","0","0","1","",""
"","feedback","","html-keyboard-response","224","305732","0.0-1.0-303.0-0.0","0","0","10465","","null","","","null","33","","","","","","","","","","","","","","","",""
"","ITI","","html-keyboard-response","225","306735","0.0-1.0-306.0","0","0","10465","","null","","","null","33","","","","","","","","","","","","","","","NaN",""
"","S1","","html-keyboard-response","226","306887","0.0-1.0-308.0","0","0","10465","","null","","","null","34","","","","","","","","","","","","","","","",""
"","ISI","","html-keyboard-response","227","308889","0.0-1.0-309.0","0","0","10465","","null","","","null","34","NaN","","","","","","","","","","","","","","",""
"","S2","","html-keyboard-response","228","309042","0.0-1.0-310.0","0","0","10465","","null","","","null","34","","NaN","","","","","","","","","","","","","",""
"","response","","html-keyboard-response","229","310224","0.0-1.0-311.0-0.0","0","0","10465","","1181","","","68","34","","","1","34","training","adjacent","DC","4","3","M.jpg","R.jpg","0","0","1","",""
"","feedback","","html-keyboard-response","230","311227","0.0-1.0-312.0-0.0","0","0","10465","","null","","","null","34","","","","","","","","","","","","","","","",""
"","ITI","","html-keyboard-response","231","312228","0.0-1.0-315.0","0","0","10465","","null","","","null","34","","","","","","","","","","","","","","","NaN",""
"","S1","","html-keyboard-response","232","312381","0.0-1.0-317.0","0","0","10465","","null","","","null","35","","","","","","","","","","","","","","","",""
"","ISI","","html-keyboard-response","233","314383","0.0-1.0-318.0","0","0","10465","","null","","","null","35","NaN","","","","","","","","","","","","","","",""
"","S2","","html-keyboard-response","234","314536","0.0-1.0-319.0","0","0","10465","","null","","","null","35","","NaN","","","","","","","","","","","","","",""
"","response","","html-keyboard-response","235","314882","0.0-1.0-320.0-0.0","0","0","10465","","345","","","75","35","","","1","35","training","adjacent","FG","6","7","P.jpg","N.jpg","1","1","1","",""
"","feedback","","html-keyboard-response","236","315885","0.0-1.0-321.0-0.0","0","0","10465","","null","","","null","35","","","","","","","","","","","","","","","",""
"","ITI","","html-keyboard-response","237","316887","0.0-1.0-324.0","0","0","10465","","null","","","null","35","","","","","","","","","","","","","","","NaN",""
"","S1","","html-keyboard-response","238","317041","0.0-1.0-326.0","0","0","10465","","null","","","null","36","","","","","","","","","","","","","","","",""
"","ISI","","html-keyboard-response","239","319044","0.0-1.0-327.0","0","0","10465","","null","","","null","36","NaN","","","","","","","","","","","","","","",""
"","S2","","html-keyboard-response","240","319196","0.0-1.0-328.0","0","0","10465","","null","","","null","36","","NaN","","","","","","","","","","","","","",""
"","response","","html-keyboard-response","241","319937","0.0-1.0-329.0-0.0","0","0","10465","","740","","","68","36","","","1","36","training","adjacent","EF","5","6","L.jpg","P.jpg","0","1","0","",""
"","feedback","","html-keyboard-response","242","320939","0.0-1.0-330.0-0.0","0","0","10465","","null","","","null","36","","","","","","","","","","","","","","","",""
"","time_out","","html-keyboard-response","243","322941","0.0-1.0-332.0-0.0","0","0","10465","","null","","","null","36","","","","","","","","","","","","","","","",""
"","ITI","","html-keyboard-response","244","323944","0.0-1.0-333.0","0","0","10465","","null","","","null","36","","","","","","","","","","","","","","","NaN",""
"","S1","","html-keyboard-response","245","324096","0.0-1.0-335.0","0","0","10465","","null","","","null","37","","","","","","","","","","","","","","","",""
"","ISI","","html-keyboard-response","246","326098","0.0-1.0-336.0","0","0","10465","","null","","","null","37","NaN","","","","","","","","","","","","","","",""
"","S2","","html-keyboard-response","247","326250","0.0-1.0-337.0","0","0","10465","","null","","","null","37","","NaN","","","","","","","","","","","","","",""
"","response","","html-keyboard-response","248","326697","0.0-1.0-338.0-0.0","0","0","10465","","446","","","75","37","","","1","37","training","adjacent","FG","6","7","P.jpg","N.jpg","1","1","1","",""
"","feedback","","html-keyboard-response","249","327700","0.0-1.0-339.0-0.0","0","0","10465","","null","","","null","37","","","","","","","","","","","","","","","",""
"","ITI","","html-keyboard-response","250","328703","0.0-1.0-342.0","0","0","10465","","null","","","null","37","","","","","","","","","","","","","","","NaN",""
"","S1","","html-keyboard-response","251","328855","0.0-1.0-344.0","0","0","10465","","null","","","null","38","","","","","","","","","","","","","","","",""
"","ISI","","html-keyboard-response","252","330857","0.0-1.0-345.0","0","0","10465","","null","","","null","38","NaN","","","","","","","","","","","","","","",""
"","S2","","html-keyboard-response","253","331010","0.0-1.0-346.0","0","0","10465","","null","","","null","38","","NaN","","","","","","","","","","","","","",""
"","response","","html-keyboard-response","254","331447","0.0-1.0-347.0-0.0","0","0","10465","","436","","","75","38","","","1","38","training","adjacent","AB","1","2","O.jpg","Q.jpg","1","1","1","",""
"","feedback","","html-keyboard-response","255","332450","0.0-1.0-348.0-0.0","0","0","10465","","null","","","null","38","","","","","","","","","","","","","","","",""
"","ITI","","html-keyboard-response","256","333453","0.0-1.0-351.0","0","0","10465","","null","","","null","38","","","","","","","","","","","","","","","NaN",""
"","S1","","html-keyboard-response","257","333607","0.0-1.0-353.0","0","0","10465","","null","","","null","39","","","","","","","","","","","","","","","",""
"","ISI","","html-keyboard-response","258","335609","0.0-1.0-354.0","0","0","10465","","null","","","null","39","NaN","","","","","","","","","","","","","","",""
"","S2","","html-keyboard-response","259","335761","0.0-1.0-355.0","0","0","10465","","null","","","null","39","","NaN","","","","","","","","","","","","","",""
"","response","","html-keyboard-response","260","336271","0.0-1.0-356.0-0.0","0","0","10465","","508","","","75","39","","","1","39","training","adjacent","FG","6","7","P.jpg","N.jpg","1","1","1","",""
"","feedback","","html-keyboard-response","261","337280","0.0-1.0-357.0-0.0","0","0","10465","","null","","","null","39","","","","","","","","","","","","","","","",""
"","ITI","","html-keyboard-response","262","338282","0.0-1.0-360.0","0","0","10465","","null","","","null","39","","","","","","","","","","","","","","","NaN",""
"","S1","","html-keyboard-response","263","338441","0.0-1.0-362.0","0","0","10465","","null","","","null","40","","","","","","","","","","","","","","","",""
"","ISI","","html-keyboard-response","264","340444","0.0-1.0-363.0","0","0","10465","","null","","","null","40","NaN","","","","","","","","","","","","","","",""
"","S2","","html-keyboard-response","265","340596","0.0-1.0-364.0","0","0","10465","","null","","","null","40","","NaN","","","","","","","","","","","","","",""
"","response","","html-keyboard-response","266","341929","0.0-1.0-365.0-0.0","0","0","10465","","1331","","","75","40","","","1","40","training","adjacent","CB","3","2","R.jpg","Q.jpg","1","0","0","",""
"","feedback","","html-keyboard-response","267","342932","0.0-1.0-366.0-0.0","0","0","10465","","null","","","null","40","","","","","","","","","","","","","","","",""
"","time_out","","html-keyboard-response","268","344934","0.0-1.0-368.0-0.0","0","0","10465","","null","","","null","40","","","","","","","","","","","","","","","",""
"","ITI","","html-keyboard-response","269","345935","0.0-1.0-369.0","0","0","10465","","null","","","null","40","","","","","","","","","","","","","","","NaN",""
"","S1","","html-keyboard-response","270","346088","0.0-1.0-371.0","0","0","10465","","null","","","null","41","","","","","","","","","","","","","","","",""
"","ISI","","html-keyboard-response","271","348090","0.0-1.0-372.0","0","0","10465","","null","","","null","41","NaN","","","","","","","","","","","","","","",""
"","S2","","html-keyboard-response","272","348242","0.0-1.0-373.0","0","0","10465","","null","","","null","41","","NaN","","","","","","","","","","","","","",""
"","response","","html-keyboard-response","273","348613","0.0-1.0-374.0-0.0","0","0","10465","","369","","","75","41","","","1","41","training","adjacent","BC","2","3","Q.jpg","R.jpg","1","1","1","",""
"","feedback","","html-keyboard-response","274","349615","0.0-1.0-375.0-0.0","0","0","10465","","null","","","null","41","","","","","","","","","","","","","","","",""
"","ITI","","html-keyboard-response","275","350617","0.0-1.0-378.0","0","0","10465","","null","","","null","41","","","","","","","","","","","","","","","NaN",""
"","S1","","html-keyboard-response","276","350770","0.0-1.0-380.0","0","0","10465","","null","","","null","42","","","","","","","","","","","","","","","",""
"","ISI","","html-keyboard-response","277","352773","0.0-1.0-381.0","0","0","10465","","null","","","null","42","NaN","","","","","","","","","","","","","","",""
"","S2","","html-keyboard-response","278","352925","0.0-1.0-382.0","0","0","10465","","null","","","null","42","","NaN","","","","","","","","","","","","","",""
"","response","","html-keyboard-response","279","353728","0.0-1.0-383.0-0.0","0","0","10465","","801","","","68","42","","","1","42","training","adjacent","CB","3","2","R.jpg","Q.jpg","0","0","1","",""
"","feedback","","html-keyboard-response","280","354732","0.0-1.0-384.0-0.0","0","0","10465","","null","","","null","42","","","","","","","","","","","","","","","",""
"","ITI","","html-keyboard-response","281","355734","0.0-1.0-387.0","0","0","10465","","null","","","null","42","","","","","","","","","","","","","","","NaN",""
"","S1","","html-keyboard-response","282","355887","0.0-1.0-389.0","0","0","10465","","null","","","null","43","","","","","","","","","","","","","","","",""
"","ISI","","html-keyboard-response","283","357890","0.0-1.0-390.0","0","0","10465","","null","","","null","43","NaN","","","","","","","","","","","","","","",""
"","S2","","html-keyboard-response","284","358042","0.0-1.0-391.0","0","0","10465","","null","","","null","43","","NaN","","","","","","","","","","","","","",""
"","response","","html-keyboard-response","285","359200","0.0-1.0-392.0-0.0","0","0","10465","","1156","","","68","43","","","1","43","training","adjacent","DE","4","5","M.jpg","L.jpg","0","1","0","",""
"","feedback","","html-keyboard-response","286","360202","0.0-1.0-393.0-0.0","0","0","10465","","null","","","null","43","","","","","","","","","","","","","","","",""
"","time_out","","html-keyboard-response","287","362205","0.0-1.0-395.0-0.0","0","0","10465","","null","","","null","43","","","","","","","","","","","","","","","",""
"","ITI","","html-keyboard-response","288","363208","0.0-1.0-396.0","0","0","10465","","null","","","null","43","","","","","","","","","","","","","","","NaN",""
"","S1","","html-keyboard-response","289","363360","0.0-1.0-398.0","0","0","10465","","null","","","null","44","","","","","","","","","","","","","","","",""
"","ISI","","html-keyboard-response","290","365362","0.0-1.0-399.0","0","0","10465","","null","","","null","44","NaN","","","","","","","","","","","","","","",""
"","S2","","html-keyboard-response","291","365514","0.0-1.0-400.0","0","0","10465","","null","","","null","44","","NaN","","","","","","","","","","","","","",""
"","response","","html-keyboard-response","292","365901","0.0-1.0-401.0-0.0","0","0","10465","","384","","","75","44","","","1","44","training","adjacent","BC","2","3","Q.jpg","R.jpg","1","1","1","",""
"","feedback","","html-keyboard-response","293","366904","0.0-1.0-402.0-0.0","0","0","10465","","null","","","null","44","","","","","","","","","","","","","","","",""
"","ITI","","html-keyboard-response","294","367906","0.0-1.0-405.0","0","0","10465","","null","","","null","44","","","","","","","","","","","","","","","NaN",""
"","S1","","html-keyboard-response","295","368059","0.0-1.0-407.0","0","0","10465","","null","","","null","45","","","","","","","","","","","","","","","",""
"","ISI","","html-keyboard-response","296","370062","0.0-1.0-408.0","0","0","10465","","null","","","null","45","NaN","","","","","","","","","","","","","","",""
"","S2","","html-keyboard-response","297","370229","0.0-1.0-409.0","0","0","10465","","null","","","null","45","","NaN","","","","","","","","","","","","","",""
"","response","","html-keyboard-response","298","370811","0.0-1.0-410.0-0.0","0","0","10465","","581","","","75","45","","","1","45","training","adjacent","DC","4","3","M.jpg","R.jpg","1","0","0","",""
"","feedback","","html-keyboard-response","299","371815","0.0-1.0-411.0-0.0","0","0","10465","","null","","","null","45","","","","","","","","","","","","","","","",""
"","time_out","","html-keyboard-response","300","373817","0.0-1.0-413.0-0.0","0","0","10465","","null","","","null","45","","","","","","","","","","","","","","","",""
"","ITI","","html-keyboard-response","301","374820","0.0-1.0-414.0","0","0","10465","","null","","","null","45","","","","","","","","","","","","","","","NaN",""
"","S1","","html-keyboard-response","302","374973","0.0-1.0-416.0","0","0","10465","","null","","","null","46","","","","","","","","","","","","","","","",""
"","ISI","","html-keyboard-response","303","376975","0.0-1.0-417.0","0","0","10465","","null","","","null","46","NaN","","","","","","","","","","","","","","",""
"","S2","","html-keyboard-response","304","377127","0.0-1.0-418.0","0","0","10465","","null","","","null","46","","NaN","","","","","","","","","","","","","",""
"","response","","html-keyboard-response","305","377617","0.0-1.0-419.0-0.0","0","0","10465","","488","","","68","46","","","1","46","training","adjacent","EF","5","6","L.jpg","P.jpg","0","1","0","",""
"","feedback","","html-keyboard-response","306","378620","0.0-1.0-420.0-0.0","0","0","10465","","null","","","null","46","","","","","","","","","","","","","","","",""
"","time_out","","html-keyboard-response","307","380623","0.0-1.0-422.0-0.0","0","0","10465","","null","","","null","46","","","","","","","","","","","","","","","",""
"","ITI","","html-keyboard-response","308","381626","0.0-1.0-423.0","0","0","10465","","null","","","null","46","","","","","","","","","","","","","","","NaN",""
"","S1","","html-keyboard-response","309","381778","0.0-1.0-425.0","0","0","10465","","null","","","null","47","","","","","","","","","","","","","","","",""
"","ISI","","html-keyboard-response","310","383781","0.0-1.0-426.0","0","0","10465","","null","","","null","47","NaN","","","","","","","","","","","","","","",""
"","S2","","html-keyboard-response","311","383933","0.0-1.0-427.0","0","0","10465","","null","","","null","47","","NaN","","","","","","","","","","","","","",""
"","response","","html-keyboard-response","312","384625","0.0-1.0-428.0-0.0","0","0","10465","","691","","","68","47","","","1","47","training","adjacent","BA","2","1","Q.jpg","O.jpg","0","0","1","",""
"","feedback","","html-keyboard-response","313","385628","0.0-1.0-429.0-0.0","0","0","10465","","null","","","null","47","","","","","","","","","","","","","","","",""
"","ITI","","html-keyboard-response","314","386630","0.0-1.0-432.0","0","0","10465","","null","","","null","47","","","","","","","","","","","","","","","NaN",""
"","block_over","","html-keyboard-response","315","403149","0.0-1.0-433.0-0.0","0","0","10465","","16517","","","32","47","","","","","","","","","","","","","","","",""
"","S1","","html-keyboard-response","316","403302","0.0-1.0-434.0","0","0","10465","","null","","","null","48","","","","","","","","","","","","","","","",""
"","ISI","","html-keyboard-response","317","405304","0.0-1.0-435.0","0","0","10465","","null","","","null","48","NaN","","","","","","","","","","","","","","",""
"","S2","","html-keyboard-response","318","405456","0.0-1.0-436.0","0","0","10465","","null","","","null","48","","NaN","","","","","","","","","","","","","",""
"","response","","html-keyboard-response","319","406325","0.0-1.0-437.0-0.0","0","0","10465","","868","","","75","48","","","2","48","training","adjacent","FG","6","7","P.jpg","N.jpg","1","1","1","",""
"","feedback","","html-keyboard-response","320","407328","0.0-1.0-438.0-0.0","0","0","10465","","null","","","null","48","","","","","","","","","","","","","","","",""
"","ITI","","html-keyboard-response","321","408331","0.0-1.0-441.0","0","0","10465","","null","","","null","48","","","","","","","","","","","","","","","NaN",""
"","S1","","html-keyboard-response","322","408484","0.0-1.0-443.0","0","0","10465","","null","","","null","49","","","","","","","","","","","","","","","",""
"","ISI","","html-keyboard-response","323","410486","0.0-1.0-444.0","0","0","10465","","null","","","null","49","NaN","","","","","","","","","","","","","","",""
"","S2","","html-keyboard-response","324","410639","0.0-1.0-445.0","0","0","10465","","null","","","null","49","","NaN","","","","","","","","","","","","","",""
"","response","","html-keyboard-response","325","411091","0.0-1.0-446.0-0.0","0","0","10465","","451","","","75","49","","","2","49","training","adjacent","BC","2","3","Q.jpg","R.jpg","1","1","1","",""
"","feedback","","html-keyboard-response","326","412093","0.0-1.0-447.0-0.0","0","0","10465","","null","","","null","49","","","","","","","","","","","","","","","",""
"","ITI","","html-keyboard-response","327","413096","0.0-1.0-450.0","0","0","10465","","null","","","null","49","","","","","","","","","","","","","","","NaN",""
"","S1","","html-keyboard-response","328","413249","0.0-1.0-452.0","0","0","10465","","null","","","null","50","","","","","","","","","","","","","","","",""
"","ISI","","html-keyboard-response","329","415253","0.0-1.0-453.0","0","0","10465","","null","","","null","50","NaN","","","","","","","","","","","","","","",""
"","S2","","html-keyboard-response","330","415406","0.0-1.0-454.0","0","0","10465","","null","","","null","50","","NaN","","","","","","","","","","","","","",""
"","response","","html-keyboard-response","331","415806","0.0-1.0-455.0-0.0","0","0","10465","","399","","","68","50","","","2","50","training","adjacent","GF","7","6","N.jpg","P.jpg","0","0","1","",""
"","feedback","","html-keyboard-response","332","416810","0.0-1.0-456.0-0.0","0","0","10465","","null","","","null","50","","","","","","","","","","","","","","","",""
"","ITI","","html-keyboard-response","333","417812","0.0-1.0-459.0","0","0","10465","","null","","","null","50","","","","","","","","","","","","","","","NaN",""
"","S1","","html-keyboard-response","334","417965","0.0-1.0-461.0","0","0","10465","","null","","","null","51","","","","","","","","","","","","","","","",""
"","ISI","","html-keyboard-response","335","419968","0.0-1.0-462.0","0","0","10465","","null","","","null","51","NaN","","","","","","","","","","","","","","",""
"","S2","","html-keyboard-response","336","420120","0.0-1.0-463.0","0","0","10465","","null","","","null","51","","NaN","","","","","","","","","","","","","",""
"","response","","html-keyboard-response","337","420654","0.0-1.0-464.0-0.0","0","0","10465","","532","","","68","51","","","2","51","training","adjacent","DE","4","5","M.jpg","L.jpg","0","1","0","",""
"","feedback","","html-keyboard-response","338","421656","0.0-1.0-465.0-0.0","0","0","10465","","null","","","null","51","","","","","","","","","","","","","","","",""
"","time_out","","html-keyboard-response","339","423659","0.0-1.0-467.0-0.0","0","0","10465","","null","","","null","51","","","","","","","","","","","","","","","",""
"","ITI","","html-keyboard-response","340","424661","0.0-1.0-468.0","0","0","10465","","null","","","null","51","","","","","","","","","","","","","","","NaN",""
"","S1","","html-keyboard-response","341","424813","0.0-1.0-470.0","0","0","10465","","null","","","null","52","","","","","","","","","","","","","","","",""
"","ISI","","html-keyboard-response","342","426829","0.0-1.0-471.0","0","0","10465","","null","","","null","52","NaN","","","","","","","","","","","","","","",""
"","S2","","html-keyboard-response","343","426982","0.0-1.0-472.0","0","0","10465","","null","","","null","52","","NaN","","","","","","","","","","","","","",""
"","response","","html-keyboard-response","344","427459","0.0-1.0-473.0-0.0","0","0","10465","","475","","","75","52","","","2","52","training","adjacent","FG","6","7","P.jpg","N.jpg","1","1","1","",""
"","feedback","","html-keyboard-response","345","428461","0.0-1.0-474.0-0.0","0","0","10465","","null","","","null","52","","","","","","","","","","","","","","","",""
"","ITI","","html-keyboard-response","346","429463","0.0-1.0-477.0","0","0","10465","","null","","","null","52","","","","","","","","","","","","","","","NaN",""
"","S1","","html-keyboard-response","347","429616","0.0-1.0-479.0","0","0","10465","","null","","","null","53","","","","","","","","","","","","","","","",""
"","ISI","","html-keyboard-response","348","431619","0.0-1.0-480.0","0","0","10465","","null","","","null","53","NaN","","","","","","","","","","","","","","",""
"","S2","","html-keyboard-response","349","431771","0.0-1.0-481.0","0","0","10465","","null","","","null","53","","NaN","","","","","","","","","","","","","",""
"","response","","html-keyboard-response","350","432420","0.0-1.0-482.0-0.0","0","0","10465","","647","","","75","53","","","2","53","training","adjacent","DC","4","3","M.jpg","R.jpg","1","0","0","",""
"","feedback","","html-keyboard-response","351","433433","0.0-1.0-483.0-0.0","0","0","10465","","null","","","null","53","","","","","","","","","","","","","","","",""
"","time_out","","html-keyboard-response","352","435436","0.0-1.0-485.0-0.0","0","0","10465","","null","","","null","53","","","","","","","","","","","","","","","",""
"","ITI","","html-keyboard-response","353","436438","0.0-1.0-486.0","0","0","10465","","null","","","null","53","","","","","","","","","","","","","","","NaN",""
"","S1","","html-keyboard-response","354","436591","0.0-1.0-488.0","0","0","10465","","null","","","null","54","","","","","","","","","","","","","","","",""
"","ISI","","html-keyboard-response","355","438592","0.0-1.0-489.0","0","0","10465","","null","","","null","54","NaN","","","","","","","","","","","","","","",""
"","S2","","html-keyboard-response","356","438744","0.0-1.0-490.0","0","0","10465","","null","","","null","54","","NaN","","","","","","","","","","","","","",""
"","response","","html-keyboard-response","357","439175","0.0-1.0-491.0-0.0","0","0","10465","","429","","","75","54","","","2","54","training","adjacent","AB","1","2","O.jpg","Q.jpg","1","1","1","",""
"","feedback","","html-keyboard-response","358","440177","0.0-1.0-492.0-0.0","0","0","10465","","null","","","null","54","","","","","","","","","","","","","","","",""
"","ITI","","html-keyboard-response","359","441181","0.0-1.0-495.0","0","0","10465","","null","","","null","54","","","","","","","","","","","","","","","NaN",""
"","S1","","html-keyboard-response","360","441344","0.0-1.0-497.0","0","0","10465","","null","","","null","55","","","","","","","","","","","","","","","",""
"","ISI","","html-keyboard-response","361","443347","0.0-1.0-498.0","0","0","10465","","null","","","null","55","NaN","","","","","","","","","","","","","","",""
"","S2","","html-keyboard-response","362","443500","0.0-1.0-499.0","0","0","10465","","null","","","null","55","","NaN","","","","","","","","","","","","","",""
"","response","","html-keyboard-response","363","444097","0.0-1.0-500.0-0.0","0","0","10465","","596","","","68","55","","","2","55","training","adjacent","EF","5","6","L.jpg","P.jpg","0","1","0","",""
"","feedback","","html-keyboard-response","364","445100","0.0-1.0-501.0-0.0","0","0","10465","","null","","","null","55","","","","","","","","","","","","","","","",""
"","time_out","","html-keyboard-response","365","447102","0.0-1.0-503.0-0.0","0","0","10465","","null","","","null","55","","","","","","","","","","","","","","","",""
"","ITI","","html-keyboard-response","366","448105","0.0-1.0-504.0","0","0","10465","","null","","","null","55","","","","","","","","","","","","","","","NaN",""
"","S1","","html-keyboard-response","367","448257","0.0-1.0-506.0","0","0","10465","","null","","","null","56","","","","","","","","","","","","","","","",""
"","ISI","","html-keyboard-response","368","450270","0.0-1.0-507.0","0","0","10465","","null","","","null","56","NaN","","","","","","","","","","","","","","",""
"","S2","","html-keyboard-response","369","450422","0.0-1.0-508.0","0","0","10465","","null","","","null","56","","NaN","","","","","","","","","","","","","",""
"","response","","html-keyboard-response","370","451363","0.0-1.0-509.0-0.0","0","0","10465","","939","","","68","56","","","2","56","training","adjacent","CB","3","2","R.jpg","Q.jpg","0","0","1","",""
"","feedback","","html-keyboard-response","371","452365","0.0-1.0-510.0-0.0","0","0","10465","","null","","","null","56","","","","","","","","","","","","","","","",""
"","ITI","","html-keyboard-response","372","453368","0.0-1.0-513.0","0","0","10465","","null","","","null","56","","","","","","","","","","","","","","","NaN",""
"","S1","","html-keyboard-response","373","453521","0.0-1.0-515.0","0","0","10465","","null","","","null","57","","","","","","","","","","","","","","","",""
"","ISI","","html-keyboard-response","374","455524","0.0-1.0-516.0","0","0","10465","","null","","","null","57","NaN","","","","","","","","","","","","","","",""
"","S2","","html-keyboard-response","375","455676","0.0-1.0-517.0","0","0","10465","","null","","","null","57","","NaN","","","","","","","","","","","","","",""
"","response","","html-keyboard-response","376","455993","0.0-1.0-518.0-0.0","0","0","10465","","316","","","68","57","","","2","57","training","adjacent","GF","7","6","N.jpg","P.jpg","0","0","1","",""
"","feedback","","html-keyboard-response","377","456995","0.0-1.0-519.0-0.0","0","0","10465","","null","","","null","57","","","","","","","","","","","","","","","",""
"","ITI","","html-keyboard-response","378","457998","0.0-1.0-522.0","0","0","10465","","null","","","null","57","","","","","","","","","","","","","","","NaN",""
"","S1","","html-keyboard-response","379","458151","0.0-1.0-524.0","0","0","10465","","null","","","null","58","","","","","","","","","","","","","","","",""
"","ISI","","html-keyboard-response","380","460153","0.0-1.0-525.0","0","0","10465","","null","","","null","58","NaN","","","","","","","","","","","","","","",""
"","S2","","html-keyboard-response","381","460306","0.0-1.0-526.0","0","0","10465","","null","","","null","58","","NaN","","","","","","","","","","","","","",""
"","response","","html-keyboard-response","382","461398","0.0-1.0-527.0-0.0","0","0","10465","","1090","","","68","58","","","2","58","training","adjacent","FE","6","5","P.jpg","L.jpg","0","0","1","",""
"","feedback","","html-keyboard-response","383","462401","0.0-1.0-528.0-0.0","0","0","10465","","null","","","null","58","","","","","","","","","","","","","","","",""
"","ITI","","html-keyboard-response","384","463403","0.0-1.0-531.0","0","0","10465","","null","","","null","58","","","","","","","","","","","","","","","NaN",""
"","S1","","html-keyboard-response","385","463556","0.0-1.0-533.0","0","0","10465","","null","","","null","59","","","","","","","","","","","","","","","",""
"","ISI","","html-keyboard-response","386","465558","0.0-1.0-534.0","0","0","10465","","null","","","null","59","NaN","","","","","","","","","","","","","","",""
"","S2","","html-keyboard-response","387","465711","0.0-1.0-535.0","0","0","10465","","null","","","null","59","","NaN","","","","","","","","","","","","","",""
"","response","","html-keyboard-response","388","466381","0.0-1.0-536.0-0.0","0","0","10465","","669","","","75","59","","","2","59","training","adjacent","DC","4","3","M.jpg","R.jpg","1","0","0","",""
"","feedback","","html-keyboard-response","389","467384","0.0-1.0-537.0-0.0","0","0","10465","","null","","","null","59","","","","","","","","","","","","","","","",""
"","time_out","","html-keyboard-response","390","469386","0.0-1.0-539.0-0.0","0","0","10465","","null","","","null","59","","","","","","","","","","","","","","","",""
"","ITI","","html-keyboard-response","391","470389","0.0-1.0-540.0","0","0","10465","","null","","","null","59","","","","","","","","","","","","","","","NaN",""
"","S1","","html-keyboard-response","392","470542","0.0-1.0-542.0","0","0","10465","","null","","","null","60","","","","","","","","","","","","","","","",""
"","ISI","","html-keyboard-response","393","472544","0.0-1.0-543.0","0","0","10465","","null","","","null","60","NaN","","","","","","","","","","","","","","",""
"","S2","","html-keyboard-response","394","472696","0.0-1.0-544.0","0","0","10465","","null","","","null","60","","NaN","","","","","","","","","","","","","",""
"","response","","html-keyboard-response","395","473427","0.0-1.0-545.0-0.0","0","0","10465","","729","","","68","60","","","2","60","training","adjacent","CD","3","4","R.jpg","M.jpg","0","1","0","",""
"","feedback","","html-keyboard-response","396","474429","0.0-1.0-546.0-0.0","0","0","10465","","null","","","null","60","","","","","","","","","","","","","","","",""
"","time_out","","html-keyboard-response","397","476432","0.0-1.0-548.0-0.0","0","0","10465","","null","","","null","60","","","","","","","","","","","","","","","",""
"","ITI","","html-keyboard-response","398","477435","0.0-1.0-549.0","0","0","10465","","null","","","null","60","","","","","","","","","","","","","","","NaN",""
"","S1","","html-keyboard-response","399","477587","0.0-1.0-551.0","0","0","10465","","null","","","null","61","","","","","","","","","","","","","","","",""
"","ISI","","html-keyboard-response","400","479590","0.0-1.0-552.0","0","0","10465","","null","","","null","61","NaN","","","","","","","","","","","","","","",""
"","S2","","html-keyboard-response","401","479743","0.0-1.0-553.0","0","0","10465","","null","","","null","61","","NaN","","","","","","","","","","","","","",""
"","response","","html-keyboard-response","402","480641","0.0-1.0-554.0-0.0","0","0","10465","","897","","","68","61","","","2","61","training","adjacent","BA","2","1","Q.jpg","O.jpg","0","0","1","",""
"","feedback","","html-keyboard-response","403","481644","0.0-1.0-555.0-0.0","0","0","10465","","null","","","null","61","","","","","","","","","","","","","","","",""
"","ITI","","html-keyboard-response","404","482647","0.0-1.0-558.0","0","0","10465","","null","","","null","61","","","","","","","","","","","","","","","NaN",""
"","S1","","html-keyboard-response","405","482799","0.0-1.0-560.0","0","0","10465","","null","","","null","62","","","","","","","","","","","","","","","",""
"","ISI","","html-keyboard-response","406","484802","0.0-1.0-561.0","0","0","10465","","null","","","null","62","NaN","","","","","","","","","","","","","","",""
"","S2","","html-keyboard-response","407","484954","0.0-1.0-562.0","0","0","10465","","null","","","null","62","","NaN","","","","","","","","","","","","","",""
"","response","","html-keyboard-response","408","485397","0.0-1.0-563.0-0.0","0","0","10465","","441","","","75","62","","","2","62","training","adjacent","FG","6","7","P.jpg","N.jpg","1","1","1","",""
"","feedback","","html-keyboard-response","409","486400","0.0-1.0-564.0-0.0","0","0","10465","","null","","","null","62","","","","","","","","","","","","","","","",""
"","ITI","","html-keyboard-response","410","487402","0.0-1.0-567.0","0","0","10465","","null","","","null","62","","","","","","","","","","","","","","","NaN",""
"","S1","","html-keyboard-response","411","487555","0.0-1.0-569.0","0","0","10465","","null","","","null","63","","","","","","","","","","","","","","","",""
"","ISI","","html-keyboard-response","412","489571","0.0-1.0-570.0","0","0","10465","","null","","","null","63","NaN","","","","","","","","","","","","","","",""
"","S2","","html-keyboard-response","413","489724","0.0-1.0-571.0","0","0","10465","","null","","","null","63","","NaN","","","","","","","","","","","","","",""
"","response","","html-keyboard-response","414","490639","0.0-1.0-572.0-0.0","0","0","10465","","914","","","68","63","","","2","63","training","adjacent","CB","3","2","R.jpg","Q.jpg","0","0","1","",""
"","feedback","","html-keyboard-response","415","491642","0.0-1.0-573.0-0.0","0","0","10465","","null","","","null","63","","","","","","","","","","","","","","","",""
"","ITI","","html-keyboard-response","416","492646","0.0-1.0-576.0","0","0","10465","","null","","","null","63","","","","","","","","","","","","","","","NaN",""
"","S1","","html-keyboard-response","417","492808","0.0-1.0-578.0","0","0","10465","","null","","","null","64","","","","","","","","","","","","","","","",""
"","ISI","","html-keyboard-response","418","494811","0.0-1.0-579.0","0","0","10465","","null","","","null","64","NaN","","","","","","","","","","","","","","",""
"","S2","","html-keyboard-response","419","494964","0.0-1.0-580.0","0","0","10465","","null","","","null","64","","NaN","","","","","","","","","","","","","",""
"","response","","html-keyboard-response","420","495410","0.0-1.0-581.0-0.0","0","0","10465","","445","","","75","64","","","2","64","training","adjacent","ED","5","4","L.jpg","M.jpg","1","0","0","",""
"","feedback","","html-keyboard-response","421","496413","0.0-1.0-582.0-0.0","0","0","10465","","null","","","null","64","","","","","","","","","","","","","","","",""
"","time_out","","html-keyboard-response","422","498416","0.0-1.0-584.0-0.0","0","0","10465","","null","","","null","64","","","","","","","","","","","","","","","",""
"","ITI","","html-keyboard-response","423","499419","0.0-1.0-585.0","0","0","10465","","null","","","null","64","","","","","","","","","","","","","","","NaN",""
"","S1","","html-keyboard-response","424","499571","0.0-1.0-587.0","0","0","10465","","null","","","null","65","","","","","","","","","","","","","","","",""
"","ISI","","html-keyboard-response","425","501573","0.0-1.0-588.0","0","0","10465","","null","","","null","65","NaN","","","","","","","","","","","","","","",""
"","S2","","html-keyboard-response","426","501725","0.0-1.0-589.0","0","0","10465","","null","","","null","65","","NaN","","","","","","","","","","","","","",""
"","response","","html-keyboard-response","427","502734","0.0-1.0-590.0-0.0","0","0","10465","","1007","","","68","65","","","2","65","training","adjacent","FE","6","5","P.jpg","L.jpg","0","0","1","",""
"","feedback","","html-keyboard-response","428","503738","0.0-1.0-591.0-0.0","0","0","10465","","null","","","null","65","","","","","","","","","","","","","","","",""
"","ITI","","html-keyboard-response","429","504740","0.0-1.0-594.0","0","0","10465","","null","","","null","65","","","","","","","","","","","","","","","NaN",""
"","S1","","html-keyboard-response","430","504893","0.0-1.0-596.0","0","0","10465","","null","","","null","66","","","","","","","","","","","","","","","",""
"","ISI","","html-keyboard-response","431","506896","0.0-1.0-597.0","0","0","10465","","null","","","null","66","NaN","","","","","","","","","","","","","","",""
"","S2","","html-keyboard-response","432","507048","0.0-1.0-598.0","0","0","10465","","null","","","null","66","","NaN","","","","","","","","","","","","","",""
"","response","","html-keyboard-response","433","507437","0.0-1.0-599.0-0.0","0","0","10465","","387","","","68","66","","","2","66","training","adjacent","ED","5","4","L.jpg","M.jpg","0","0","1","",""
"","feedback","","html-keyboard-response","434","508440","0.0-1.0-600.0-0.0","0","0","10465","","null","","","null","66","","","","","","","","","","","","","","","",""
"","ITI","","html-keyboard-response","435","509443","0.0-1.0-603.0","0","0","10465","","null","","","null","66","","","","","","","","","","","","","","","NaN",""
"","S1","","html-keyboard-response","436","509605","0.0-1.0-605.0","0","0","10465","","null","","","null","67","","","","","","","","","","","","","","","",""
"","ISI","","html-keyboard-response","437","511608","0.0-1.0-606.0","0","0","10465","","null","","","null","67","NaN","","","","","","","","","","","","","","",""
"","S2","","html-keyboard-response","438","511761","0.0-1.0-607.0","0","0","10465","","null","","","null","67","","NaN","","","","","","","","","","","","","",""
"","response","","html-keyboard-response","439","512699","0.0-1.0-608.0-0.0","0","0","10465","","936","","","68","67","","","2","67","training","adjacent","CB","3","2","R.jpg","Q.jpg","0","0","1","",""
"","feedback","","html-keyboard-response","440","513701","0.0-1.0-609.0-0.0","0","0","10465","","null","","","null","67","","","","","","","","","","","","","","","",""
"","ITI","","html-keyboard-response","441","514704","0.0-1.0-612.0","0","0","10465","","null","","","null","67","","","","","","","","","","","","","","","NaN",""
"","S1","","html-keyboard-response","442","514856","0.0-1.0-614.0","0","0","10465","","null","","","null","68","","","","","","","","","","","","","","","",""
"","ISI","","html-keyboard-response","443","516858","0.0-1.0-615.0","0","0","10465","","null","","","null","68","NaN","","","","","","","","","","","","","","",""
"","S2","","html-keyboard-response","444","517011","0.0-1.0-616.0","0","0","10465","","null","","","null","68","","NaN","","","","","","","","","","","","","",""
"","response","","html-keyboard-response","445","517949","0.0-1.0-617.0-0.0","0","0","10465","","937","","","68","68","","","2","68","training","adjacent","DE","4","5","M.jpg","L.jpg","0","1","0","",""
"","feedback","","html-keyboard-response","446","518952","0.0-1.0-618.0-0.0","0","0","10465","","null","","","null","68","","","","","","","","","","","","","","","",""
"","time_out","","html-keyboard-response","447","520955","0.0-1.0-620.0-0.0","0","0","10465","","null","","","null","68","","","","","","","","","","","","","","","",""
"","ITI","","html-keyboard-response","448","521958","0.0-1.0-621.0","0","0","10465","","null","","","null","68","","","","","","","","","","","","","","","NaN",""
"","S1","","html-keyboard-response","449","522111","0.0-1.0-623.0","0","0","10465","","null","","","null","69","","","","","","","","","","","","","","","",""
"","ISI","","html-keyboard-response","450","524113","0.0-1.0-624.0","0","0","10465","","null","","","null","69","NaN","","","","","","","","","","","","","","",""
"","S2","","html-keyboard-response","451","524274","0.0-1.0-625.0","0","0","10465","","null","","","null","69","","NaN","","","","","","","","","","","","","",""
"","response","","html-keyboard-response","452","524972","0.0-1.0-626.0-0.0","0","0","10465","","696","","","68","69","","","2","69","training","adjacent","CD","3","4","R.jpg","M.jpg","0","1","0","",""
"","feedback","","html-keyboard-response","453","525975","0.0-1.0-627.0-0.0","0","0","10465","","null","","","null","69","","","","","","","","","","","","","","","",""
"","time_out","","html-keyboard-response","454","527977","0.0-1.0-629.0-0.0","0","0","10465","","null","","","null","69","","","","","","","","","","","","","","","",""
"","ITI","","html-keyboard-response","455","528979","0.0-1.0-630.0","0","0","10465","","null","","","null","69","","","","","","","","","","","","","","","NaN",""
"","S1","","html-keyboard-response","456","529132","0.0-1.0-632.0","0","0","10465","","null","","","null","70","","","","","","","","","","","","","","","",""
"","ISI","","html-keyboard-response","457","531145","0.0-1.0-633.0","0","0","10465","","null","","","null","70","NaN","","","","","","","","","","","","","","",""
"","S2","","html-keyboard-response","458","531297","0.0-1.0-634.0","0","0","10465","","null","","","null","70","","NaN","","","","","","","","","","","","","",""
"","response","","html-keyboard-response","459","532248","0.0-1.0-635.0-0.0","0","0","10465","","950","","","75","70","","","2","70","training","adjacent","EF","5","6","L.jpg","P.jpg","1","1","1","",""
"","feedback","","html-keyboard-response","460","533251","0.0-1.0-636.0-0.0","0","0","10465","","null","","","null","70","","","","","","","","","","","","","","","",""
"","ITI","","html-keyboard-response","461","534254","0.0-1.0-639.0","0","0","10465","","null","","","null","70","","","","","","","","","","","","","","","NaN",""
"","S1","","html-keyboard-response","462","534407","0.0-1.0-641.0","0","0","10465","","null","","","null","71","","","","","","","","","","","","","","","",""
"","ISI","","html-keyboard-response","463","536410","0.0-1.0-642.0","0","0","10465","","null","","","null","71","NaN","","","","","","","","","","","","","","",""
"","S2","","html-keyboard-response","464","536563","0.0-1.0-643.0","0","0","10465","","null","","","null","71","","NaN","","","","","","","","","","","","","",""
"","response","","html-keyboard-response","465","537089","0.0-1.0-644.0-0.0","0","0","10465","","525","","","68","71","","","2","71","training","adjacent","CB","3","2","R.jpg","Q.jpg","0","0","1","",""
"","feedback","","html-keyboard-response","466","538092","0.0-1.0-645.0-0.0","0","0","10465","","null","","","null","71","","","","","","","","","","","","","","","",""
"","ITI","","html-keyboard-response","467","539095","0.0-1.0-648.0","0","0","10465","","null","","","null","71","","","","","","","","","","","","","","","NaN",""
"","S1","","html-keyboard-response","468","539247","0.0-1.0-650.0","0","0","10465","","null","","","null","72","","","","","","","","","","","","","","","",""
"","ISI","","html-keyboard-response","469","541250","0.0-1.0-651.0","0","0","10465","","null","","","null","72","NaN","","","","","","","","","","","","","","",""
"","S2","","html-keyboard-response","470","541408","0.0-1.0-652.0","0","0","10465","","null","","","null","72","","NaN","","","","","","","","","","","","","",""
"","response","","html-keyboard-response","471","542160","0.0-1.0-653.0-0.0","0","0","10465","","751","","","75","72","","","2","72","training","adjacent","AB","1","2","O.jpg","Q.jpg","1","1","1","",""
"","feedback","","html-keyboard-response","472","543163","0.0-1.0-654.0-0.0","0","0","10465","","null","","","null","72","","","","","","","","","","","","","","","",""
"","ITI","","html-keyboard-response","473","544166","0.0-1.0-657.0","0","0","10465","","null","","","null","72","","","","","","","","","","","","","","","NaN",""
"","S1","","html-keyboard-response","474","544319","0.0-1.0-659.0","0","0","10465","","null","","","null","73","","","","","","","","","","","","","","","",""
"","ISI","","html-keyboard-response","475","546321","0.0-1.0-660.0","0","0","10465","","null","","","null","73","NaN","","","","","","","","","","","","","","",""
"","S2","","html-keyboard-response","476","546474","0.0-1.0-661.0","0","0","10465","","null","","","null","73","","NaN","","","","","","","","","","","","","",""
"","response","","html-keyboard-response","477","546807","0.0-1.0-662.0-0.0","0","0","10465","","332","","","68","73","","","2","73","training","adjacent","GF","7","6","N.jpg","P.jpg","0","0","1","",""
"","feedback","","html-keyboard-response","478","547810","0.0-1.0-663.0-0.0","0","0","10465","","null","","","null","73","","","","","","","","","","","","","","","",""
"","ITI","","html-keyboard-response","479","548813","0.0-1.0-666.0","0","0","10465","","null","","","null","73","","","","","","","","","","","","","","","NaN",""
"","S1","","html-keyboard-response","480","548969","0.0-1.0-668.0","0","0","10465","","null","","","null","74","","","","","","","","","","","","","","","",""
"","ISI","","html-keyboard-response","481","550971","0.0-1.0-669.0","0","0","10465","","null","","","null","74","NaN","","","","","","","","","","","","","","",""
"","S2","","html-keyboard-response","482","551136","0.0-1.0-670.0","0","0","10465","","null","","","null","74","","NaN","","","","","","","","","","","","","",""
"","response","","html-keyboard-response","483","552052","0.0-1.0-671.0-0.0","0","0","10465","","914","","","68","74","","","2","74","training","adjacent","DE","4","5","M.jpg","L.jpg","0","1","0","",""
"","feedback","","html-keyboard-response","484","553055","0.0-1.0-672.0-0.0","0","0","10465","","null","","","null","74","","","","","","","","","","","","","","","",""
"","time_out","","html-keyboard-response","485","555058","0.0-1.0-674.0-0.0","0","0","10465","","null","","","null","74","","","","","","","","","","","","","","","",""
"","ITI","","html-keyboard-response","486","556061","0.0-1.0-675.0","0","0","10465","","null","","","null","74","","","","","","","","","","","","","","","NaN",""
"","S1","","html-keyboard-response","487","556213","0.0-1.0-677.0","0","0","10465","","null","","","null","75","","","","","","","","","","","","","","","",""
"","ISI","","html-keyboard-response","488","558216","0.0-1.0-678.0","0","0","10465","","null","","","null","75","NaN","","","","","","","","","","","","","","",""
"","S2","","html-keyboard-response","489","558368","0.0-1.0-679.0","0","0","10465","","null","","","null","75","","NaN","","","","","","","","","","","","","",""
"","response","","html-keyboard-response","490","559626","0.0-1.0-680.0-0.0","0","0","10465","","1257","","","75","75","","","2","75","training","adjacent","DE","4","5","M.jpg","L.jpg","1","1","1","",""
"","feedback","","html-keyboard-response","491","560629","0.0-1.0-681.0-0.0","0","0","10465","","null","","","null","75","","","","","","","","","","","","","","","",""
"","ITI","","html-keyboard-response","492","561632","0.0-1.0-684.0","0","0","10465","","null","","","null","75","","","","","","","","","","","","","","","NaN",""
"","S1","","html-keyboard-response","493","561784","0.0-1.0-686.0","0","0","10465","","null","","","null","76","","","","","","","","","","","","","","","",""
"","ISI","","html-keyboard-response","494","563787","0.0-1.0-687.0","0","0","10465","","null","","","null","76","NaN","","","","","","","","","","","","","","",""
"","S2","","html-keyboard-response","495","563939","0.0-1.0-688.0","0","0","10465","","null","","","null","76","","NaN","","","","","","","","","","","","","",""
"","response","","html-keyboard-response","496","565022","0.0-1.0-689.0-0.0","0","0","10465","","1082","","","75","76","","","2","76","training","adjacent","BA","2","1","Q.jpg","O.jpg","1","0","0","",""
"","feedback","","html-keyboard-response","497","566025","0.0-1.0-690.0-0.0","0","0","10465","","null","","","null","76","","","","","","","","","","","","","","","",""
"","time_out","","html-keyboard-response","498","568027","0.0-1.0-692.0-0.0","0","0","10465","","null","","","null","76","","","","","","","","","","","","","","","",""
"","ITI","","html-keyboard-response","499","569028","0.0-1.0-693.0","0","0","10465","","null","","","null","76","","","","","","","","","","","","","","","NaN",""
"","S1","","html-keyboard-response","500","569181","0.0-1.0-695.0","0","0","10465","","null","","","null","77","","","","","","","","","","","","","","","",""
"","ISI","","html-keyboard-response","501","571183","0.0-1.0-696.0","0","0","10465","","null","","","null","77","NaN","","","","","","","","","","","","","","",""
"","S2","","html-keyboard-response","502","571337","0.0-1.0-697.0","0","0","10465","","null","","","null","77","","NaN","","","","","","","","","","","","","",""
"","response","","html-keyboard-response","503","571827","0.0-1.0-698.0-0.0","0","0","10465","","489","","","68","77","","","2","77","training","adjacent","EF","5","6","L.jpg","P.jpg","0","1","0","",""
"","feedback","","html-keyboard-response","504","572831","0.0-1.0-699.0-0.0","0","0","10465","","null","","","null","77","","","","","","","","","","","","","","","",""
"","time_out","","html-keyboard-response","505","574834","0.0-1.0-701.0-0.0","0","0","10465","","null","","","null","77","","","","","","","","","","","","","","","",""
"","ITI","","html-keyboard-response","506","575837","0.0-1.0-702.0","0","0","10465","","null","","","null","77","","","","","","","","","","","","","","","NaN",""
"","S1","","html-keyboard-response","507","575989","0.0-1.0-704.0","0","0","10465","","null","","","null","78","","","","","","","","","","","","","","","",""
"","ISI","","html-keyboard-response","508","577992","0.0-1.0-705.0","0","0","10465","","null","","","null","78","NaN","","","","","","","","","","","","","","",""
"","S2","","html-keyboard-response","509","578144","0.0-1.0-706.0","0","0","10465","","null","","","null","78","","NaN","","","","","","","","","","","","","",""
"","response","","html-keyboard-response","510","578555","0.0-1.0-707.0-0.0","0","0","10465","","410","","","75","78","","","2","78","training","adjacent","AB","1","2","O.jpg","Q.jpg","1","1","1","",""
"","feedback","","html-keyboard-response","511","579557","0.0-1.0-708.0-0.0","0","0","10465","","null","","","null","78","","","","","","","","","","","","","","","",""
"","ITI","","html-keyboard-response","512","580560","0.0-1.0-711.0","0","0","10465","","null","","","null","78","","","","","","","","","","","","","","","NaN",""
"","S1","","html-keyboard-response","513","580712","0.0-1.0-713.0","0","0","10465","","null","","","null","79","","","","","","","","","","","","","","","",""
"","ISI","","html-keyboard-response","514","582714","0.0-1.0-714.0","0","0","10465","","null","","","null","79","NaN","","","","","","","","","","","","","","",""
"","S2","","html-keyboard-response","515","582867","0.0-1.0-715.0","0","0","10465","","null","","","null","79","","NaN","","","","","","","","","","","","","",""
"","response","","html-keyboard-response","516","583921","0.0-1.0-716.0-0.0","0","0","10465","","1053","","","68","79","","","2","79","training","adjacent","ED","5","4","L.jpg","M.jpg","0","0","1","",""
"","feedback","","html-keyboard-response","517","584924","0.0-1.0-717.0-0.0","0","0","10465","","null","","","null","79","","","","","","","","","","","","","","","",""
"","ITI","","html-keyboard-response","518","585926","0.0-1.0-720.0","0","0","10465","","null","","","null","79","","","","","","","","","","","","","","","NaN",""
"","S1","","html-keyboard-response","519","586079","0.0-1.0-722.0","0","0","10465","","null","","","null","80","","","","","","","","","","","","","","","",""
"","ISI","","html-keyboard-response","520","588081","0.0-1.0-723.0","0","0","10465","","null","","","null","80","NaN","","","","","","","","","","","","","","",""
"","S2","","html-keyboard-response","521","588234","0.0-1.0-724.0","0","0","10465","","null","","","null","80","","NaN","","","","","","","","","","","","","",""
"","response","","html-keyboard-response","522","588592","0.0-1.0-725.0-0.0","0","0","10465","","357","","","68","80","","","2","80","training","adjacent","CD","3","4","R.jpg","M.jpg","0","1","0","",""
"","feedback","","html-keyboard-response","523","589595","0.0-1.0-726.0-0.0","0","0","10465","","null","","","null","80","","","","","","","","","","","","","","","",""
"","time_out","","html-keyboard-response","524","591598","0.0-1.0-728.0-0.0","0","0","10465","","null","","","null","80","","","","","","","","","","","","","","","",""
"","ITI","","html-keyboard-response","525","592600","0.0-1.0-729.0","0","0","10465","","null","","","null","80","","","","","","","","","","","","","","","NaN",""
"","S1","","html-keyboard-response","526","592753","0.0-1.0-731.0","0","0","10465","","null","","","null","81","","","","","","","","","","","","","","","",""
"","ISI","","html-keyboard-response","527","594755","0.0-1.0-732.0","0","0","10465","","null","","","null","81","NaN","","","","","","","","","","","","","","",""
"","S2","","html-keyboard-response","528","594907","0.0-1.0-733.0","0","0","10465","","null","","","null","81","","NaN","","","","","","","","","","","","","",""
"","response","","html-keyboard-response","529","595746","0.0-1.0-734.0-0.0","0","0","10465","","837","","","75","81","","","2","81","training","adjacent","CD","3","4","R.jpg","M.jpg","1","1","1","",""
"","feedback","","html-keyboard-response","530","596750","0.0-1.0-735.0-0.0","0","0","10465","","null","","","null","81","","","","","","","","","","","","","","","",""
"","ITI","","html-keyboard-response","531","597753","0.0-1.0-738.0","0","0","10465","","null","","","null","81","","","","","","","","","","","","","","","NaN",""
"","S1","","html-keyboard-response","532","597906","0.0-1.0-740.0","0","0","10465","","null","","","null","82","","","","","","","","","","","","","","","",""
"","ISI","","html-keyboard-response","533","599909","0.0-1.0-741.0","0","0","10465","","null","","","null","82","NaN","","","","","","","","","","","","","","",""
"","S2","","html-keyboard-response","534","600062","0.0-1.0-742.0","0","0","10465","","null","","","null","82","","NaN","","","","","","","","","","","","","",""
"","response","","html-keyboard-response","535","600373","0.0-1.0-743.0-0.0","0","0","10465","","310","","","68","82","","","2","82","training","adjacent","GF","7","6","N.jpg","P.jpg","0","0","1","",""
"","feedback","","html-keyboard-response","536","601375","0.0-1.0-744.0-0.0","0","0","10465","","null","","","null","82","","","","","","","","","","","","","","","",""
"","ITI","","html-keyboard-response","537","602377","0.0-1.0-747.0","0","0","10465","","null","","","null","82","","","","","","","","","","","","","","","NaN",""
"","S1","","html-keyboard-response","538","602530","0.0-1.0-749.0","0","0","10465","","null","","","null","83","","","","","","","","","","","","","","","",""
"","ISI","","html-keyboard-response","539","604533","0.0-1.0-750.0","0","0","10465","","null","","","null","83","NaN","","","","","","","","","","","","","","",""
"","S2","","html-keyboard-response","540","604685","0.0-1.0-751.0","0","0","10465","","null","","","null","83","","NaN","","","","","","","","","","","","","",""
"","response","","html-keyboard-response","541","605288","0.0-1.0-752.0-0.0","0","0","10465","","601","","","75","83","","","2","83","training","adjacent","AB","1","2","O.jpg","Q.jpg","1","1","1","",""
"","feedback","","html-keyboard-response","542","606290","0.0-1.0-753.0-0.0","0","0","10465","","null","","","null","83","","","","","","","","","","","","","","","",""
"","ITI","","html-keyboard-response","543","607292","0.0-1.0-756.0","0","0","10465","","null","","","null","83","","","","","","","","","","","","","","","NaN",""
"","S1","","html-keyboard-response","544","607444","0.0-1.0-758.0","0","0","10465","","null","","","null","84","","","","","","","","","","","","","","","",""
"","ISI","","html-keyboard-response","545","609460","0.0-1.0-759.0","0","0","10465","","null","","","null","84","NaN","","","","","","","","","","","","","","",""
"","S2","","html-keyboard-response","546","609613","0.0-1.0-760.0","0","0","10465","","null","","","null","84","","NaN","","","","","","","","","","","","","",""
"","response","","html-keyboard-response","547","610294","0.0-1.0-761.0-0.0","0","0","10465","","680","","","68","84","","","2","84","training","adjacent","FE","6","5","P.jpg","L.jpg","0","0","1","",""
"","feedback","","html-keyboard-response","548","611298","0.0-1.0-762.0-0.0","0","0","10465","","null","","","null","84","","","","","","","","","","","","","","","",""
"","ITI","","html-keyboard-response","549","612300","0.0-1.0-765.0","0","0","10465","","null","","","null","84","","","","","","","","","","","","","","","NaN",""
"","S1","","html-keyboard-response","550","612453","0.0-1.0-767.0","0","0","10465","","null","","","null","85","","","","","","","","","","","","","","","",""
"","ISI","","html-keyboard-response","551","614456","0.0-1.0-768.0","0","0","10465","","null","","","null","85","NaN","","","","","","","","","","","","","","",""
"","S2","","html-keyboard-response","552","614608","0.0-1.0-769.0","0","0","10465","","null","","","null","85","","NaN","","","","","","","","","","","","","",""
"","response","","html-keyboard-response","553","615108","0.0-1.0-770.0-0.0","0","0","10465","","498","","","68","85","","","2","85","training","adjacent","FE","6","5","P.jpg","L.jpg","0","0","1","",""
"","feedback","","html-keyboard-response","554","616110","0.0-1.0-771.0-0.0","0","0","10465","","null","","","null","85","","","","","","","","","","","","","","","",""
"","ITI","","html-keyboard-response","555","617113","0.0-1.0-774.0","0","0","10465","","null","","","null","85","","","","","","","","","","","","","","","NaN",""
"","S1","","html-keyboard-response","556","617266","0.0-1.0-776.0","0","0","10465","","null","","","null","86","","","","","","","","","","","","","","","",""
"","ISI","","html-keyboard-response","557","619267","0.0-1.0-777.0","0","0","10465","","null","","","null","86","NaN","","","","","","","","","","","","","","",""
"","S2","","html-keyboard-response","558","619420","0.0-1.0-778.0","0","0","10465","","null","","","null","86","","NaN","","","","","","","","","","","","","",""
"","response","","html-keyboard-response","559","619836","0.0-1.0-779.0-0.0","0","0","10465","","414","","","75","86","","","2","86","training","adjacent","BC","2","3","Q.jpg","R.jpg","1","1","1","",""
"","feedback","","html-keyboard-response","560","620840","0.0-1.0-780.0-0.0","0","0","10465","","null","","","null","86","","","","","","","","","","","","","","","",""
"","ITI","","html-keyboard-response","561","621842","0.0-1.0-783.0","0","0","10465","","null","","","null","86","","","","","","","","","","","","","","","NaN",""
"","S1","","html-keyboard-response","562","621995","0.0-1.0-785.0","0","0","10465","","null","","","null","87","","","","","","","","","","","","","","","",""
"","ISI","","html-keyboard-response","563","623997","0.0-1.0-786.0","0","0","10465","","null","","","null","87","NaN","","","","","","","","","","","","","","",""
"","S2","","html-keyboard-response","564","624150","0.0-1.0-787.0","0","0","10465","","null","","","null","87","","NaN","","","","","","","","","","","","","",""
"","response","","html-keyboard-response","565","624923","0.0-1.0-788.0-0.0","0","0","10465","","772","","","75","87","","","2","87","training","adjacent","ED","5","4","L.jpg","M.jpg","1","0","0","",""
"","feedback","","html-keyboard-response","566","625926","0.0-1.0-789.0-0.0","0","0","10465","","null","","","null","87","","","","","","","","","","","","","","","",""
"","time_out","","html-keyboard-response","567","627929","0.0-1.0-791.0-0.0","0","0","10465","","null","","","null","87","","","","","","","","","","","","","","","",""
"","ITI","","html-keyboard-response","568","628932","0.0-1.0-792.0","0","0","10465","","null","","","null","87","","","","","","","","","","","","","","","NaN",""
"","S1","","html-keyboard-response","569","629085","0.0-1.0-794.0","0","0","10465","","null","","","null","88","","","","","","","","","","","","","","","",""
"","ISI","","html-keyboard-response","570","631088","0.0-1.0-795.0","0","0","10465","","null","","","null","88","NaN","","","","","","","","","","","","","","",""
"","S2","","html-keyboard-response","571","631240","0.0-1.0-796.0","0","0","10465","","null","","","null","88","","NaN","","","","","","","","","","","","","",""
"","response","","html-keyboard-response","572","631514","0.0-1.0-797.0-0.0","0","0","10465","","273","","","75","88","","","2","88","training","adjacent","BC","2","3","Q.jpg","R.jpg","1","1","1","",""
"","feedback","","html-keyboard-response","573","632516","0.0-1.0-798.0-0.0","0","0","10465","","null","","","null","88","","","","","","","","","","","","","","","",""
"","ITI","","html-keyboard-response","574","633520","0.0-1.0-801.0","0","0","10465","","null","","","null","88","","","","","","","","","","","","","","","NaN",""
"","S1","","html-keyboard-response","575","633672","0.0-1.0-803.0","0","0","10465","","null","","","null","89","","","","","","","","","","","","","","","",""
"","ISI","","html-keyboard-response","576","635675","0.0-1.0-804.0","0","0","10465","","null","","","null","89","NaN","","","","","","","","","","","","","","",""
"","S2","","html-keyboard-response","577","635827","0.0-1.0-805.0","0","0","10465","","null","","","null","89","","NaN","","","","","","","","","","","","","",""
"","response","","html-keyboard-response","578","636836","0.0-1.0-806.0-0.0","0","0","10465","","1006","","","75","89","","","2","89","training","adjacent","EF","5","6","L.jpg","P.jpg","1","1","1","",""
"","feedback","","html-keyboard-response","579","637838","0.0-1.0-807.0-0.0","0","0","10465","","null","","","null","89","","","","","","","","","","","","","","","",""
"","ITI","","html-keyboard-response","580","638841","0.0-1.0-810.0","0","0","10465","","null","","","null","89","","","","","","","","","","","","","","","NaN",""
