"success","ttype","start_time","trial_type","trial_index","time_elapsed","internal_node_id","warning","missed_checkup","PID","view_history","rt","responses","repeat_instructions","key_press","index","keypress_isi","keypress_S2","block","trial_num","phase","group_type","pair_type","S1_stim","S2_stim","S1_img","S2_img","S1_chosen","S1_higher","accuracy","keypress_iti","total_bonus_tally"
"true","full_screen","d03072023hr2149","fullscreen","0","12161","0.0-0.0","0","0","99178","","","","","","","","","","","","","","","","","","","","","",""
"","instructions","","instructions","1","58080","0.0-1.0-0.0-0.0","0","0","99178","[{""page_index"":0,""viewing_time"":4755},{""page_index"":1,""viewing_time"":26052},{""page_index"":2,""viewing_time"":13121},{""page_index"":3,""viewing_time"":1984}]","45913","","","","","","","","","","","","","","","","","","","",""
"","comprehension_check","","survey-multi-choice","2","93401","0.0-1.0-0.0-1.0","0","0","99178","","35312","{""Q0"":""True"",""Q1"":""D"",""Q2"":""Only when the screen 'MAKE A CHOICE' is shown"",""Q3"":""Green mark"",""Q4"":""either D or K""}","1","","","","","","","","","","","","","","","","","",""
"","missed_instruction_checkup","","html-keyboard-response","3","96124","0.0-1.0-0.0-2.0-0.0","0","1","99178","","2716","","","32","","","","","","","","","","","","","","","","",""
"","instructions","","instructions","4","111567","0.0-1.0-0.1-0.1","0","0","99178","[{""page_index"":0,""viewing_time"":1570},{""page_index"":1,""viewing_time"":9601},{""page_index"":2,""viewing_time"":3216},{""page_index"":3,""viewing_time"":1051}]","15438","","","","","","","","","","","","","","","","","","","",""
"","comprehension_check","","survey-multi-choice","5","132967","0.0-1.0-0.1-1.1","0","0","99178","","21394","{""Q0"":""True"",""Q1"":""D"",""Q2"":""Once the second image appears and while the screen 'MAKE A CHOICE' is shown"",""Q3"":""Green mark"",""Q4"":""either D or K""}","0","","","","","","","","","","","","","","","","","",""
"","start_exp","","html-keyboard-response","6","136842","0.0-1.0-1.0","0","0","99178","","3869","","","32","","","","","","","","","","","","","","","","",""
"","S1","","html-keyboard-response","7","137101","0.0-1.0-2.0","0","0","99178","","null","","","null","0","","","","","","","","","","","","","","","",""
"","ISI","","html-keyboard-response","8","138109","0.0-1.0-3.0","0","0","99178","","null","","","null","0","NaN","","","","","","","","","","","","","","",""
"","S2","","html-keyboard-response","9","138375","0.0-1.0-4.0","0","0","99178","","null","","","null","0","","NaN","","","","","","","","","","","","","",""
"","response","","html-keyboard-response","10","139954","0.0-1.0-5.0-0.0","0","0","99178","","1573","","","68","0","","","1","0","training","adjacent","EF","5","6","O.jpg","L.jpg","1","1","1","",""
"","feedback","","html-keyboard-response","11","140967","0.0-1.0-6.0-0.0","0","0","99178","","null","","","null","0","","","","","","","","","","","","","","","",""
"","ITI","","html-keyboard-response","12","141980","0.0-1.0-9.0","0","0","99178","","null","","","null","0","","","","","","","","","","","","","","","NaN",""
"","S1","","html-keyboard-response","13","142237","0.0-1.0-11.0","0","0","99178","","null","","","null","1","","","","","","","","","","","","","","","",""
"","ISI","","html-keyboard-response","14","143244","0.0-1.0-12.0","0","0","99178","","null","","","null","1","NaN","","","","","","","","","","","","","","",""
"","S2","","html-keyboard-response","15","143501","0.0-1.0-13.0","0","0","99178","","null","","","null","1","","NaN","","","","","","","","","","","","","",""
"","response","","html-keyboard-response","16","144740","0.0-1.0-14.0-0.0","0","0","99178","","1235","","","75","1","","","1","1","training","adjacent","CD","3","4","Q.jpg","R.jpg","0","1","0","",""
"","feedback","","html-keyboard-response","17","145751","0.0-1.0-15.0-0.0","0","0","99178","","null","","","null","1","","","","","","","","","","","","","","","",""
"","time_out","","html-keyboard-response","18","147767","0.0-1.0-17.0-0.0","0","0","99178","","null","","","null","1","","","","","","","","","","","","","","","",""
"","ITI","","html-keyboard-response","19","148775","0.0-1.0-18.0","0","0","99178","","null","","","null","1","","","","","","","","","","","","","","","NaN",""
"","S1","","html-keyboard-response","20","149036","0.0-1.0-20.0","0","0","99178","","null","","","null","2","","","","","","","","","","","","","","","",""
"","ISI","","html-keyboard-response","21","150044","0.0-1.0-21.0","0","0","99178","","null","","","null","2","NaN","","","","","","","","","","","","","","",""
"","S2","","html-keyboard-response","22","150300","0.0-1.0-22.0","0","0","99178","","null","","","null","2","","NaN","","","","","","","","","","","","","",""
"","response","","html-keyboard-response","23","151186","0.0-1.0-23.0-0.0","0","0","99178","","881","","","68","2","","","1","2","training","adjacent","CD","3","4","Q.jpg","R.jpg","1","1","1","",""
"","feedback","","html-keyboard-response","24","152199","0.0-1.0-24.0-0.0","0","0","99178","","null","","","null","2","","","","","","","","","","","","","","","",""
"","ITI","","html-keyboard-response","25","153207","0.0-1.0-27.0","0","0","99178","","null","","","null","2","","","","","","","","","","","","","","","NaN",""
"","S1","","html-keyboard-response","26","153468","0.0-1.0-29.0","0","0","99178","","null","","","null","3","","","","","","","","","","","","","","","",""
"","ISI","","html-keyboard-response","27","154477","0.0-1.0-30.0","0","0","99178","","null","","","null","3","NaN","","","","","","","","","","","","","","",""
"","S2","","html-keyboard-response","28","154743","0.0-1.0-31.0","0","0","99178","","null","","","null","3","","NaN","","","","","","","","","","","","","",""
"","response","","html-keyboard-response","29","155652","0.0-1.0-32.0-0.0","0","0","99178","","904","","","68","3","","","1","3","training","adjacent","CD","3","4","Q.jpg","R.jpg","1","1","1","",""
"","feedback","","html-keyboard-response","30","156663","0.0-1.0-33.0-0.0","0","0","99178","","null","","","null","3","","","","","","","","","","","","","","","",""
"","ITI","","html-keyboard-response","31","157676","0.0-1.0-36.0","0","0","99178","","null","","","null","3","","","","","","","","","","","","","","","NaN",""
"","S1","","html-keyboard-response","32","157932","0.0-1.0-38.0","0","0","99178","","null","","","null","4","","","","","","","","","","","","","","","",""
"","ISI","","html-keyboard-response","33","158940","0.0-1.0-39.0","0","0","99178","","null","","","null","4","NaN","","","","","","","","","","","","","","",""
"","S2","","html-keyboard-response","34","159197","0.0-1.0-40.0","0","0","99178","","null","","","null","4","","NaN","","","","","","","","","","","","","",""
"","response","","html-keyboard-response","35","159950","0.0-1.0-41.0-0.0","0","0","99178","","750","","","68","4","","","1","4","training","adjacent","FG","6","7","L.jpg","P.jpg","1","1","1","",""
"","feedback","","html-keyboard-response","36","160957","0.0-1.0-42.0-0.0","0","0","99178","","null","","","null","4","","","","","","","","","","","","","","","",""
"","ITI","","html-keyboard-response","37","161964","0.0-1.0-45.0","0","0","99178","","null","","","null","4","","","","","","","","","","","","","","","NaN",""
"","S1","","html-keyboard-response","38","162220","0.0-1.0-47.0","0","0","99178","","null","","","null","5","","","","","","","","","","","","","","","",""
"","ISI","","html-keyboard-response","39","163228","0.0-1.0-48.0","0","0","99178","","null","","","null","5","NaN","","","","","","","","","","","","","","",""
"","S2","","html-keyboard-response","40","163484","0.0-1.0-49.0","0","0","99178","","null","","","null","5","","NaN","","","","","","","","","","","","","",""
"","response","","html-keyboard-response","41","164099","0.0-1.0-50.0-0.0","0","0","99178","","610","","","75","5","","","1","5","training","adjacent","BC","2","3","N.jpg","Q.jpg","0","1","0","",""
"","feedback","","html-keyboard-response","42","165111","0.0-1.0-51.0-0.0","0","0","99178","","null","","","null","5","","","","","","","","","","","","","","","",""
"","time_out","","html-keyboard-response","43","167117","0.0-1.0-53.0-0.0","0","0","99178","","null","","","null","5","","","","","","","","","","","","","","","",""
"","ITI","","html-keyboard-response","44","168125","0.0-1.0-54.0","0","0","99178","","null","","","null","5","","","","","","","","","","","","","","","NaN",""
"","S1","","html-keyboard-response","45","168381","0.0-1.0-56.0","0","0","99178","","null","","","null","6","","","","","","","","","","","","","","","",""
"","ISI","","html-keyboard-response","46","169389","0.0-1.0-57.0","0","0","99178","","null","","","null","6","NaN","","","","","","","","","","","","","","",""
"","S2","","html-keyboard-response","47","169645","0.0-1.0-58.0","0","0","99178","","null","","","null","6","","NaN","","","","","","","","","","","","","",""
"","response","","html-keyboard-response","48","170143","0.0-1.0-59.0-0.0","0","0","99178","","493","","","68","6","","","1","6","training","adjacent","BC","2","3","N.jpg","Q.jpg","1","1","1","",""
"","feedback","","html-keyboard-response","49","171149","0.0-1.0-60.0-0.0","0","0","99178","","null","","","null","6","","","","","","","","","","","","","","","",""
"","ITI","","html-keyboard-response","50","172156","0.0-1.0-63.0","0","0","99178","","null","","","null","6","","","","","","","","","","","","","","","NaN",""
"","S1","","html-keyboard-response","51","172413","0.0-1.0-65.0","0","0","99178","","null","","","null","7","","","","","","","","","","","","","","","",""
"","ISI","","html-keyboard-response","52","173420","0.0-1.0-66.0","0","0","99178","","null","","","null","7","NaN","","","","","","","","","","","","","","",""
"","S2","","html-keyboard-response","53","173676","0.0-1.0-67.0","0","0","99178","","null","","","null","7","","NaN","","","","","","","","","","","","","",""
"","response","","html-keyboard-response","54","174212","0.0-1.0-68.0-0.0","0","0","99178","","531","","","68","7","","","1","7","training","adjacent","BA","2","1","N.jpg","M.jpg","1","0","0","",""
"","feedback","","html-keyboard-response","55","175223","0.0-1.0-69.0-0.0","0","0","99178","","null","","","null","7","","","","","","","","","","","","","","","",""
"","time_out","","html-keyboard-response","56","177239","0.0-1.0-71.0-0.0","0","0","99178","","null","","","null","7","","","","","","","","","","","","","","","",""
"","ITI","","html-keyboard-response","57","178247","0.0-1.0-72.0","0","0","99178","","null","","","null","7","","","","","","","","","","","","","","","NaN",""
"","S1","","html-keyboard-response","58","178509","0.0-1.0-74.0","0","0","99178","","null","","","null","8","","","","","","","","","","","","","","","",""
"","ISI","","html-keyboard-response","59","179517","0.0-1.0-75.0","0","0","99178","","null","","","null","8","NaN","","","","","","","","","","","","","","",""
"","S2","","html-keyboard-response","60","179772","0.0-1.0-76.0","0","0","99178","","null","","","null","8","","NaN","","","","","","","","","","","","","",""
"","response","","html-keyboard-response","61","181133","0.0-1.0-77.0-0.0","0","0","99178","","1356","","","75","8","","","1","8","training","adjacent","DC","4","3","R.jpg","Q.jpg","0","0","1","",""
"","feedback","","html-keyboard-response","62","182140","0.0-1.0-78.0-0.0","0","0","99178","","null","","","null","8","","","","","","","","","","","","","","","",""
"","ITI","","html-keyboard-response","63","183149","0.0-1.0-81.0","0","0","99178","","null","","","null","8","","","","","","","","","","","","","","","NaN",""
"","S1","","html-keyboard-response","64","183403","0.0-1.0-83.0","0","0","99178","","null","","","null","9","","","","","","","","","","","","","","","",""
"","ISI","","html-keyboard-response","65","184413","0.0-1.0-84.0","0","0","99178","","null","","","null","9","NaN","","","","","","","","","","","","","","",""
"","S2","","html-keyboard-response","66","184669","0.0-1.0-85.0","0","0","99178","","null","","","null","9","","NaN","","","","","","","","","","","","","",""
"","response","","html-keyboard-response","67","185836","0.0-1.0-86.0-0.0","0","0","99178","","1162","","","75","9","","","1","9","training","adjacent","CB","3","2","Q.jpg","N.jpg","0","0","1","",""
"","feedback","","html-keyboard-response","68","186845","0.0-1.0-87.0-0.0","0","0","99178","","null","","","null","9","","","","","","","","","","","","","","","",""
"","ITI","","html-keyboard-response","69","187853","0.0-1.0-90.0","0","0","99178","","null","","","null","9","","","","","","","","","","","","","","","NaN",""
"","S1","","html-keyboard-response","70","188113","0.0-1.0-92.0","0","0","99178","","null","","","null","10","","","","","","","","","","","","","","","",""
"","ISI","","html-keyboard-response","71","189128","0.0-1.0-93.0","0","0","99178","","null","","","null","10","NaN","","","","","","","","","","","","","","",""
"","S2","","html-keyboard-response","72","189389","0.0-1.0-94.0","0","0","99178","","null","","","null","10","","NaN","","","","","","","","","","","","","",""
"","response","","html-keyboard-response","73","189976","0.0-1.0-95.0-0.0","0","0","99178","","582","","","68","10","","","1","10","training","adjacent","AB","1","2","M.jpg","N.jpg","1","1","1","",""
"","feedback","","html-keyboard-response","74","190989","0.0-1.0-96.0-0.0","0","0","99178","","null","","","null","10","","","","","","","","","","","","","","","",""
"","ITI","","html-keyboard-response","75","191997","0.0-1.0-99.0","0","0","99178","","null","","","null","10","","","","","","","","","","","","","","","NaN",""
"","S1","","html-keyboard-response","76","192253","0.0-1.0-101.0","0","0","99178","","null","","","null","11","","","","","","","","","","","","","","","",""
"","ISI","","html-keyboard-response","77","193261","0.0-1.0-102.0","0","0","99178","","null","","","null","11","NaN","","","","","","","","","","","","","","",""
"","S2","","html-keyboard-response","78","193527","0.0-1.0-103.0","0","0","99178","","null","","","null","11","","NaN","","","","","","","","","","","","","",""
"","response","","html-keyboard-response","79","195288","0.0-1.0-104.0-0.0","0","0","99178","","null","","","null","11","","","1","11","training","adjacent","BA","2","1","N.jpg","M.jpg","NaN","0","0","",""
"","too_slow_prompt","","html-keyboard-response","80","196301","0.0-1.0-106.0-0.0","1","0","99178","","null","","","null","","","","","","","","","","","","","","","","",""
"","time_out","","html-keyboard-response","81","198311","0.0-1.0-107.0-0.0","0","0","99178","","null","","","null","11","","","","","","","","","","","","","","","",""
"","ITI","","html-keyboard-response","82","199320","0.0-1.0-108.0","0","0","99178","","null","","","null","11","","","","","","","","","","","","","","","NaN",""
"","S1","","html-keyboard-response","83","199581","0.0-1.0-110.0","0","0","99178","","null","","","null","12","","","","","","","","","","","","","","","",""
"","ISI","","html-keyboard-response","84","200589","0.0-1.0-111.0","0","0","99178","","null","","","null","12","NaN","","","","","","","","","","","","","","",""
"","S2","","html-keyboard-response","85","200855","0.0-1.0-112.0","0","0","99178","","null","","","null","12","","NaN","","","","","","","","","","","","","",""
"","response","","html-keyboard-response","86","201613","0.0-1.0-113.0-0.0","0","0","99178","","754","","","75","12","","","1","12","training","adjacent","GF","7","6","P.jpg","L.jpg","0","0","1","",""
"","feedback","","html-keyboard-response","87","202621","0.0-1.0-114.0-0.0","0","0","99178","","null","","","null","12","","","","","","","","","","","","","","","",""
"","ITI","","html-keyboard-response","88","203629","0.0-1.0-117.0","0","0","99178","","null","","","null","12","","","","","","","","","","","","","","","NaN",""
"","S1","","html-keyboard-response","89","203885","0.0-1.0-119.0","0","0","99178","","null","","","null","13","","","","","","","","","","","","","","","",""
"","ISI","","html-keyboard-response","90","204893","0.0-1.0-120.0","0","0","99178","","null","","","null","13","NaN","","","","","","","","","","","","","","",""
"","S2","","html-keyboard-response","91","205149","0.0-1.0-121.0","0","0","99178","","null","","","null","13","","NaN","","","","","","","","","","","","","",""
"","response","","html-keyboard-response","92","205992","0.0-1.0-122.0-0.0","0","0","99178","","839","","","68","13","","","1","13","training","adjacent","CB","3","2","Q.jpg","N.jpg","1","0","0","",""
"","feedback","","html-keyboard-response","93","207005","0.0-1.0-123.0-0.0","0","0","99178","","null","","","null","13","","","","","","","","","","","","","","","",""
"","time_out","","html-keyboard-response","94","209015","0.0-1.0-125.0-0.0","0","0","99178","","null","","","null","13","","","","","","","","","","","","","","","",""
"","ITI","","html-keyboard-response","95","210023","0.0-1.0-126.0","0","0","99178","","null","","","null","13","","","","","","","","","","","","","","","NaN",""
"","S1","","html-keyboard-response","96","210285","0.0-1.0-128.0","0","0","99178","","null","","","null","14","","","","","","","","","","","","","","","",""
"","ISI","","html-keyboard-response","97","211293","0.0-1.0-129.0","0","0","99178","","null","","","null","14","NaN","","","","","","","","","","","","","","",""
"","S2","","html-keyboard-response","98","211559","0.0-1.0-130.0","0","0","99178","","null","","","null","14","","NaN","","","","","","","","","","","","","",""
"","response","","html-keyboard-response","99","212341","0.0-1.0-131.0-0.0","0","0","99178","","778","","","68","14","","","1","14","training","adjacent","FE","6","5","L.jpg","O.jpg","1","0","0","",""
"","feedback","","html-keyboard-response","100","213352","0.0-1.0-132.0-0.0","0","0","99178","","null","","","null","14","","","","","","","","","","","","","","","",""
"","time_out","","html-keyboard-response","101","215367","0.0-1.0-134.0-0.0","0","0","99178","","null","","","null","14","","","","","","","","","","","","","","","",""
"","ITI","","html-keyboard-response","102","216375","0.0-1.0-135.0","0","0","99178","","null","","","null","14","","","","","","","","","","","","","","","NaN",""
"","S1","","html-keyboard-response","103","216637","0.0-1.0-137.0","0","0","99178","","null","","","null","15","","","","","","","","","","","","","","","",""
"","ISI","","html-keyboard-response","104","217645","0.0-1.0-138.0","0","0","99178","","null","","","null","15","NaN","","","","","","","","","","","","","","",""
"","S2","","html-keyboard-response","105","217901","0.0-1.0-139.0","0","0","99178","","null","","","null","15","","NaN","","","","","","","","","","","","","",""
"","response","","html-keyboard-response","106","218506","0.0-1.0-140.0-0.0","0","0","99178","","600","","","75","15","","","1","15","training","adjacent","DC","4","3","R.jpg","Q.jpg","0","0","1","",""
"","feedback","","html-keyboard-response","107","219517","0.0-1.0-141.0-0.0","0","0","99178","","null","","","null","15","","","","","","","","","","","","","","","",""
"","ITI","","html-keyboard-response","108","220525","0.0-1.0-144.0","0","0","99178","","null","","","null","15","","","","","","","","","","","","","","","NaN",""
"","S1","","html-keyboard-response","109","220781","0.0-1.0-146.0","0","0","99178","","null","","","null","16","","","","","","","","","","","","","","","",""
"","ISI","","html-keyboard-response","110","221789","0.0-1.0-147.0","0","0","99178","","null","","","null","16","NaN","","","","","","","","","","","","","","",""
"","S2","","html-keyboard-response","111","222045","0.0-1.0-148.0","0","0","99178","","null","","","null","16","","NaN","","","","","","","","","","","","","",""
"","response","","html-keyboard-response","112","222736","0.0-1.0-149.0-0.0","0","0","99178","","686","","","75","16","","","1","16","training","adjacent","CB","3","2","Q.jpg","N.jpg","0","0","1","",""
"","feedback","","html-keyboard-response","113","223752","0.0-1.0-150.0-0.0","0","0","99178","","null","","","null","16","","","","","","","","","","","","","","","",""
"","ITI","","html-keyboard-response","114","224765","0.0-1.0-153.0","0","0","99178","","null","","","null","16","","","","","","","","","","","","","","","NaN",""
"","S1","","html-keyboard-response","115","225021","0.0-1.0-155.0","0","0","99178","","null","","","null","17","","","","","","","","","","","","","","","",""
"","ISI","","html-keyboard-response","116","226029","0.0-1.0-156.0","0","0","99178","","null","","","null","17","NaN","","","","","","","","","","","","","","",""
"","S2","","html-keyboard-response","117","226285","0.0-1.0-157.0","0","0","99178","","null","","","null","17","","NaN","","","","","","","","","","","","","",""
"","response","","html-keyboard-response","118","227424","0.0-1.0-158.0-0.0","0","0","99178","","1135","","","68","17","","","1","17","training","adjacent","GF","7","6","P.jpg","L.jpg","1","0","0","",""
"","feedback","","html-keyboard-response","119","228440","0.0-1.0-159.0-0.0","0","0","99178","","null","","","null","17","","","","","","","","","","","","","","","",""
"","time_out","","html-keyboard-response","120","230445","0.0-1.0-161.0-0.0","0","0","99178","","null","","","null","17","","","","","","","","","","","","","","","",""
"","ITI","","html-keyboard-response","121","231453","0.0-1.0-162.0","0","0","99178","","null","","","null","17","","","","","","","","","","","","","","","NaN",""
"","S1","","html-keyboard-response","122","231709","0.0-1.0-164.0","0","0","99178","","null","","","null","18","","","","","","","","","","","","","","","",""
"","ISI","","html-keyboard-response","123","232717","0.0-1.0-165.0","0","0","99178","","null","","","null","18","NaN","","","","","","","","","","","","","","",""
"","S2","","html-keyboard-response","124","232973","0.0-1.0-166.0","0","0","99178","","null","","","null","18","","NaN","","","","","","","","","","","","","",""
"","response","","html-keyboard-response","125","233744","0.0-1.0-167.0-0.0","0","0","99178","","767","","","75","18","","","1","18","training","adjacent","ED","5","4","O.jpg","R.jpg","0","0","1","",""
"","feedback","","html-keyboard-response","126","234759","0.0-1.0-168.0-0.0","0","0","99178","","null","","","null","18","","","","","","","","","","","","","","","",""
"","ITI","","html-keyboard-response","127","235768","0.0-1.0-171.0","0","0","99178","","null","","","null","18","","","","","","","","","","","","","","","NaN",""
"","S1","","html-keyboard-response","128","236029","0.0-1.0-173.0","0","0","99178","","null","","","null","19","","","","","","","","","","","","","","","",""
"","ISI","","html-keyboard-response","129","237037","0.0-1.0-174.0","0","0","99178","","null","","","null","19","NaN","","","","","","","","","","","","","","",""
"","S2","","html-keyboard-response","130","237293","0.0-1.0-175.0","0","0","99178","","null","","","null","19","","NaN","","","","","","","","","","","","","",""
"","response","","html-keyboard-response","131","238082","0.0-1.0-176.0-0.0","0","0","99178","","785","","","75","19","","","1","19","training","adjacent","BA","2","1","N.jpg","M.jpg","0","0","1","",""
"","feedback","","html-keyboard-response","132","239096","0.0-1.0-177.0-0.0","0","0","99178","","null","","","null","19","","","","","","","","","","","","","","","",""
"","ITI","","html-keyboard-response","133","240104","0.0-1.0-180.0","0","0","99178","","null","","","null","19","","","","","","","","","","","","","","","NaN",""
"","S1","","html-keyboard-response","134","240365","0.0-1.0-182.0","0","0","99178","","null","","","null","20","","","","","","","","","","","","","","","",""
"","ISI","","html-keyboard-response","135","241373","0.0-1.0-183.0","0","0","99178","","null","","","null","20","NaN","","","","","","","","","","","","","","",""
"","S2","","html-keyboard-response","136","241629","0.0-1.0-184.0","0","0","99178","","null","","","null","20","","NaN","","","","","","","","","","","","","",""
"","response","","html-keyboard-response","137","242406","0.0-1.0-185.0-0.0","0","0","99178","","772","","","75","20","","","1","20","training","adjacent","AB","1","2","M.jpg","N.jpg","0","1","0","",""
"","feedback","","html-keyboard-response","138","243416","0.0-1.0-186.0-0.0","0","0","99178","","null","","","null","20","","","","","","","","","","","","","","","",""
"","time_out","","html-keyboard-response","139","245421","0.0-1.0-188.0-0.0","0","0","99178","","null","","","null","20","","","","","","","","","","","","","","","",""
"","ITI","","html-keyboard-response","140","246429","0.0-1.0-189.0","0","0","99178","","null","","","null","20","","","","","","","","","","","","","","","NaN",""
"","S1","","html-keyboard-response","141","246685","0.0-1.0-191.0","0","0","99178","","null","","","null","21","","","","","","","","","","","","","","","",""
"","ISI","","html-keyboard-response","142","247693","0.0-1.0-192.0","0","0","99178","","null","","","null","21","NaN","","","","","","","","","","","","","","",""
"","S2","","html-keyboard-response","143","247949","0.0-1.0-193.0","0","0","99178","","null","","","null","21","","NaN","","","","","","","","","","","","","",""
"","response","","html-keyboard-response","144","248800","0.0-1.0-194.0-0.0","0","0","99178","","847","","","75","21","","","1","21","training","adjacent","FG","6","7","L.jpg","P.jpg","0","1","0","",""
"","feedback","","html-keyboard-response","145","249815","0.0-1.0-195.0-0.0","0","0","99178","","null","","","null","21","","","","","","","","","","","","","","","",""
"","time_out","","html-keyboard-response","146","251821","0.0-1.0-197.0-0.0","0","0","99178","","null","","","null","21","","","","","","","","","","","","","","","",""
"","ITI","","html-keyboard-response","147","252829","0.0-1.0-198.0","0","0","99178","","null","","","null","21","","","","","","","","","","","","","","","NaN",""
"","S1","","html-keyboard-response","148","253085","0.0-1.0-200.0","0","0","99178","","null","","","null","22","","","","","","","","","","","","","","","",""
"","ISI","","html-keyboard-response","149","254093","0.0-1.0-201.0","0","0","99178","","null","","","null","22","NaN","","","","","","","","","","","","","","",""
"","S2","","html-keyboard-response","150","254349","0.0-1.0-202.0","0","0","99178","","null","","","null","22","","NaN","","","","","","","","","","","","","",""
"","response","","html-keyboard-response","151","255285","0.0-1.0-203.0-0.0","0","0","99178","","931","","","68","22","","","1","22","training","adjacent","DC","4","3","R.jpg","Q.jpg","1","0","0","",""
"","feedback","","html-keyboard-response","152","256296","0.0-1.0-204.0-0.0","0","0","99178","","null","","","null","22","","","","","","","","","","","","","","","",""
"","time_out","","html-keyboard-response","153","258312","0.0-1.0-206.0-0.0","0","0","99178","","null","","","null","22","","","","","","","","","","","","","","","",""
"","ITI","","html-keyboard-response","154","259320","0.0-1.0-207.0","0","0","99178","","null","","","null","22","","","","","","","","","","","","","","","NaN",""
"","S1","","html-keyboard-response","155","259581","0.0-1.0-209.0","0","0","99178","","null","","","null","23","","","","","","","","","","","","","","","",""
"","ISI","","html-keyboard-response","156","260589","0.0-1.0-210.0","0","0","99178","","null","","","null","23","NaN","","","","","","","","","","","","","","",""
"","S2","","html-keyboard-response","157","260845","0.0-1.0-211.0","0","0","99178","","null","","","null","23","","NaN","","","","","","","","","","","","","",""
"","response","","html-keyboard-response","158","261886","0.0-1.0-212.0-0.0","0","0","99178","","1036","","","68","23","","","1","23","training","adjacent","BA","2","1","N.jpg","M.jpg","1","0","0","",""
"","feedback","","html-keyboard-response","159","262893","0.0-1.0-213.0-0.0","0","0","99178","","null","","","null","23","","","","","","","","","","","","","","","",""
"","time_out","","html-keyboard-response","160","264903","0.0-1.0-215.0-0.0","0","0","99178","","null","","","null","23","","","","","","","","","","","","","","","",""
"","ITI","","html-keyboard-response","161","265912","0.0-1.0-216.0","0","0","99178","","null","","","null","23","","","","","","","","","","","","","","","NaN",""
"","S1","","html-keyboard-response","162","266173","0.0-1.0-218.0","0","0","99178","","null","","","null","24","","","","","","","","","","","","","","","",""
"","ISI","","html-keyboard-response","163","267180","0.0-1.0-219.0","0","0","99178","","null","","","null","24","NaN","","","","","","","","","","","","","","",""
"","S2","","html-keyboard-response","164","267437","0.0-1.0-220.0","0","0","99178","","null","","","null","24","","NaN","","","","","","","","","","","","","",""
"","response","","html-keyboard-response","165","268019","0.0-1.0-221.0-0.0","0","0","99178","","577","","","68","24","","","1","24","training","adjacent","AB","1","2","M.jpg","N.jpg","1","1","1","",""
"","feedback","","html-keyboard-response","166","269032","0.0-1.0-222.0-0.0","0","0","99178","","null","","","null","24","","","","","","","","","","","","","","","",""
"","ITI","","html-keyboard-response","167","270045","0.0-1.0-225.0","0","0","99178","","null","","","null","24","","","","","","","","","","","","","","","NaN",""
"","S1","","html-keyboard-response","168","270301","0.0-1.0-227.0","0","0","99178","","null","","","null","25","","","","","","","","","","","","","","","",""
"","ISI","","html-keyboard-response","169","271309","0.0-1.0-228.0","0","0","99178","","null","","","null","25","NaN","","","","","","","","","","","","","","",""
"","S2","","html-keyboard-response","170","271565","0.0-1.0-229.0","0","0","99178","","null","","","null","25","","NaN","","","","","","","","","","","","","",""
"","response","","html-keyboard-response","171","272204","0.0-1.0-230.0-0.0","0","0","99178","","635","","","68","25","","","1","25","training","adjacent","ED","5","4","O.jpg","R.jpg","1","0","0","",""
"","feedback","","html-keyboard-response","172","273213","0.0-1.0-231.0-0.0","0","0","99178","","null","","","null","25","","","","","","","","","","","","","","","",""
"","time_out","","html-keyboard-response","173","275224","0.0-1.0-233.0-0.0","0","0","99178","","null","","","null","25","","","","","","","","","","","","","","","",""
"","ITI","","html-keyboard-response","174","276232","0.0-1.0-234.0","0","0","99178","","null","","","null","25","","","","","","","","","","","","","","","NaN",""
"","S1","","html-keyboard-response","175","276493","0.0-1.0-236.0","0","0","99178","","null","","","null","26","","","","","","","","","","","","","","","",""
"","ISI","","html-keyboard-response","176","277501","0.0-1.0-237.0","0","0","99178","","null","","","null","26","NaN","","","","","","","","","","","","","","",""
"","S2","","html-keyboard-response","177","277757","0.0-1.0-238.0","0","0","99178","","null","","","null","26","","NaN","","","","","","","","","","","","","",""
"","response","","html-keyboard-response","178","278531","0.0-1.0-239.0-0.0","0","0","99178","","770","","","75","26","","","1","26","training","adjacent","GF","7","6","P.jpg","L.jpg","0","0","1","",""
"","feedback","","html-keyboard-response","179","279544","0.0-1.0-240.0-0.0","0","0","99178","","null","","","null","26","","","","","","","","","","","","","","","",""
"","ITI","","html-keyboard-response","180","280557","0.0-1.0-243.0","0","0","99178","","null","","","null","26","","","","","","","","","","","","","","","NaN",""
"","S1","","html-keyboard-response","181","280814","0.0-1.0-245.0","0","0","99178","","null","","","null","27","","","","","","","","","","","","","","","",""
"","ISI","","html-keyboard-response","182","281821","0.0-1.0-246.0","0","0","99178","","null","","","null","27","NaN","","","","","","","","","","","","","","",""
"","S2","","html-keyboard-response","183","282077","0.0-1.0-247.0","0","0","99178","","null","","","null","27","","NaN","","","","","","","","","","","","","",""
"","response","","html-keyboard-response","184","282569","0.0-1.0-248.0-0.0","0","0","99178","","487","","","68","27","","","1","27","training","adjacent","FE","6","5","L.jpg","O.jpg","1","0","0","",""
"","feedback","","html-keyboard-response","185","283581","0.0-1.0-249.0-0.0","0","0","99178","","null","","","null","27","","","","","","","","","","","","","","","",""
"","time_out","","html-keyboard-response","186","285592","0.0-1.0-251.0-0.0","0","0","99178","","null","","","null","27","","","","","","","","","","","","","","","",""
"","ITI","","html-keyboard-response","187","286606","0.0-1.0-252.0","0","0","99178","","null","","","null","27","","","","","","","","","","","","","","","NaN",""
"","S1","","html-keyboard-response","188","286861","0.0-1.0-254.0","0","0","99178","","null","","","null","28","","","","","","","","","","","","","","","",""
"","ISI","","html-keyboard-response","189","287870","0.0-1.0-255.0","0","0","99178","","null","","","null","28","NaN","","","","","","","","","","","","","","",""
"","S2","","html-keyboard-response","190","288125","0.0-1.0-256.0","0","0","99178","","null","","","null","28","","NaN","","","","","","","","","","","","","",""
"","response","","html-keyboard-response","191","289513","0.0-1.0-257.0-0.0","0","0","99178","","1383","","","75","28","","","1","28","training","adjacent","DE","4","5","R.jpg","O.jpg","0","1","0","",""
"","feedback","","html-keyboard-response","192","290525","0.0-1.0-258.0-0.0","0","0","99178","","null","","","null","28","","","","","","","","","","","","","","","",""
"","time_out","","html-keyboard-response","193","292536","0.0-1.0-260.0-0.0","0","0","99178","","null","","","null","28","","","","","","","","","","","","","","","",""
"","ITI","","html-keyboard-response","194","293544","0.0-1.0-261.0","0","0","99178","","null","","","null","28","","","","","","","","","","","","","","","NaN",""
"","S1","","html-keyboard-response","195","293806","0.0-1.0-263.0","0","0","99178","","null","","","null","29","","","","","","","","","","","","","","","",""
"","ISI","","html-keyboard-response","196","294813","0.0-1.0-264.0","0","0","99178","","null","","","null","29","NaN","","","","","","","","","","","","","","",""
"","S2","","html-keyboard-response","197","295069","0.0-1.0-265.0","0","0","99178","","null","","","null","29","","NaN","","","","","","","","","","","","","",""
"","response","","html-keyboard-response","198","296070","0.0-1.0-266.0-0.0","0","0","99178","","995","","","75","29","","","1","29","training","adjacent","DE","4","5","R.jpg","O.jpg","0","1","0","",""
"","feedback","","html-keyboard-response","199","297080","0.0-1.0-267.0-0.0","0","0","99178","","null","","","null","29","","","","","","","","","","","","","","","",""
"","time_out","","html-keyboard-response","200","299096","0.0-1.0-269.0-0.0","0","0","99178","","null","","","null","29","","","","","","","","","","","","","","","",""
"","ITI","","html-keyboard-response","201","300104","0.0-1.0-270.0","0","0","99178","","null","","","null","29","","","","","","","","","","","","","","","NaN",""
"","S1","","html-keyboard-response","202","300366","0.0-1.0-272.0","0","0","99178","","null","","","null","30","","","","","","","","","","","","","","","",""
"","ISI","","html-keyboard-response","203","301373","0.0-1.0-273.0","0","0","99178","","null","","","null","30","NaN","","","","","","","","","","","","","","",""
"","S2","","html-keyboard-response","204","301629","0.0-1.0-274.0","0","0","99178","","null","","","null","30","","NaN","","","","","","","","","","","","","",""
"","response","","html-keyboard-response","205","302643","0.0-1.0-275.0-0.0","0","0","99178","","1009","","","75","30","","","1","30","training","adjacent","FE","6","5","L.jpg","O.jpg","0","0","1","",""
"","feedback","","html-keyboard-response","206","303656","0.0-1.0-276.0-0.0","0","0","99178","","null","","","null","30","","","","","","","","","","","","","","","",""
"","ITI","","html-keyboard-response","207","304664","0.0-1.0-279.0","0","0","99178","","null","","","null","30","","","","","","","","","","","","","","","NaN",""
"","S1","","html-keyboard-response","208","304925","0.0-1.0-281.0","0","0","99178","","null","","","null","31","","","","","","","","","","","","","","","",""
"","ISI","","html-keyboard-response","209","305936","0.0-1.0-282.0","0","0","99178","","null","","","null","31","NaN","","","","","","","","","","","","","","",""
"","S2","","html-keyboard-response","210","306200","0.0-1.0-283.0","0","0","99178","","null","","","null","31","","NaN","","","","","","","","","","","","","",""
"","response","","html-keyboard-response","211","306960","0.0-1.0-284.0-0.0","0","0","99178","","755","","","75","31","","","1","31","training","adjacent","EF","5","6","O.jpg","L.jpg","0","1","0","",""
"","feedback","","html-keyboard-response","212","307976","0.0-1.0-285.0-0.0","0","0","99178","","null","","","null","31","","","","","","","","","","","","","","","",""
"","time_out","","html-keyboard-response","213","309992","0.0-1.0-287.0-0.0","0","0","99178","","null","","","null","31","","","","","","","","","","","","","","","",""
"","ITI","","html-keyboard-response","214","311006","0.0-1.0-288.0","0","0","99178","","null","","","null","31","","","","","","","","","","","","","","","NaN",""
"","S1","","html-keyboard-response","215","311262","0.0-1.0-290.0","0","0","99178","","null","","","null","32","","","","","","","","","","","","","","","",""
"","ISI","","html-keyboard-response","216","312269","0.0-1.0-291.0","0","0","99178","","null","","","null","32","NaN","","","","","","","","","","","","","","",""
"","S2","","html-keyboard-response","217","312526","0.0-1.0-292.0","0","0","99178","","null","","","null","32","","NaN","","","","","","","","","","","","","",""
"","response","","html-keyboard-response","218","314290","0.0-1.0-293.0-0.0","0","0","99178","","null","","","null","32","","","1","32","training","adjacent","ED","5","4","O.jpg","R.jpg","NaN","0","0","",""
"","too_slow_prompt","","html-keyboard-response","219","315304","0.0-1.0-295.0-0.0","1","0","99178","","null","","","null","","","","","","","","","","","","","","","","",""
"","time_out","","html-keyboard-response","220","317320","0.0-1.0-296.0-0.0","0","0","99178","","null","","","null","32","","","","","","","","","","","","","","","",""
"","ITI","","html-keyboard-response","221","318328","0.0-1.0-297.0","0","0","99178","","null","","","null","32","","","","","","","","","","","","","","","NaN",""
"","S1","","html-keyboard-response","222","318590","0.0-1.0-299.0","0","0","99178","","null","","","null","33","","","","","","","","","","","","","","","",""
"","ISI","","html-keyboard-response","223","319601","0.0-1.0-300.0","0","0","99178","","null","","","null","33","NaN","","","","","","","","","","","","","","",""
"","S2","","html-keyboard-response","224","319864","0.0-1.0-301.0","0","0","99178","","null","","","null","33","","NaN","","","","","","","","","","","","","",""
"","response","","html-keyboard-response","225","320453","0.0-1.0-302.0-0.0","0","0","99178","","583","","","75","33","","","1","33","training","adjacent","EF","5","6","O.jpg","L.jpg","0","1","0","",""
"","feedback","","html-keyboard-response","226","321464","0.0-1.0-303.0-0.0","0","0","99178","","null","","","null","33","","","","","","","","","","","","","","","",""
"","time_out","","html-keyboard-response","227","323480","0.0-1.0-305.0-0.0","0","0","99178","","null","","","null","33","","","","","","","","","","","","","","","",""
"","ITI","","html-keyboard-response","228","324488","0.0-1.0-306.0","0","0","99178","","null","","","null","33","","","","","","","","","","","","","","","NaN",""
"","S1","","html-keyboard-response","229","324750","0.0-1.0-308.0","0","0","99178","","null","","","null","34","","","","","","","","","","","","","","","",""
"","ISI","","html-keyboard-response","230","325757","0.0-1.0-309.0","0","0","99178","","null","","","null","34","NaN","","","","","","","","","","","","","","",""
"","S2","","html-keyboard-response","231","326014","0.0-1.0-310.0","0","0","99178","","null","","","null","34","","NaN","","","","","","","","","","","","","",""
"","response","","html-keyboard-response","232","326610","0.0-1.0-311.0-0.0","0","0","99178","","592","","","68","34","","","1","34","training","adjacent","DE","4","5","R.jpg","O.jpg","1","1","1","",""
"","feedback","","html-keyboard-response","233","327624","0.0-1.0-312.0-0.0","0","0","99178","","null","","","null","34","","","","","","","","","","","","","","","",""
"","ITI","","html-keyboard-response","234","328632","0.0-1.0-315.0","0","0","99178","","null","","","null","34","","","","","","","","","","","","","","","NaN",""
"","S1","","html-keyboard-response","235","328894","0.0-1.0-317.0","0","0","99178","","null","","","null","35","","","","","","","","","","","","","","","",""
"","ISI","","html-keyboard-response","236","329902","0.0-1.0-318.0","0","0","99178","","null","","","null","35","NaN","","","","","","","","","","","","","","",""
"","S2","","html-keyboard-response","237","330157","0.0-1.0-319.0","0","0","99178","","null","","","null","35","","NaN","","","","","","","","","","","","","",""
"","response","","html-keyboard-response","238","330829","0.0-1.0-320.0-0.0","0","0","99178","","667","","","68","35","","","1","35","training","adjacent","BC","2","3","N.jpg","Q.jpg","1","1","1","",""
"","feedback","","html-keyboard-response","239","331838","0.0-1.0-321.0-0.0","0","0","99178","","null","","","null","35","","","","","","","","","","","","","","","",""
"","ITI","","html-keyboard-response","240","332846","0.0-1.0-324.0","0","0","99178","","null","","","null","35","","","","","","","","","","","","","","","NaN",""
"","S1","","html-keyboard-response","241","333102","0.0-1.0-326.0","0","0","99178","","null","","","null","36","","","","","","","","","","","","","","","",""
"","ISI","","html-keyboard-response","242","334110","0.0-1.0-327.0","0","0","99178","","null","","","null","36","NaN","","","","","","","","","","","","","","",""
"","S2","","html-keyboard-response","243","334366","0.0-1.0-328.0","0","0","99178","","null","","","null","36","","NaN","","","","","","","","","","","","","",""
"","response","","html-keyboard-response","244","335267","0.0-1.0-329.0-0.0","0","0","99178","","897","","","68","36","","","1","36","training","adjacent","ED","5","4","O.jpg","R.jpg","1","0","0","",""
"","feedback","","html-keyboard-response","245","336281","0.0-1.0-330.0-0.0","0","0","99178","","null","","","null","36","","","","","","","","","","","","","","","",""
"","time_out","","html-keyboard-response","246","338296","0.0-1.0-332.0-0.0","0","0","99178","","null","","","null","36","","","","","","","","","","","","","","","",""
"","ITI","","html-keyboard-response","247","339304","0.0-1.0-333.0","0","0","99178","","null","","","null","36","","","","","","","","","","","","","","","NaN",""
"","S1","","html-keyboard-response","248","339566","0.0-1.0-335.0","0","0","99178","","null","","","null","37","","","","","","","","","","","","","","","",""
"","ISI","","html-keyboard-response","249","340574","0.0-1.0-336.0","0","0","99178","","null","","","null","37","NaN","","","","","","","","","","","","","","",""
"","S2","","html-keyboard-response","250","340830","0.0-1.0-337.0","0","0","99178","","null","","","null","37","","NaN","","","","","","","","","","","","","",""
"","response","","html-keyboard-response","251","341384","0.0-1.0-338.0-0.0","0","0","99178","","549","","","75","37","","","1","37","training","adjacent","FG","6","7","L.jpg","P.jpg","0","1","0","",""
"","feedback","","html-keyboard-response","252","342392","0.0-1.0-339.0-0.0","0","0","99178","","null","","","null","37","","","","","","","","","","","","","","","",""
"","time_out","","html-keyboard-response","253","344408","0.0-1.0-341.0-0.0","0","0","99178","","null","","","null","37","","","","","","","","","","","","","","","",""
"","ITI","","html-keyboard-response","254","345422","0.0-1.0-342.0","0","0","99178","","null","","","null","37","","","","","","","","","","","","","","","NaN",""
"","S1","","html-keyboard-response","255","345678","0.0-1.0-344.0","0","0","99178","","null","","","null","38","","","","","","","","","","","","","","","",""
"","ISI","","html-keyboard-response","256","346686","0.0-1.0-345.0","0","0","99178","","null","","","null","38","NaN","","","","","","","","","","","","","","",""
"","S2","","html-keyboard-response","257","346942","0.0-1.0-346.0","0","0","99178","","null","","","null","38","","NaN","","","","","","","","","","","","","",""
"","response","","html-keyboard-response","258","347607","0.0-1.0-347.0-0.0","0","0","99178","","660","","","68","38","","","1","38","training","adjacent","CD","3","4","Q.jpg","R.jpg","1","1","1","",""
"","feedback","","html-keyboard-response","259","348616","0.0-1.0-348.0-0.0","0","0","99178","","null","","","null","38","","","","","","","","","","","","","","","",""
"","ITI","","html-keyboard-response","260","349630","0.0-1.0-351.0","0","0","99178","","null","","","null","38","","","","","","","","","","","","","","","NaN",""
"","S1","","html-keyboard-response","261","349889","0.0-1.0-353.0","0","0","99178","","null","","","null","39","","","","","","","","","","","","","","","",""
"","ISI","","html-keyboard-response","262","350904","0.0-1.0-354.0","0","0","99178","","null","","","null","39","NaN","","","","","","","","","","","","","","",""
"","S2","","html-keyboard-response","263","351166","0.0-1.0-355.0","0","0","99178","","null","","","null","39","","NaN","","","","","","","","","","","","","",""
"","response","","html-keyboard-response","264","352252","0.0-1.0-356.0-0.0","0","0","99178","","1082","","","68","39","","","1","39","training","adjacent","EF","5","6","O.jpg","L.jpg","1","1","1","",""
"","feedback","","html-keyboard-response","265","353262","0.0-1.0-357.0-0.0","0","0","99178","","null","","","null","39","","","","","","","","","","","","","","","",""
"","ITI","","html-keyboard-response","266","354270","0.0-1.0-360.0","0","0","99178","","null","","","null","39","","","","","","","","","","","","","","","NaN",""
"","S1","","html-keyboard-response","267","354526","0.0-1.0-362.0","0","0","99178","","null","","","null","40","","","","","","","","","","","","","","","",""
"","ISI","","html-keyboard-response","268","355534","0.0-1.0-363.0","0","0","99178","","null","","","null","40","NaN","","","","","","","","","","","","","","",""
"","S2","","html-keyboard-response","269","355790","0.0-1.0-364.0","0","0","99178","","null","","","null","40","","NaN","","","","","","","","","","","","","",""
"","response","","html-keyboard-response","270","356434","0.0-1.0-365.0-0.0","0","0","99178","","639","","","75","40","","","1","40","training","adjacent","GF","7","6","P.jpg","L.jpg","0","0","1","",""
"","feedback","","html-keyboard-response","271","357448","0.0-1.0-366.0-0.0","0","0","99178","","null","","","null","40","","","","","","","","","","","","","","","",""
"","ITI","","html-keyboard-response","272","358462","0.0-1.0-369.0","0","0","99178","","null","","","null","40","","","","","","","","","","","","","","","NaN",""
"","S1","","html-keyboard-response","273","358718","0.0-1.0-371.0","0","0","99178","","null","","","null","41","","","","","","","","","","","","","","","",""
"","ISI","","html-keyboard-response","274","359726","0.0-1.0-372.0","0","0","99178","","null","","","null","41","NaN","","","","","","","","","","","","","","",""
"","S2","","html-keyboard-response","275","359982","0.0-1.0-373.0","0","0","99178","","null","","","null","41","","NaN","","","","","","","","","","","","","",""
"","response","","html-keyboard-response","276","361299","0.0-1.0-374.0-0.0","0","0","99178","","1313","","","68","41","","","1","41","training","adjacent","CB","3","2","Q.jpg","N.jpg","1","0","0","",""
"","feedback","","html-keyboard-response","277","362313","0.0-1.0-375.0-0.0","0","0","99178","","null","","","null","41","","","","","","","","","","","","","","","",""
"","time_out","","html-keyboard-response","278","364328","0.0-1.0-377.0-0.0","0","0","99178","","null","","","null","41","","","","","","","","","","","","","","","",""
"","ITI","","html-keyboard-response","279","365336","0.0-1.0-378.0","0","0","99178","","null","","","null","41","","","","","","","","","","","","","","","NaN",""
"","S1","","html-keyboard-response","280","365598","0.0-1.0-380.0","0","0","99178","","null","","","null","42","","","","","","","","","","","","","","","",""
"","ISI","","html-keyboard-response","281","366606","0.0-1.0-381.0","0","0","99178","","null","","","null","42","NaN","","","","","","","","","","","","","","",""
"","S2","","html-keyboard-response","282","366862","0.0-1.0-382.0","0","0","99178","","null","","","null","42","","NaN","","","","","","","","","","","","","",""
"","response","","html-keyboard-response","283","367390","0.0-1.0-383.0-0.0","0","0","99178","","523","","","75","42","","","1","42","training","adjacent","AB","1","2","M.jpg","N.jpg","0","1","0","",""
"","feedback","","html-keyboard-response","284","368398","0.0-1.0-384.0-0.0","0","0","99178","","null","","","null","42","","","","","","","","","","","","","","","",""
"","time_out","","html-keyboard-response","285","370409","0.0-1.0-386.0-0.0","0","0","99178","","null","","","null","42","","","","","","","","","","","","","","","",""
"","ITI","","html-keyboard-response","286","371422","0.0-1.0-387.0","0","0","99178","","null","","","null","42","","","","","","","","","","","","","","","NaN",""
"","S1","","html-keyboard-response","287","371678","0.0-1.0-389.0","0","0","99178","","null","","","null","43","","","","","","","","","","","","","","","",""
"","ISI","","html-keyboard-response","288","372686","0.0-1.0-390.0","0","0","99178","","null","","","null","43","NaN","","","","","","","","","","","","","","",""
"","S2","","html-keyboard-response","289","372942","0.0-1.0-391.0","0","0","99178","","null","","","null","43","","NaN","","","","","","","","","","","","","",""
"","response","","html-keyboard-response","290","373788","0.0-1.0-392.0-0.0","0","0","99178","","841","","","68","43","","","1","43","training","adjacent","BC","2","3","N.jpg","Q.jpg","1","1","1","",""
"","feedback","","html-keyboard-response","291","374798","0.0-1.0-393.0-0.0","0","0","99178","","null","","","null","43","","","","","","","","","","","","","","","",""
"","ITI","","html-keyboard-response","292","375806","0.0-1.0-396.0","0","0","99178","","null","","","null","43","","","","","","","","","","","","","","","NaN",""
"","S1","","html-keyboard-response","293","376062","0.0-1.0-398.0","0","0","99178","","null","","","null","44","","","","","","","","","","","","","","","",""
"","ISI","","html-keyboard-response","294","377070","0.0-1.0-399.0","0","0","99178","","null","","","null","44","NaN","","","","","","","","","","","","","","",""
"","S2","","html-keyboard-response","295","377326","0.0-1.0-400.0","0","0","99178","","null","","","null","44","","NaN","","","","","","","","","","","","","",""
"","response","","html-keyboard-response","296","377862","0.0-1.0-401.0-0.0","0","0","99178","","530","","","75","44","","","1","44","training","adjacent","FG","6","7","L.jpg","P.jpg","0","1","0","",""
"","feedback","","html-keyboard-response","297","378873","0.0-1.0-402.0-0.0","0","0","99178","","null","","","null","44","","","","","","","","","","","","","","","",""
"","time_out","","html-keyboard-response","298","380889","0.0-1.0-404.0-0.0","0","0","99178","","null","","","null","44","","","","","","","","","","","","","","","",""
"","ITI","","html-keyboard-response","299","381902","0.0-1.0-405.0","0","0","99178","","null","","","null","44","","","","","","","","","","","","","","","NaN",""
"","S1","","html-keyboard-response","300","382168","0.0-1.0-407.0","0","0","99178","","null","","","null","45","","","","","","","","","","","","","","","",""
"","ISI","","html-keyboard-response","301","383177","0.0-1.0-408.0","0","0","99178","","null","","","null","45","NaN","","","","","","","","","","","","","","",""
"","S2","","html-keyboard-response","302","383438","0.0-1.0-409.0","0","0","99178","","null","","","null","45","","NaN","","","","","","","","","","","","","",""
"","response","","html-keyboard-response","303","384084","0.0-1.0-410.0-0.0","0","0","99178","","641","","","75","45","","","1","45","training","adjacent","DE","4","5","R.jpg","O.jpg","0","1","0","",""
"","feedback","","html-keyboard-response","304","385097","0.0-1.0-411.0-0.0","0","0","99178","","null","","","null","45","","","","","","","","","","","","","","","",""
"","time_out","","html-keyboard-response","305","387114","0.0-1.0-413.0-0.0","0","0","99178","","null","","","null","45","","","","","","","","","","","","","","","",""
"","ITI","","html-keyboard-response","306","388126","0.0-1.0-414.0","0","0","99178","","null","","","null","45","","","","","","","","","","","","","","","NaN",""
"","S1","","html-keyboard-response","307","388382","0.0-1.0-416.0","0","0","99178","","null","","","null","46","","","","","","","","","","","","","","","",""
"","ISI","","html-keyboard-response","308","389390","0.0-1.0-417.0","0","0","99178","","null","","","null","46","NaN","","","","","","","","","","","","","","",""
"","S2","","html-keyboard-response","309","389646","0.0-1.0-418.0","0","0","99178","","null","","","null","46","","NaN","","","","","","","","","","","","","",""
"","response","","html-keyboard-response","310","390061","0.0-1.0-419.0-0.0","0","0","99178","","411","","","75","46","","","1","46","training","adjacent","FE","6","5","L.jpg","O.jpg","0","0","1","",""
"","feedback","","html-keyboard-response","311","391070","0.0-1.0-420.0-0.0","0","0","99178","","null","","","null","46","","","","","","","","","","","","","","","",""
"","ITI","","html-keyboard-response","312","392078","0.0-1.0-423.0","0","0","99178","","null","","","null","46","","","","","","","","","","","","","","","NaN",""
"","S1","","html-keyboard-response","313","392334","0.0-1.0-425.0","0","0","99178","","null","","","null","47","","","","","","","","","","","","","","","",""
"","ISI","","html-keyboard-response","314","393342","0.0-1.0-426.0","0","0","99178","","null","","","null","47","NaN","","","","","","","","","","","","","","",""
"","S2","","html-keyboard-response","315","393609","0.0-1.0-427.0","0","0","99178","","null","","","null","47","","NaN","","","","","","","","","","","","","",""
"","response","","html-keyboard-response","316","394959","0.0-1.0-428.0-0.0","0","0","99178","","1345","","","75","47","","","1","47","training","adjacent","DC","4","3","R.jpg","Q.jpg","0","0","1","",""
"","feedback","","html-keyboard-response","317","395966","0.0-1.0-429.0-0.0","0","0","99178","","null","","","null","47","","","","","","","","","","","","","","","",""
"","ITI","","html-keyboard-response","318","396974","0.0-1.0-432.0","0","0","99178","","null","","","null","47","","","","","","","","","","","","","","","NaN",""
"","block_over","","html-keyboard-response","319","415682","0.0-1.0-433.0-0.0","0","0","99178","","18702","","","32","47","","","","","","","","","","","","","","","",""
"","S1","","html-keyboard-response","320","415945","0.0-1.0-434.0","0","0","99178","","null","","","null","48","","","","","","","","","","","","","","","",""
"","ISI","","html-keyboard-response","321","416958","0.0-1.0-435.0","0","0","99178","","null","","","null","48","NaN","","","","","","","","","","","","","","",""
"","S2","","html-keyboard-response","322","417225","0.0-1.0-436.0","0","0","99178","","null","","","null","48","","NaN","","","","","","","","","","","","","",""
"","response","","html-keyboard-response","323","418170","0.0-1.0-437.0-0.0","0","0","99178","","940","","","68","48","","","2","48","training","adjacent","ED","5","4","O.jpg","R.jpg","1","0","0","",""
"","feedback","","html-keyboard-response","324","419182","0.0-1.0-438.0-0.0","0","0","99178","","null","","","null","48","","","","","","","","","","","","","","","",""
"","time_out","","html-keyboard-response","325","421193","0.0-1.0-440.0-0.0","0","0","99178","","null","","","null","48","","","","","","","","","","","","","","","",""
"","ITI","","html-keyboard-response","326","422201","0.0-1.0-441.0","0","0","99178","","null","","","null","48","","","","","","","","","","","","","","","NaN",""
"","S1","","html-keyboard-response","327","422462","0.0-1.0-443.0","0","0","99178","","null","","","null","49","","","","","","","","","","","","","","","",""
"","ISI","","html-keyboard-response","328","423470","0.0-1.0-444.0","0","0","99178","","null","","","null","49","NaN","","","","","","","","","","","","","","",""
"","S2","","html-keyboard-response","329","423726","0.0-1.0-445.0","0","0","99178","","null","","","null","49","","NaN","","","","","","","","","","","","","",""
"","response","","html-keyboard-response","330","424917","0.0-1.0-446.0-0.0","0","0","99178","","1186","","","68","49","","","2","49","training","adjacent","ED","5","4","O.jpg","R.jpg","1","0","0","",""
"","feedback","","html-keyboard-response","331","425929","0.0-1.0-447.0-0.0","0","0","99178","","null","","","null","49","","","","","","","","","","","","","","","",""
"","time_out","","html-keyboard-response","332","427945","0.0-1.0-449.0-0.0","0","0","99178","","null","","","null","49","","","","","","","","","","","","","","","",""
"","ITI","","html-keyboard-response","333","428953","0.0-1.0-450.0","0","0","99178","","null","","","null","49","","","","","","","","","","","","","","","NaN",""
"","S1","","html-keyboard-response","334","429214","0.0-1.0-452.0","0","0","99178","","null","","","null","50","","","","","","","","","","","","","","","",""
"","ISI","","html-keyboard-response","335","430223","0.0-1.0-453.0","0","0","99178","","null","","","null","50","NaN","","","","","","","","","","","","","","",""
"","S2","","html-keyboard-response","336","430489","0.0-1.0-454.0","0","0","99178","","null","","","null","50","","NaN","","","","","","","","","","","","","",""
"","response","","html-keyboard-response","337","431192","0.0-1.0-455.0-0.0","0","0","99178","","698","","","68","50","","","2","50","training","adjacent","BA","2","1","N.jpg","M.jpg","1","0","0","",""
"","feedback","","html-keyboard-response","338","432201","0.0-1.0-456.0-0.0","0","0","99178","","null","","","null","50","","","","","","","","","","","","","","","",""
"","time_out","","html-keyboard-response","339","434217","0.0-1.0-458.0-0.0","0","0","99178","","null","","","null","50","","","","","","","","","","","","","","","",""
"","ITI","","html-keyboard-response","340","435225","0.0-1.0-459.0","0","0","99178","","null","","","null","50","","","","","","","","","","","","","","","NaN",""
"","S1","","html-keyboard-response","341","435486","0.0-1.0-461.0","0","0","99178","","null","","","null","51","","","","","","","","","","","","","","","",""
"","ISI","","html-keyboard-response","342","436494","0.0-1.0-462.0","0","0","99178","","null","","","null","51","NaN","","","","","","","","","","","","","","",""
"","S2","","html-keyboard-response","343","436750","0.0-1.0-463.0","0","0","99178","","null","","","null","51","","NaN","","","","","","","","","","","","","",""
"","response","","html-keyboard-response","344","437142","0.0-1.0-464.0-0.0","0","0","99178","","387","","","75","51","","","2","51","training","adjacent","AB","1","2","M.jpg","N.jpg","0","1","0","",""
"","feedback","","html-keyboard-response","345","438153","0.0-1.0-465.0-0.0","0","0","99178","","null","","","null","51","","","","","","","","","","","","","","","",""
"","time_out","","html-keyboard-response","346","440169","0.0-1.0-467.0-0.0","0","0","99178","","null","","","null","51","","","","","","","","","","","","","","","",""
"","ITI","","html-keyboard-response","347","441177","0.0-1.0-468.0","0","0","99178","","null","","","null","51","","","","","","","","","","","","","","","NaN",""
"","S1","","html-keyboard-response","348","441438","0.0-1.0-470.0","0","0","99178","","null","","","null","52","","","","","","","","","","","","","","","",""
"","ISI","","html-keyboard-response","349","442446","0.0-1.0-471.0","0","0","99178","","null","","","null","52","NaN","","","","","","","","","","","","","","",""
"","S2","","html-keyboard-response","350","442702","0.0-1.0-472.0","0","0","99178","","null","","","null","52","","NaN","","","","","","","","","","","","","",""
"","response","","html-keyboard-response","351","443059","0.0-1.0-473.0-0.0","0","0","99178","","352","","","68","52","","","2","52","training","adjacent","DE","4","5","R.jpg","O.jpg","1","1","1","",""
"","feedback","","html-keyboard-response","352","444073","0.0-1.0-474.0-0.0","0","0","99178","","null","","","null","52","","","","","","","","","","","","","","","",""
"","ITI","","html-keyboard-response","353","445086","0.0-1.0-477.0","0","0","99178","","null","","","null","52","","","","","","","","","","","","","","","NaN",""
"","S1","","html-keyboard-response","354","445346","0.0-1.0-479.0","0","0","99178","","null","","","null","53","","","","","","","","","","","","","","","",""
"","ISI","","html-keyboard-response","355","446361","0.0-1.0-480.0","0","0","99178","","null","","","null","53","NaN","","","","","","","","","","","","","","",""
"","S2","","html-keyboard-response","356","446622","0.0-1.0-481.0","0","0","99178","","null","","","null","53","","NaN","","","","","","","","","","","","","",""
"","response","","html-keyboard-response","357","447146","0.0-1.0-482.0-0.0","0","0","99178","","519","","","75","53","","","2","53","training","adjacent","BC","2","3","N.jpg","Q.jpg","0","1","0","",""
"","feedback","","html-keyboard-response","358","448158","0.0-1.0-483.0-0.0","0","0","99178","","null","","","null","53","","","","","","","","","","","","","","","",""
"","time_out","","html-keyboard-response","359","450169","0.0-1.0-485.0-0.0","0","0","99178","","null","","","null","53","","","","","","","","","","","","","","","",""
"","ITI","","html-keyboard-response","360","451177","0.0-1.0-486.0","0","0","99178","","null","","","null","53","","","","","","","","","","","","","","","NaN",""
"","S1","","html-keyboard-response","361","451438","0.0-1.0-488.0","0","0","99178","","null","","","null","54","","","","","","","","","","","","","","","",""
"","ISI","","html-keyboard-response","362","452446","0.0-1.0-489.0","0","0","99178","","null","","","null","54","NaN","","","","","","","","","","","","","","",""
"","S2","","html-keyboard-response","363","452702","0.0-1.0-490.0","0","0","99178","","null","","","null","54","","NaN","","","","","","","","","","","","","",""
"","response","","html-keyboard-response","364","453096","0.0-1.0-491.0-0.0","0","0","99178","","389","","","68","54","","","2","54","training","adjacent","BA","2","1","N.jpg","M.jpg","1","0","0","",""
"","feedback","","html-keyboard-response","365","454105","0.0-1.0-492.0-0.0","0","0","99178","","null","","","null","54","","","","","","","","","","","","","","","",""
"","time_out","","html-keyboard-response","366","456121","0.0-1.0-494.0-0.0","0","0","99178","","null","","","null","54","","","","","","","","","","","","","","","",""
"","ITI","","html-keyboard-response","367","457129","0.0-1.0-495.0","0","0","99178","","null","","","null","54","","","","","","","","","","","","","","","NaN",""
"","S1","","html-keyboard-response","368","457390","0.0-1.0-497.0","0","0","99178","","null","","","null","55","","","","","","","","","","","","","","","",""
"","ISI","","html-keyboard-response","369","458399","0.0-1.0-498.0","0","0","99178","","null","","","null","55","NaN","","","","","","","","","","","","","","",""
"","S2","","html-keyboard-response","370","458665","0.0-1.0-499.0","0","0","99178","","null","","","null","55","","NaN","","","","","","","","","","","","","",""
"","response","","html-keyboard-response","371","460259","0.0-1.0-500.0-0.0","0","0","99178","","1589","","","75","55","","","2","55","training","adjacent","CD","3","4","Q.jpg","R.jpg","0","1","0","",""
"","feedback","","html-keyboard-response","372","461273","0.0-1.0-501.0-0.0","0","0","99178","","null","","","null","55","","","","","","","","","","","","","","","",""
"","time_out","","html-keyboard-response","373","463289","0.0-1.0-503.0-0.0","0","0","99178","","null","","","null","55","","","","","","","","","","","","","","","",""
"","ITI","","html-keyboard-response","374","464297","0.0-1.0-504.0","0","0","99178","","null","","","null","55","","","","","","","","","","","","","","","NaN",""
"","S1","","html-keyboard-response","375","464558","0.0-1.0-506.0","0","0","99178","","null","","","null","56","","","","","","","","","","","","","","","",""
"","ISI","","html-keyboard-response","376","465566","0.0-1.0-507.0","0","0","99178","","null","","","null","56","NaN","","","","","","","","","","","","","","",""
"","S2","","html-keyboard-response","377","465822","0.0-1.0-508.0","0","0","99178","","null","","","null","56","","NaN","","","","","","","","","","","","","",""
"","response","","html-keyboard-response","378","466796","0.0-1.0-509.0-0.0","0","0","99178","","969","","","68","56","","","2","56","training","adjacent","EF","5","6","O.jpg","L.jpg","1","1","1","",""
"","feedback","","html-keyboard-response","379","467806","0.0-1.0-510.0-0.0","0","0","99178","","null","","","null","56","","","","","","","","","","","","","","","",""
"","ITI","","html-keyboard-response","380","468814","0.0-1.0-513.0","0","0","99178","","null","","","null","56","","","","","","","","","","","","","","","NaN",""
"","S1","","html-keyboard-response","381","469070","0.0-1.0-515.0","0","0","99178","","null","","","null","57","","","","","","","","","","","","","","","",""
"","ISI","","html-keyboard-response","382","470078","0.0-1.0-516.0","0","0","99178","","null","","","null","57","NaN","","","","","","","","","","","","","","",""
"","S2","","html-keyboard-response","383","470334","0.0-1.0-517.0","0","0","99178","","null","","","null","57","","NaN","","","","","","","","","","","","","",""
"","response","","html-keyboard-response","384","471133","0.0-1.0-518.0-0.0","0","0","99178","","794","","","68","57","","","2","57","training","adjacent","DC","4","3","R.jpg","Q.jpg","1","0","0","",""
"","feedback","","html-keyboard-response","385","472142","0.0-1.0-519.0-0.0","0","0","99178","","null","","","null","57","","","","","","","","","","","","","","","",""
"","time_out","","html-keyboard-response","386","474153","0.0-1.0-521.0-0.0","0","0","99178","","null","","","null","57","","","","","","","","","","","","","","","",""
"","ITI","","html-keyboard-response","387","475166","0.0-1.0-522.0","0","0","99178","","null","","","null","57","","","","","","","","","","","","","","","NaN",""
"","S1","","html-keyboard-response","388","475422","0.0-1.0-524.0","0","0","99178","","null","","","null","58","","","","","","","","","","","","","","","",""
"","ISI","","html-keyboard-response","389","476431","0.0-1.0-525.0","0","0","99178","","null","","","null","58","NaN","","","","","","","","","","","","","","",""
"","S2","","html-keyboard-response","390","476697","0.0-1.0-526.0","0","0","99178","","null","","","null","58","","NaN","","","","","","","","","","","","","",""
"","response","","html-keyboard-response","391","477069","0.0-1.0-527.0-0.0","0","0","99178","","367","","","68","58","","","2","58","training","adjacent","CD","3","4","Q.jpg","R.jpg","1","1","1","",""
"","feedback","","html-keyboard-response","392","478078","0.0-1.0-528.0-0.0","0","0","99178","","null","","","null","58","","","","","","","","","","","","","","","",""
"","ITI","","html-keyboard-response","393","479086","0.0-1.0-531.0","0","0","99178","","null","","","null","58","","","","","","","","","","","","","","","NaN",""
"","S1","","html-keyboard-response","394","479342","0.0-1.0-533.0","0","0","99178","","null","","","null","59","","","","","","","","","","","","","","","",""
"","ISI","","html-keyboard-response","395","480350","0.0-1.0-534.0","0","0","99178","","null","","","null","59","NaN","","","","","","","","","","","","","","",""
"","S2","","html-keyboard-response","396","480607","0.0-1.0-535.0","0","0","99178","","null","","","null","59","","NaN","","","","","","","","","","","","","",""
"","response","","html-keyboard-response","397","481066","0.0-1.0-536.0-0.0","0","0","99178","","454","","","75","59","","","2","59","training","adjacent","FG","6","7","L.jpg","P.jpg","0","1","0","",""
"","feedback","","html-keyboard-response","398","482078","0.0-1.0-537.0-0.0","0","0","99178","","null","","","null","59","","","","","","","","","","","","","","","",""
"","time_out","","html-keyboard-response","399","484089","0.0-1.0-539.0-0.0","0","0","99178","","null","","","null","59","","","","","","","","","","","","","","","",""
"","ITI","","html-keyboard-response","400","485102","0.0-1.0-540.0","0","0","99178","","null","","","null","59","","","","","","","","","","","","","","","NaN",""
"","S1","","html-keyboard-response","401","485358","0.0-1.0-542.0","0","0","99178","","null","","","null","60","","","","","","","","","","","","","","","",""
"","ISI","","html-keyboard-response","402","486369","0.0-1.0-543.0","0","0","99178","","null","","","null","60","NaN","","","","","","","","","","","","","","",""
"","S2","","html-keyboard-response","403","486633","0.0-1.0-544.0","0","0","99178","","null","","","null","60","","NaN","","","","","","","","","","","","","",""
"","response","","html-keyboard-response","404","487820","0.0-1.0-545.0-0.0","0","0","99178","","1182","","","68","60","","","2","60","training","adjacent","BC","2","3","N.jpg","Q.jpg","1","1","1","",""
"","feedback","","html-keyboard-response","405","488831","0.0-1.0-546.0-0.0","0","0","99178","","null","","","null","60","","","","","","","","","","","","","","","",""
"","ITI","","html-keyboard-response","406","489838","0.0-1.0-549.0","0","0","99178","","null","","","null","60","","","","","","","","","","","","","","","NaN",""
"","S1","","html-keyboard-response","407","490095","0.0-1.0-551.0","0","0","99178","","null","","","null","61","","","","","","","","","","","","","","","",""
"","ISI","","html-keyboard-response","408","491102","0.0-1.0-552.0","0","0","99178","","null","","","null","61","NaN","","","","","","","","","","","","","","",""
"","S2","","html-keyboard-response","409","491359","0.0-1.0-553.0","0","0","99178","","null","","","null","61","","NaN","","","","","","","","","","","","","",""
"","response","","html-keyboard-response","410","492777","0.0-1.0-554.0-0.0","0","0","99178","","1413","","","68","61","","","2","61","training","adjacent","FG","6","7","L.jpg","P.jpg","1","1","1","",""
"","feedback","","html-keyboard-response","411","493791","0.0-1.0-555.0-0.0","0","0","99178","","null","","","null","61","","","","","","","","","","","","","","","",""
"","ITI","","html-keyboard-response","412","494799","0.0-1.0-558.0","0","0","99178","","null","","","null","61","","","","","","","","","","","","","","","NaN",""
"","S1","","html-keyboard-response","413","495055","0.0-1.0-560.0","0","0","99178","","null","","","null","62","","","","","","","","","","","","","","","",""
"","ISI","","html-keyboard-response","414","496063","0.0-1.0-561.0","0","0","99178","","null","","","null","62","NaN","","","","","","","","","","","","","","",""
"","S2","","html-keyboard-response","415","496319","0.0-1.0-562.0","0","0","99178","","null","","","null","62","","NaN","","","","","","","","","","","","","",""
"","response","","html-keyboard-response","416","496828","0.0-1.0-563.0-0.0","0","0","99178","","504","","","75","62","","","2","62","training","adjacent","DE","4","5","R.jpg","O.jpg","0","1","0","",""
"","feedback","","html-keyboard-response","417","497839","0.0-1.0-564.0-0.0","0","0","99178","","null","","","null","62","","","","","","","","","","","","","","","",""
"","time_out","","html-keyboard-response","418","499849","0.0-1.0-566.0-0.0","0","0","99178","","null","","","null","62","","","","","","","","","","","","","","","",""
"","ITI","","html-keyboard-response","419","500857","0.0-1.0-567.0","0","0","99178","","null","","","null","62","","","","","","","","","","","","","","","NaN",""
"","S1","","html-keyboard-response","420","501119","0.0-1.0-569.0","0","0","99178","","null","","","null","63","","","","","","","","","","","","","","","",""
"","ISI","","html-keyboard-response","421","502127","0.0-1.0-570.0","0","0","99178","","null","","","null","63","NaN","","","","","","","","","","","","","","",""
"","S2","","html-keyboard-response","422","502393","0.0-1.0-571.0","0","0","99178","","null","","","null","63","","NaN","","","","","","","","","","","","","",""
"","response","","html-keyboard-response","423","503122","0.0-1.0-572.0-0.0","0","0","99178","","724","","","68","63","","","2","63","training","adjacent","AB","1","2","M.jpg","N.jpg","1","1","1","",""
"","feedback","","html-keyboard-response","424","504137","0.0-1.0-573.0-0.0","0","0","99178","","null","","","null","63","","","","","","","","","","","","","","","",""
"","ITI","","html-keyboard-response","425","505151","0.0-1.0-576.0","0","0","99178","","null","","","null","63","","","","","","","","","","","","","","","NaN",""
"","S1","","html-keyboard-response","426","505406","0.0-1.0-578.0","0","0","99178","","null","","","null","64","","","","","","","","","","","","","","","",""
"","ISI","","html-keyboard-response","427","506415","0.0-1.0-579.0","0","0","99178","","null","","","null","64","NaN","","","","","","","","","","","","","","",""
"","S2","","html-keyboard-response","428","506681","0.0-1.0-580.0","0","0","99178","","null","","","null","64","","NaN","","","","","","","","","","","","","",""
"","response","","html-keyboard-response","429","507758","0.0-1.0-581.0-0.0","0","0","99178","","1072","","","68","64","","","2","64","training","adjacent","CB","3","2","Q.jpg","N.jpg","1","0","0","",""
"","feedback","","html-keyboard-response","430","508766","0.0-1.0-582.0-0.0","0","0","99178","","null","","","null","64","","","","","","","","","","","","","","","",""
"","time_out","","html-keyboard-response","431","510777","0.0-1.0-584.0-0.0","0","0","99178","","null","","","null","64","","","","","","","","","","","","","","","",""
"","ITI","","html-keyboard-response","432","511791","0.0-1.0-585.0","0","0","99178","","null","","","null","64","","","","","","","","","","","","","","","NaN",""
"","S1","","html-keyboard-response","433","512047","0.0-1.0-587.0","0","0","99178","","null","","","null","65","","","","","","","","","","","","","","","",""
"","ISI","","html-keyboard-response","434","513055","0.0-1.0-588.0","0","0","99178","","null","","","null","65","NaN","","","","","","","","","","","","","","",""
"","S2","","html-keyboard-response","435","513311","0.0-1.0-589.0","0","0","99178","","null","","","null","65","","NaN","","","","","","","","","","","","","",""
"","response","","html-keyboard-response","436","514905","0.0-1.0-590.0-0.0","0","0","99178","","1589","","","68","65","","","2","65","training","adjacent","ED","5","4","O.jpg","R.jpg","1","0","0","",""
"","feedback","","html-keyboard-response","437","515913","0.0-1.0-591.0-0.0","0","0","99178","","null","","","null","65","","","","","","","","","","","","","","","",""
"","time_out","","html-keyboard-response","438","517929","0.0-1.0-593.0-0.0","0","0","99178","","null","","","null","65","","","","","","","","","","","","","","","",""
"","ITI","","html-keyboard-response","439","518937","0.0-1.0-594.0","0","0","99178","","null","","","null","65","","","","","","","","","","","","","","","NaN",""
"","S1","","html-keyboard-response","440","519199","0.0-1.0-596.0","0","0","99178","","null","","","null","66","","","","","","","","","","","","","","","",""
"","ISI","","html-keyboard-response","441","520207","0.0-1.0-597.0","0","0","99178","","null","","","null","66","NaN","","","","","","","","","","","","","","",""
"","S2","","html-keyboard-response","442","520462","0.0-1.0-598.0","0","0","99178","","null","","","null","66","","NaN","","","","","","","","","","","","","",""
"","response","","html-keyboard-response","443","521097","0.0-1.0-599.0-0.0","0","0","99178","","629","","","75","66","","","2","66","training","adjacent","FE","6","5","L.jpg","O.jpg","0","0","1","",""
"","feedback","","html-keyboard-response","444","522105","0.0-1.0-600.0-0.0","0","0","99178","","null","","","null","66","","","","","","","","","","","","","","","",""
"","ITI","","html-keyboard-response","445","523119","0.0-1.0-603.0","0","0","99178","","null","","","null","66","","","","","","","","","","","","","","","NaN",""
"","S1","","html-keyboard-response","446","523375","0.0-1.0-605.0","0","0","99178","","null","","","null","67","","","","","","","","","","","","","","","",""
"","ISI","","html-keyboard-response","447","524383","0.0-1.0-606.0","0","0","99178","","null","","","null","67","NaN","","","","","","","","","","","","","","",""
"","S2","","html-keyboard-response","448","524639","0.0-1.0-607.0","0","0","99178","","null","","","null","67","","NaN","","","","","","","","","","","","","",""
"","response","","html-keyboard-response","449","525174","0.0-1.0-608.0-0.0","0","0","99178","","531","","","68","67","","","2","67","training","adjacent","GF","7","6","P.jpg","L.jpg","1","0","0","",""
"","feedback","","html-keyboard-response","450","526185","0.0-1.0-609.0-0.0","0","0","99178","","null","","","null","67","","","","","","","","","","","","","","","",""
"","time_out","","html-keyboard-response","451","528201","0.0-1.0-611.0-0.0","0","0","99178","","null","","","null","67","","","","","","","","","","","","","","","",""
"","ITI","","html-keyboard-response","452","529210","0.0-1.0-612.0","0","0","99178","","null","","","null","67","","","","","","","","","","","","","","","NaN",""
"","S1","","html-keyboard-response","453","529470","0.0-1.0-614.0","0","0","99178","","null","","","null","68","","","","","","","","","","","","","","","",""
"","ISI","","html-keyboard-response","454","530479","0.0-1.0-615.0","0","0","99178","","null","","","null","68","NaN","","","","","","","","","","","","","","",""
"","S2","","html-keyboard-response","455","530735","0.0-1.0-616.0","0","0","99178","","null","","","null","68","","NaN","","","","","","","","","","","","","",""
"","response","","html-keyboard-response","456","531428","0.0-1.0-617.0-0.0","0","0","99178","","688","","","75","68","","","2","68","training","adjacent","DC","4","3","R.jpg","Q.jpg","0","0","1","",""
"","feedback","","html-keyboard-response","457","532441","0.0-1.0-618.0-0.0","0","0","99178","","null","","","null","68","","","","","","","","","","","","","","","",""
"","ITI","","html-keyboard-response","458","533455","0.0-1.0-621.0","0","0","99178","","null","","","null","68","","","","","","","","","","","","","","","NaN",""
"","S1","","html-keyboard-response","459","533710","0.0-1.0-623.0","0","0","99178","","null","","","null","69","","","","","","","","","","","","","","","",""
"","ISI","","html-keyboard-response","460","534719","0.0-1.0-624.0","0","0","99178","","null","","","null","69","NaN","","","","","","","","","","","","","","",""
"","S2","","html-keyboard-response","461","534975","0.0-1.0-625.0","0","0","99178","","null","","","null","69","","NaN","","","","","","","","","","","","","",""
"","response","","html-keyboard-response","462","536626","0.0-1.0-626.0-0.0","0","0","99178","","1646","","","68","69","","","2","69","training","adjacent","AB","1","2","M.jpg","N.jpg","1","1","1","",""
"","feedback","","html-keyboard-response","463","537641","0.0-1.0-627.0-0.0","0","0","99178","","null","","","null","69","","","","","","","","","","","","","","","",""
"","ITI","","html-keyboard-response","464","538655","0.0-1.0-630.0","0","0","99178","","null","","","null","69","","","","","","","","","","","","","","","NaN",""
"","S1","","html-keyboard-response","465","538921","0.0-1.0-632.0","0","0","99178","","null","","","null","70","","","","","","","","","","","","","","","",""
"","ISI","","html-keyboard-response","466","539929","0.0-1.0-633.0","0","0","99178","","null","","","null","70","NaN","","","","","","","","","","","","","","",""
"","S2","","html-keyboard-response","467","540191","0.0-1.0-634.0","0","0","99178","","null","","","null","70","","NaN","","","","","","","","","","","","","",""
"","response","","html-keyboard-response","468","541087","0.0-1.0-635.0-0.0","0","0","99178","","891","","","68","70","","","2","70","training","adjacent","CB","3","2","Q.jpg","N.jpg","1","0","0","",""
"","feedback","","html-keyboard-response","469","542095","0.0-1.0-636.0-0.0","0","0","99178","","null","","","null","70","","","","","","","","","","","","","","","",""
"","time_out","","html-keyboard-response","470","544105","0.0-1.0-638.0-0.0","0","0","99178","","null","","","null","70","","","","","","","","","","","","","","","",""
"","ITI","","html-keyboard-response","471","545114","0.0-1.0-639.0","0","0","99178","","null","","","null","70","","","","","","","","","","","","","","","NaN",""
"","S1","","html-keyboard-response","472","545375","0.0-1.0-641.0","0","0","99178","","null","","","null","71","","","","","","","","","","","","","","","",""
"","ISI","","html-keyboard-response","473","546383","0.0-1.0-642.0","0","0","99178","","null","","","null","71","NaN","","","","","","","","","","","","","","",""
"","S2","","html-keyboard-response","474","546639","0.0-1.0-643.0","0","0","99178","","null","","","null","71","","NaN","","","","","","","","","","","","","",""
"","response","","html-keyboard-response","475","547740","0.0-1.0-644.0-0.0","0","0","99178","","1096","","","68","71","","","2","71","training","adjacent","EF","5","6","O.jpg","L.jpg","1","1","1","",""
"","feedback","","html-keyboard-response","476","548751","0.0-1.0-645.0-0.0","0","0","99178","","null","","","null","71","","","","","","","","","","","","","","","",""
"","ITI","","html-keyboard-response","477","549759","0.0-1.0-648.0","0","0","99178","","null","","","null","71","","","","","","","","","","","","","","","NaN",""
"","S1","","html-keyboard-response","478","550015","0.0-1.0-650.0","0","0","99178","","null","","","null","72","","","","","","","","","","","","","","","",""
"","ISI","","html-keyboard-response","479","551023","0.0-1.0-651.0","0","0","99178","","null","","","null","72","NaN","","","","","","","","","","","","","","",""
"","S2","","html-keyboard-response","480","551279","0.0-1.0-652.0","0","0","99178","","null","","","null","72","","NaN","","","","","","","","","","","","","",""
"","response","","html-keyboard-response","481","551749","0.0-1.0-653.0-0.0","0","0","99178","","466","","","75","72","","","2","72","training","adjacent","BC","2","3","N.jpg","Q.jpg","0","1","0","",""
"","feedback","","html-keyboard-response","482","552761","0.0-1.0-654.0-0.0","0","0","99178","","null","","","null","72","","","","","","","","","","","","","","","",""
"","time_out","","html-keyboard-response","483","554777","0.0-1.0-656.0-0.0","0","0","99178","","null","","","null","72","","","","","","","","","","","","","","","",""
"","ITI","","html-keyboard-response","484","555785","0.0-1.0-657.0","0","0","99178","","null","","","null","72","","","","","","","","","","","","","","","NaN",""
"","S1","","html-keyboard-response","485","556046","0.0-1.0-659.0","0","0","99178","","null","","","null","73","","","","","","","","","","","","","","","",""
"","ISI","","html-keyboard-response","486","557054","0.0-1.0-660.0","0","0","99178","","null","","","null","73","NaN","","","","","","","","","","","","","","",""
"","S2","","html-keyboard-response","487","557310","0.0-1.0-661.0","0","0","99178","","null","","","null","73","","NaN","","","","","","","","","","","","","",""
"","response","","html-keyboard-response","488","558802","0.0-1.0-662.0-0.0","0","0","99178","","1487","","","68","73","","","2","73","training","adjacent","CB","3","2","Q.jpg","N.jpg","1","0","0","",""
"","feedback","","html-keyboard-response","489","559817","0.0-1.0-663.0-0.0","0","0","99178","","null","","","null","73","","","","","","","","","","","","","","","",""
"","time_out","","html-keyboard-response","490","561835","0.0-1.0-665.0-0.0","0","0","99178","","null","","","null","73","","","","","","","","","","","","","","","",""
"","ITI","","html-keyboard-response","491","562847","0.0-1.0-666.0","0","0","99178","","null","","","null","73","","","","","","","","","","","","","","","NaN",""
"","S1","","html-keyboard-response","492","563103","0.0-1.0-668.0","0","0","99178","","null","","","null","74","","","","","","","","","","","","","","","",""
"","ISI","","html-keyboard-response","493","564111","0.0-1.0-669.0","0","0","99178","","null","","","null","74","NaN","","","","","","","","","","","","","","",""
"","S2","","html-keyboard-response","494","564367","0.0-1.0-670.0","0","0","99178","","null","","","null","74","","NaN","","","","","","","","","","","","","",""
"","response","","html-keyboard-response","495","565089","0.0-1.0-671.0-0.0","0","0","99178","","717","","","75","74","","","2","74","training","adjacent","FG","6","7","L.jpg","P.jpg","0","1","0","",""
"","feedback","","html-keyboard-response","496","566105","0.0-1.0-672.0-0.0","0","0","99178","","null","","","null","74","","","","","","","","","","","","","","","",""
"","time_out","","html-keyboard-response","497","568122","0.0-1.0-674.0-0.0","0","0","99178","","null","","","null","74","","","","","","","","","","","","","","","",""
"","ITI","","html-keyboard-response","498","569135","0.0-1.0-675.0","0","0","99178","","null","","","null","74","","","","","","","","","","","","","","","NaN",""
"","S1","","html-keyboard-response","499","569402","0.0-1.0-677.0","0","0","99178","","null","","","null","75","","","","","","","","","","","","","","","",""
"","ISI","","html-keyboard-response","500","570415","0.0-1.0-678.0","0","0","99178","","null","","","null","75","NaN","","","","","","","","","","","","","","",""
"","S2","","html-keyboard-response","501","570671","0.0-1.0-679.0","0","0","99178","","null","","","null","75","","NaN","","","","","","","","","","","","","",""
"","response","","html-keyboard-response","502","571422","0.0-1.0-680.0-0.0","0","0","99178","","747","","","68","75","","","2","75","training","adjacent","ED","5","4","O.jpg","R.jpg","1","0","0","",""
"","feedback","","html-keyboard-response","503","572431","0.0-1.0-681.0-0.0","0","0","99178","","null","","","null","75","","","","","","","","","","","","","","","",""
"","time_out","","html-keyboard-response","504","574442","0.0-1.0-683.0-0.0","0","0","99178","","null","","","null","75","","","","","","","","","","","","","","","",""
"","ITI","","html-keyboard-response","505","575455","0.0-1.0-684.0","0","0","99178","","null","","","null","75","","","","","","","","","","","","","","","NaN",""
"","S1","","html-keyboard-response","506","575711","0.0-1.0-686.0","0","0","99178","","null","","","null","76","","","","","","","","","","","","","","","",""
"","ISI","","html-keyboard-response","507","576719","0.0-1.0-687.0","0","0","99178","","null","","","null","76","NaN","","","","","","","","","","","","","","",""
"","S2","","html-keyboard-response","508","576975","0.0-1.0-688.0","0","0","99178","","null","","","null","76","","NaN","","","","","","","","","","","","","",""
"","response","","html-keyboard-response","509","577834","0.0-1.0-689.0-0.0","0","0","99178","","854","","","75","76","","","2","76","training","adjacent","FE","6","5","L.jpg","O.jpg","0","0","1","",""
"","feedback","","html-keyboard-response","510","578847","0.0-1.0-690.0-0.0","0","0","99178","","null","","","null","76","","","","","","","","","","","","","","","",""
"","ITI","","html-keyboard-response","511","579855","0.0-1.0-693.0","0","0","99178","","null","","","null","76","","","","","","","","","","","","","","","NaN",""
"","S1","","html-keyboard-response","512","580111","0.0-1.0-695.0","0","0","99178","","null","","","null","77","","","","","","","","","","","","","","","",""
"","ISI","","html-keyboard-response","513","581119","0.0-1.0-696.0","0","0","99178","","null","","","null","77","NaN","","","","","","","","","","","","","","",""
"","S2","","html-keyboard-response","514","581386","0.0-1.0-697.0","0","0","99178","","null","","","null","77","","NaN","","","","","","","","","","","","","",""
"","response","","html-keyboard-response","515","582276","0.0-1.0-698.0-0.0","0","0","99178","","885","","","75","77","","","2","77","training","adjacent","BA","2","1","N.jpg","M.jpg","0","0","1","",""
"","feedback","","html-keyboard-response","516","583290","0.0-1.0-699.0-0.0","0","0","99178","","null","","","null","77","","","","","","","","","","","","","","","",""
"","ITI","","html-keyboard-response","517","584303","0.0-1.0-702.0","0","0","99178","","null","","","null","77","","","","","","","","","","","","","","","NaN",""
"","S1","","html-keyboard-response","518","584559","0.0-1.0-704.0","0","0","99178","","null","","","null","78","","","","","","","","","","","","","","","",""
"","ISI","","html-keyboard-response","519","585567","0.0-1.0-705.0","0","0","99178","","null","","","null","78","NaN","","","","","","","","","","","","","","",""
"","S2","","html-keyboard-response","520","585834","0.0-1.0-706.0","0","0","99178","","null","","","null","78","","NaN","","","","","","","","","","","","","",""
"","response","","html-keyboard-response","521","586972","0.0-1.0-707.0-0.0","0","0","99178","","1134","","","68","78","","","2","78","training","adjacent","GF","7","6","P.jpg","L.jpg","1","0","0","",""
"","feedback","","html-keyboard-response","522","587983","0.0-1.0-708.0-0.0","0","0","99178","","null","","","null","78","","","","","","","","","","","","","","","",""
"","time_out","","html-keyboard-response","523","589994","0.0-1.0-710.0-0.0","0","0","99178","","null","","","null","78","","","","","","","","","","","","","","","",""
"","ITI","","html-keyboard-response","524","591007","0.0-1.0-711.0","0","0","99178","","null","","","null","78","","","","","","","","","","","","","","","NaN",""
"","S1","","html-keyboard-response","525","591263","0.0-1.0-713.0","0","0","99178","","null","","","null","79","","","","","","","","","","","","","","","",""
"","ISI","","html-keyboard-response","526","592271","0.0-1.0-714.0","0","0","99178","","null","","","null","79","NaN","","","","","","","","","","","","","","",""
"","S2","","html-keyboard-response","527","592527","0.0-1.0-715.0","0","0","99178","","null","","","null","79","","NaN","","","","","","","","","","","","","",""
"","response","","html-keyboard-response","528","593009","0.0-1.0-716.0-0.0","0","0","99178","","476","","","68","79","","","2","79","training","adjacent","BA","2","1","N.jpg","M.jpg","1","0","0","",""
"","feedback","","html-keyboard-response","529","594015","0.0-1.0-717.0-0.0","0","0","99178","","null","","","null","79","","","","","","","","","","","","","","","",""
"","time_out","","html-keyboard-response","530","596026","0.0-1.0-719.0-0.0","0","0","99178","","null","","","null","79","","","","","","","","","","","","","","","",""
"","ITI","","html-keyboard-response","531","597034","0.0-1.0-720.0","0","0","99178","","null","","","null","79","","","","","","","","","","","","","","","NaN",""
"","S1","","html-keyboard-response","532","597295","0.0-1.0-722.0","0","0","99178","","null","","","null","80","","","","","","","","","","","","","","","",""
"","ISI","","html-keyboard-response","533","598303","0.0-1.0-723.0","0","0","99178","","null","","","null","80","NaN","","","","","","","","","","","","","","",""
"","S2","","html-keyboard-response","534","598570","0.0-1.0-724.0","0","0","99178","","null","","","null","80","","NaN","","","","","","","","","","","","","",""
"","response","","html-keyboard-response","535","600330","0.0-1.0-725.0-0.0","0","0","99178","","null","","","null","80","","","2","80","training","adjacent","DE","4","5","R.jpg","O.jpg","NaN","1","0","",""
"","too_slow_prompt","","html-keyboard-response","536","601343","0.0-1.0-727.0-0.0","1","0","99178","","null","","","null","","","","","","","","","","","","","","","","",""
"","time_out","","html-keyboard-response","537","603354","0.0-1.0-728.0-0.0","0","0","99178","","null","","","null","80","","","","","","","","","","","","","","","",""
"","ITI","","html-keyboard-response","538","604367","0.0-1.0-729.0","0","0","99178","","null","","","null","80","","","","","","","","","","","","","","","NaN",""
"","S1","","html-keyboard-response","539","604623","0.0-1.0-731.0","0","0","99178","","null","","","null","81","","","","","","","","","","","","","","","",""
"","ISI","","html-keyboard-response","540","605631","0.0-1.0-732.0","0","0","99178","","null","","","null","81","NaN","","","","","","","","","","","","","","",""
"","S2","","html-keyboard-response","541","605887","0.0-1.0-733.0","0","0","99178","","null","","","null","81","","NaN","","","","","","","","","","","","","",""
"","response","","html-keyboard-response","542","606620","0.0-1.0-734.0-0.0","0","0","99178","","728","","","68","81","","","2","81","training","adjacent","EF","5","6","O.jpg","L.jpg","1","1","1","",""
"","feedback","","html-keyboard-response","543","607631","0.0-1.0-735.0-0.0","0","0","99178","","null","","","null","81","","","","","","","","","","","","","","","",""
"","ITI","","html-keyboard-response","544","608640","0.0-1.0-738.0","0","0","99178","","null","","","null","81","","","","","","","","","","","","","","","NaN",""
"","S1","","html-keyboard-response","545","608895","0.0-1.0-740.0","0","0","99178","","null","","","null","82","","","","","","","","","","","","","","","",""
"","ISI","","html-keyboard-response","546","609903","0.0-1.0-741.0","0","0","99178","","null","","","null","82","NaN","","","","","","","","","","","","","","",""
"","S2","","html-keyboard-response","547","610160","0.0-1.0-742.0","0","0","99178","","null","","","null","82","","NaN","","","","","","","","","","","","","",""
"","response","","html-keyboard-response","548","611070","0.0-1.0-743.0-0.0","0","0","99178","","905","","","68","82","","","2","82","training","adjacent","AB","1","2","M.jpg","N.jpg","1","1","1","",""
"","feedback","","html-keyboard-response","549","612080","0.0-1.0-744.0-0.0","0","0","99178","","null","","","null","82","","","","","","","","","","","","","","","",""
"","ITI","","html-keyboard-response","550","613087","0.0-1.0-747.0","0","0","99178","","null","","","null","82","","","","","","","","","","","","","","","NaN",""
"","S1","","html-keyboard-response","551","613343","0.0-1.0-749.0","0","0","99178","","null","","","null","83","","","","","","","","","","","","","","","",""
"","ISI","","html-keyboard-response","552","614351","0.0-1.0-750.0","0","0","99178","","null","","","null","83","NaN","","","","","","","","","","","","","","",""
"","S2","","html-keyboard-response","553","614607","0.0-1.0-751.0","0","0","99178","","null","","","null","83","","NaN","","","","","","","","","","","","","",""
"","response","","html-keyboard-response","554","615466","0.0-1.0-752.0-0.0","0","0","99178","","853","","","68","83","","","2","83","training","adjacent","FE","6","5","L.jpg","O.jpg","1","0","0","",""
"","feedback","","html-keyboard-response","555","616479","0.0-1.0-753.0-0.0","0","0","99178","","null","","","null","83","","","","","","","","","","","","","","","",""
"","time_out","","html-keyboard-response","556","618490","0.0-1.0-755.0-0.0","0","0","99178","","null","","","null","83","","","","","","","","","","","","","","","",""
"","ITI","","html-keyboard-response","557","619503","0.0-1.0-756.0","0","0","99178","","null","","","null","83","","","","","","","","","","","","","","","NaN",""
"","S1","","html-keyboard-response","558","619759","0.0-1.0-758.0","0","0","99178","","null","","","null","84","","","","","","","","","","","","","","","",""
"","ISI","","html-keyboard-response","559","620767","0.0-1.0-759.0","0","0","99178","","null","","","null","84","NaN","","","","","","","","","","","","","","",""
"","S2","","html-keyboard-response","560","621023","0.0-1.0-760.0","0","0","99178","","null","","","null","84","","NaN","","","","","","","","","","","","","",""
"","response","","html-keyboard-response","561","622045","0.0-1.0-761.0-0.0","0","0","99178","","1016","","","68","84","","","2","84","training","adjacent","DC","4","3","R.jpg","Q.jpg","1","0","0","",""
"","feedback","","html-keyboard-response","562","623055","0.0-1.0-762.0-0.0","0","0","99178","","null","","","null","84","","","","","","","","","","","","","","","",""
"","time_out","","html-keyboard-response","563","625066","0.0-1.0-764.0-0.0","0","0","99178","","null","","","null","84","","","","","","","","","","","","","","","",""
"","ITI","","html-keyboard-response","564","626074","0.0-1.0-765.0","0","0","99178","","null","","","null","84","","","","","","","","","","","","","","","NaN",""
"","S1","","html-keyboard-response","565","626335","0.0-1.0-767.0","0","0","99178","","null","","","null","85","","","","","","","","","","","","","","","",""
"","ISI","","html-keyboard-response","566","627343","0.0-1.0-768.0","0","0","99178","","null","","","null","85","NaN","","","","","","","","","","","","","","",""
"","S2","","html-keyboard-response","567","627599","0.0-1.0-769.0","0","0","99178","","null","","","null","85","","NaN","","","","","","","","","","","","","",""
"","response","","html-keyboard-response","568","628084","0.0-1.0-770.0-0.0","0","0","99178","","479","","","75","85","","","2","85","training","adjacent","CD","3","4","Q.jpg","R.jpg","0","1","0","",""
"","feedback","","html-keyboard-response","569","629098","0.0-1.0-771.0-0.0","0","0","99178","","null","","","null","85","","","","","","","","","","","","","","","",""
"","time_out","","html-keyboard-response","570","631114","0.0-1.0-773.0-0.0","0","0","99178","","null","","","null","85","","","","","","","","","","","","","","","",""
"","ITI","","html-keyboard-response","571","632122","0.0-1.0-774.0","0","0","99178","","null","","","null","85","","","","","","","","","","","","","","","NaN",""
"","S1","","html-keyboard-response","572","632387","0.0-1.0-776.0","0","0","99178","","null","","","null","86","","","","","","","","","","","","","","","",""
"","ISI","","html-keyboard-response","573","633404","0.0-1.0-777.0","0","0","99178","","null","","","null","86","NaN","","","","","","","","","","","","","","",""
"","S2","","html-keyboard-response","574","633663","0.0-1.0-778.0","0","0","99178","","null","","","null","86","","NaN","","","","","","","","","","","","","",""
"","response","","html-keyboard-response","575","634398","0.0-1.0-779.0-0.0","0","0","99178","","730","","","68","86","","","2","86","training","adjacent","FG","6","7","L.jpg","P.jpg","1","1","1","",""
"","feedback","","html-keyboard-response","576","635407","0.0-1.0-780.0-0.0","0","0","99178","","null","","","null","86","","","","","","","","","","","","","","","",""
"","ITI","","html-keyboard-response","577","636415","0.0-1.0-783.0","0","0","99178","","null","","","null","86","","","","","","","","","","","","","","","NaN",""
"","S1","","html-keyboard-response","578","636671","0.0-1.0-785.0","0","0","99178","","null","","","null","87","","","","","","","","","","","","","","","",""
"","ISI","","html-keyboard-response","579","637680","0.0-1.0-786.0","0","0","99178","","null","","","null","87","NaN","","","","","","","","","","","","","","",""
"","S2","","html-keyboard-response","580","637936","0.0-1.0-787.0","0","0","99178","","null","","","null","87","","NaN","","","","","","","","","","","","","",""
