"success","ttype","start_time","trial_type","trial_index","time_elapsed","internal_node_id","warning","missed_checkup","PID","view_history","rt","responses","repeat_instructions","key_press","index","keypress_isi","keypress_S2","block","trial_num","phase","group_type","pair_type","S1_stim","S2_stim","S1_img","S2_img","S1_chosen","S1_higher","accuracy","keypress_iti","total_bonus_tally"
"true","full_screen","d08012022hr1447","fullscreen","0","4470840","0.0-0.0","0","0","12498","","","","","","","","","","","","","","","","","","","","","",""
"","instructions","","instructions","1","4587332","0.0-1.0-0.0-0.0","0","0","12498","[{""page_index"":0,""viewing_time"":46645},{""page_index"":1,""viewing_time"":48099},{""page_index"":2,""viewing_time"":20073},{""page_index"":3,""viewing_time"":1660}]","116483","","","","","","","","","","","","","","","","","","","",""
"","comprehension_check","","survey-multi-choice","2","4623159","0.0-1.0-0.0-1.0","0","0","12498","","35792","{""Q0"":""True"",""Q1"":""D"",""Q2"":""When you see the prompt 'MAKE A CHOICE' after the second image was presented"",""Q3"":""Green mark"",""Q4"":""either D or K""}","0","","","","","","","","","","","","","","","","","",""
"","start_exp","","html-keyboard-response","3","4627220","0.0-1.0-1.0","0","0","12498","","4044","","","32","","","","","","","","","","","","","","","","",""
"","S1","","html-keyboard-response","4","4627488","0.0-1.0-2.0","0","0","12498","","null","","","null","0","","","","","","","","","","","","","","","",""
"","ISI","","html-keyboard-response","5","4629503","0.0-1.0-3.0","0","0","12498","","null","","","null","0","NaN","","","","","","","","","","","","","","",""
"","S2","","html-keyboard-response","6","4629765","0.0-1.0-4.0","0","0","12498","","null","","","null","0","","NaN","","","","","","","","","","","","","",""
"","response","","html-keyboard-response","7","4631507","0.0-1.0-5.0","0","0","12498","","1733","","","75","0","","","1","0","training","adjacent","DC","4","3","R.jpg","L.jpg","0","0","1","",""
"","feedback","","html-keyboard-response","8","4632520","0.0-1.0-6.0-0.0","0","0","12498","","null","","","null","0","","","","","","","","","","","","","","","",""
"","ITI","","html-keyboard-response","9","4633531","0.0-1.0-9.0","0","0","12498","","null","","","null","0","","","","","","","","","","","","","","","NaN",""
"","S1","","html-keyboard-response","10","4633797","0.0-1.0-11.0","0","0","12498","","null","","","null","1","","","","","","","","","","","","","","","",""
"","ISI","","html-keyboard-response","11","4635819","0.0-1.0-12.0","0","0","12498","","655","","","75","1","k","","","","","","","","","","","","","","",""
"","S2","","html-keyboard-response","12","4636086","0.0-1.0-13.0","0","0","12498","","161","","","68","1","","d","","","","","","","","","","","","","",""
"","response","","html-keyboard-response","13","4637040","0.0-1.0-14.0","0","0","12498","","947","","","68","1","","","1","1","training","adjacent","DE","4","5","R.jpg","M.jpg","1","1","1","",""
"","feedback","","html-keyboard-response","14","4638054","0.0-1.0-15.0-0.0","0","0","12498","","null","","","null","1","","","","","","","","","","","","","","","",""
"","ITI","","html-keyboard-response","15","4639069","0.0-1.0-18.0","0","0","12498","","null","","","null","1","","","","","","","","","","","","","","","NaN",""
"","S1","","html-keyboard-response","16","4639331","0.0-1.0-20.0","0","0","12498","","null","","","null","2","","","","","","","","","","","","","","","",""
"","ISI","","html-keyboard-response","17","4641341","0.0-1.0-21.0","0","0","12498","","null","","","null","2","NaN","","","","","","","","","","","","","","",""
"","S2","","html-keyboard-response","18","4641596","0.0-1.0-22.0","0","0","12498","","null","","","null","2","","NaN","","","","","","","","","","","","","",""
"","response","","html-keyboard-response","19","4642502","0.0-1.0-23.0","0","0","12498","","899","","","75","2","","","1","2","training","adjacent","GF","7","6","Q.jpg","N.jpg","0","0","1","",""
"","feedback","","html-keyboard-response","20","4643514","0.0-1.0-24.0-0.0","0","0","12498","","null","","","null","2","","","","","","","","","","","","","","","",""
"","ITI","","html-keyboard-response","21","4644527","0.0-1.0-27.0","0","0","12498","","null","","","null","2","","","","","","","","","","","","","","","NaN",""
"","S1","","html-keyboard-response","22","4644786","0.0-1.0-29.0","0","0","12498","","null","","","null","3","","","","","","","","","","","","","","","",""
"","ISI","","html-keyboard-response","23","4646798","0.0-1.0-30.0","0","0","12498","","null","","","null","3","NaN","","","","","","","","","","","","","","",""
"","S2","","html-keyboard-response","24","4647058","0.0-1.0-31.0","0","0","12498","","null","","","null","3","","NaN","","","","","","","","","","","","","",""
"","response","","html-keyboard-response","25","4647688","0.0-1.0-32.0","0","0","12498","","625","","","68","3","","","1","3","training","adjacent","FE","6","5","N.jpg","M.jpg","1","0","0","",""
"","feedback","","html-keyboard-response","26","4648697","0.0-1.0-33.0-0.0","0","0","12498","","null","","","null","3","","","","","","","","","","","","","","","",""
"","time_out","","html-keyboard-response","27","4650713","0.0-1.0-35.0-0.0","0","0","12498","","null","","","null","3","","","","","","","","","","","","","","","",""
"","ITI","","html-keyboard-response","28","4651734","0.0-1.0-36.0","0","0","12498","","null","","","null","3","","","","","","","","","","","","","","","NaN",""
"","S1","","html-keyboard-response","29","4651996","0.0-1.0-38.0","0","0","12498","","null","","","null","4","","","","","","","","","","","","","","","",""
"","ISI","","html-keyboard-response","30","4654006","0.0-1.0-39.0","0","0","12498","","null","","","null","4","NaN","","","","","","","","","","","","","","",""
"","S2","","html-keyboard-response","31","4654264","0.0-1.0-40.0","0","0","12498","","null","","","null","4","","NaN","","","","","","","","","","","","","",""
"","response","","html-keyboard-response","32","4654790","0.0-1.0-41.0","0","0","12498","","513","","","75","4","","","1","4","training","adjacent","BA","2","1","P.jpg","O.jpg","0","0","1","",""
"","feedback","","html-keyboard-response","33","4655808","0.0-1.0-42.0-0.0","0","0","12498","","null","","","null","4","","","","","","","","","","","","","","","",""
"","ITI","","html-keyboard-response","34","4656821","0.0-1.0-45.0","0","0","12498","","null","","","null","4","","","","","","","","","","","","","","","NaN",""
"","S1","","html-keyboard-response","35","4657086","0.0-1.0-47.0","0","0","12498","","null","","","null","5","","","","","","","","","","","","","","","",""
"","ISI","","html-keyboard-response","36","4659102","0.0-1.0-48.0","0","0","12498","","null","","","null","5","NaN","","","","","","","","","","","","","","",""
"","S2","","html-keyboard-response","37","4659367","0.0-1.0-49.0","0","0","12498","","null","","","null","5","","NaN","","","","","","","","","","","","","",""
"","response","","html-keyboard-response","38","4659801","0.0-1.0-50.0","0","0","12498","","424","","","75","5","","","1","5","training","adjacent","CD","3","4","L.jpg","R.jpg","0","1","0","",""
"","feedback","","html-keyboard-response","39","4660807","0.0-1.0-51.0-0.0","0","0","12498","","null","","","null","5","","","","","","","","","","","","","","","",""
"","time_out","","html-keyboard-response","40","4662814","0.0-1.0-53.0-0.0","0","0","12498","","null","","","null","5","","","","","","","","","","","","","","","",""
"","ITI","","html-keyboard-response","41","4663831","0.0-1.0-54.0","0","0","12498","","null","","","null","5","","","","","","","","","","","","","","","NaN",""
"","S1","","html-keyboard-response","42","4664091","0.0-1.0-56.0","0","0","12498","","null","","","null","6","","","","","","","","","","","","","","","",""
"","ISI","","html-keyboard-response","43","4666103","0.0-1.0-57.0","0","0","12498","","null","","","null","6","NaN","","","","","","","","","","","","","","",""
"","S2","","html-keyboard-response","44","4666369","0.0-1.0-58.0","0","0","12498","","null","","","null","6","","NaN","","","","","","","","","","","","","",""
"","response","","html-keyboard-response","45","4666506","0.0-1.0-59.0","0","0","12498","","130","","","68","6","","","1","6","training","adjacent","BC","2","3","P.jpg","L.jpg","1","1","1","",""
"","feedback","","html-keyboard-response","46","4667519","0.0-1.0-60.0-0.0","0","0","12498","","null","","","null","6","","","","","","","","","","","","","","","",""
"","ITI","","html-keyboard-response","47","4668530","0.0-1.0-63.0","0","0","12498","","null","","","null","6","","","","","","","","","","","","","","","NaN",""
"","S1","","html-keyboard-response","48","4668791","0.0-1.0-65.0","0","0","12498","","null","","","null","7","","","","","","","","","","","","","","","",""
"","ISI","","html-keyboard-response","49","4670803","0.0-1.0-66.0","0","0","12498","","null","","","null","7","NaN","","","","","","","","","","","","","","",""
"","S2","","html-keyboard-response","50","4671069","0.0-1.0-67.0","0","0","12498","","null","","","null","7","","NaN","","","","","","","","","","","","","",""
"","response","","html-keyboard-response","51","4671105","0.0-1.0-68.0","0","0","12498","","28","","","68","7","","","1","7","training","adjacent","CB","3","2","L.jpg","P.jpg","1","0","0","",""
"","feedback","","html-keyboard-response","52","4672119","0.0-1.0-69.0-0.0","0","0","12498","","null","","","null","7","","","","","","","","","","","","","","","",""
"","time_out","","html-keyboard-response","53","4674129","0.0-1.0-71.0-0.0","0","0","12498","","null","","","null","7","","","","","","","","","","","","","","","",""
"","ITI","","html-keyboard-response","54","4675140","0.0-1.0-72.0","0","0","12498","","null","","","null","7","","","","","","","","","","","","","","","NaN",""
"","S1","","html-keyboard-response","55","4675401","0.0-1.0-74.0","0","0","12498","","null","","","null","8","","","","","","","","","","","","","","","",""
"","ISI","","html-keyboard-response","56","4677407","0.0-1.0-75.0","0","0","12498","","null","","","null","8","NaN","","","","","","","","","","","","","","",""
"","S2","","html-keyboard-response","57","4677666","0.0-1.0-76.0","0","0","12498","","null","","","null","8","","NaN","","","","","","","","","","","","","",""
"","response","","html-keyboard-response","58","4678271","0.0-1.0-77.0","0","0","12498","","600","","","75","8","","","1","8","training","adjacent","FG","6","7","N.jpg","Q.jpg","0","1","0","",""
"","feedback","","html-keyboard-response","59","4679284","0.0-1.0-78.0-0.0","0","0","12498","","null","","","null","8","","","","","","","","","","","","","","","",""
"","time_out","","html-keyboard-response","60","4681300","0.0-1.0-80.0-0.0","0","0","12498","","null","","","null","8","","","","","","","","","","","","","","","",""
"","ITI","","html-keyboard-response","61","4682316","0.0-1.0-81.0","0","0","12498","","null","","","null","8","","","","","","","","","","","","","","","NaN",""
"","S1","","html-keyboard-response","62","4682583","0.0-1.0-83.0","0","0","12498","","null","","","null","9","","","","","","","","","","","","","","","",""
"","ISI","","html-keyboard-response","63","4684592","0.0-1.0-84.0","0","0","12498","","null","","","null","9","NaN","","","","","","","","","","","","","","",""
"","S2","","html-keyboard-response","64","4684854","0.0-1.0-85.0","0","0","12498","","null","","","null","9","","NaN","","","","","","","","","","","","","",""
"","response","","html-keyboard-response","65","4684968","0.0-1.0-86.0","0","0","12498","","105","","","75","9","","","1","9","training","adjacent","CD","3","4","L.jpg","R.jpg","0","1","0","",""
"","feedback","","html-keyboard-response","66","4685984","0.0-1.0-87.0-0.0","0","0","12498","","null","","","null","9","","","","","","","","","","","","","","","",""
"","time_out","","html-keyboard-response","67","4687997","0.0-1.0-89.0-0.0","0","0","12498","","null","","","null","9","","","","","","","","","","","","","","","",""
"","ITI","","html-keyboard-response","68","4689008","0.0-1.0-90.0","0","0","12498","","null","","","null","9","","","","","","","","","","","","","","","NaN",""
"","S1","","html-keyboard-response","69","4689272","0.0-1.0-92.0","0","0","12498","","null","","","null","10","","","","","","","","","","","","","","","",""
"","ISI","","html-keyboard-response","70","4691282","0.0-1.0-93.0","0","0","12498","","null","","","null","10","NaN","","","","","","","","","","","","","","",""
"","S2","","html-keyboard-response","71","4691541","0.0-1.0-94.0","0","0","12498","","null","","","null","10","","NaN","","","","","","","","","","","","","",""
"","response","","html-keyboard-response","72","4691988","0.0-1.0-95.0","0","0","12498","","440","","","68","10","","","1","10","training","adjacent","BA","2","1","P.jpg","O.jpg","1","0","0","",""
"","feedback","","html-keyboard-response","73","4693002","0.0-1.0-96.0-0.0","0","0","12498","","null","","","null","10","","","","","","","","","","","","","","","",""
"","time_out","","html-keyboard-response","74","4695009","0.0-1.0-98.0-0.0","0","0","12498","","null","","","null","10","","","","","","","","","","","","","","","",""
"","ITI","","html-keyboard-response","75","4696019","0.0-1.0-99.0","0","0","12498","","null","","","null","10","","","","","","","","","","","","","","","NaN",""
"","S1","","html-keyboard-response","76","4696283","0.0-1.0-101.0","0","0","12498","","null","","","null","11","","","","","","","","","","","","","","","",""
"","ISI","","html-keyboard-response","77","4698300","0.0-1.0-102.0","0","0","12498","","800","","","75","11","k","","","","","","","","","","","","","","",""
"","S2","","html-keyboard-response","78","4698563","0.0-1.0-103.0","0","0","12498","","null","","","null","11","","NaN","","","","","","","","","","","","","",""
"","response","","html-keyboard-response","79","4698682","0.0-1.0-104.0","0","0","12498","","112","","","75","11","","","1","11","training","adjacent","DC","4","3","R.jpg","L.jpg","0","0","1","",""
"","feedback","","html-keyboard-response","80","4699695","0.0-1.0-105.0-0.0","0","0","12498","","null","","","null","11","","","","","","","","","","","","","","","",""
"","ITI","","html-keyboard-response","81","4700704","0.0-1.0-108.0","0","0","12498","","null","","","null","11","","","","","","","","","","","","","","","NaN",""
"","S1","","html-keyboard-response","82","4700963","0.0-1.0-110.0","0","0","12498","","null","","","null","12","","","","","","","","","","","","","","","",""
"","ISI","","html-keyboard-response","83","4702974","0.0-1.0-111.0","0","0","12498","","null","","","null","12","NaN","","","","","","","","","","","","","","",""
"","S2","","html-keyboard-response","84","4703237","0.0-1.0-112.0","0","0","12498","","null","","","null","12","","NaN","","","","","","","","","","","","","",""
"","response","","html-keyboard-response","85","4703342","0.0-1.0-113.0","0","0","12498","","99","","","75","12","","","1","12","training","adjacent","AB","1","2","O.jpg","P.jpg","0","1","0","",""
"","feedback","","html-keyboard-response","86","4704359","0.0-1.0-114.0-0.0","0","0","12498","","null","","","null","12","","","","","","","","","","","","","","","",""
"","time_out","","html-keyboard-response","87","4706367","0.0-1.0-116.0-0.0","0","0","12498","","null","","","null","12","","","","","","","","","","","","","","","",""
"","ITI","","html-keyboard-response","88","4707383","0.0-1.0-117.0","0","0","12498","","null","","","null","12","","","","","","","","","","","","","","","NaN",""
"","S1","","html-keyboard-response","89","4707645","0.0-1.0-119.0","0","0","12498","","null","","","null","13","","","","","","","","","","","","","","","",""
"","ISI","","html-keyboard-response","90","4709656","0.0-1.0-120.0","0","0","12498","","null","","","null","13","NaN","","","","","","","","","","","","","","",""
"","S2","","html-keyboard-response","91","4709918","0.0-1.0-121.0","0","0","12498","","null","","","null","13","","NaN","","","","","","","","","","","","","",""
"","response","","html-keyboard-response","92","4710382","0.0-1.0-122.0","0","0","12498","","452","","","68","13","","","1","13","training","adjacent","DE","4","5","R.jpg","M.jpg","1","1","1","",""
"","feedback","","html-keyboard-response","93","4711391","0.0-1.0-123.0-0.0","0","0","12498","","null","","","null","13","","","","","","","","","","","","","","","",""
"","ITI","","html-keyboard-response","94","4712402","0.0-1.0-126.0","0","0","12498","","null","","","null","13","","","","","","","","","","","","","","","NaN",""
"","S1","","html-keyboard-response","95","4712658","0.0-1.0-128.0","0","0","12498","","null","","","null","14","","","","","","","","","","","","","","","",""
"","ISI","","html-keyboard-response","96","4714668","0.0-1.0-129.0","0","0","12498","","null","","","null","14","NaN","","","","","","","","","","","","","","",""
"","S2","","html-keyboard-response","97","4714934","0.0-1.0-130.0","0","0","12498","","null","","","null","14","","NaN","","","","","","","","","","","","","",""
"","response","","html-keyboard-response","98","4715338","0.0-1.0-131.0","0","0","12498","","398","","","68","14","","","1","14","training","adjacent","EF","5","6","M.jpg","N.jpg","1","1","1","",""
"","feedback","","html-keyboard-response","99","4716349","0.0-1.0-132.0-0.0","0","0","12498","","null","","","null","14","","","","","","","","","","","","","","","",""
"","ITI","","html-keyboard-response","100","4717358","0.0-1.0-135.0","0","0","12498","","null","","","null","14","","","","","","","","","","","","","","","NaN",""
"","S1","","html-keyboard-response","101","4717620","0.0-1.0-137.0","0","0","12498","","null","","","null","15","","","","","","","","","","","","","","","",""
"","ISI","","html-keyboard-response","102","4719629","0.0-1.0-138.0","0","0","12498","","null","","","null","15","NaN","","","","","","","","","","","","","","",""
"","S2","","html-keyboard-response","103","4719892","0.0-1.0-139.0","0","0","12498","","null","","","null","15","","NaN","","","","","","","","","","","","","",""
"","response","","html-keyboard-response","104","4720450","0.0-1.0-140.0","0","0","12498","","550","","","75","15","","","1","15","training","adjacent","GF","7","6","Q.jpg","N.jpg","0","0","1","",""
"","feedback","","html-keyboard-response","105","4721473","0.0-1.0-141.0-0.0","0","0","12498","","null","","","null","15","","","","","","","","","","","","","","","",""
"","ITI","","html-keyboard-response","106","4722483","0.0-1.0-144.0","0","0","12498","","null","","","null","15","","","","","","","","","","","","","","","NaN",""
"","S1","","html-keyboard-response","107","4722749","0.0-1.0-146.0","0","0","12498","","null","","","null","16","","","","","","","","","","","","","","","",""
"","ISI","","html-keyboard-response","108","4724755","0.0-1.0-147.0","0","0","12498","","null","","","null","16","NaN","","","","","","","","","","","","","","",""
"","S2","","html-keyboard-response","109","4725019","0.0-1.0-148.0","0","0","12498","","null","","","null","16","","NaN","","","","","","","","","","","","","",""
"","response","","html-keyboard-response","110","4725372","0.0-1.0-149.0","0","0","12498","","345","","","75","16","","","1","16","training","adjacent","CD","3","4","L.jpg","R.jpg","0","1","0","",""
"","feedback","","html-keyboard-response","111","4726388","0.0-1.0-150.0-0.0","0","0","12498","","null","","","null","16","","","","","","","","","","","","","","","",""
"","time_out","","html-keyboard-response","112","4728396","0.0-1.0-152.0-0.0","0","0","12498","","null","","","null","16","","","","","","","","","","","","","","","",""
"","ITI","","html-keyboard-response","113","4729408","0.0-1.0-153.0","0","0","12498","","null","","","null","16","","","","","","","","","","","","","","","NaN",""
"","S1","","html-keyboard-response","114","4729670","0.0-1.0-155.0","0","0","12498","","null","","","null","17","","","","","","","","","","","","","","","",""
"","ISI","","html-keyboard-response","115","4731685","0.0-1.0-156.0","0","0","12498","","1889","","","68","17","d","","","","","","","","","","","","","","",""
"","S2","","html-keyboard-response","116","4731941","0.0-1.0-157.0","0","0","12498","","null","","","null","17","","NaN","","","","","","","","","","","","","",""
"","response","","html-keyboard-response","117","4732585","0.0-1.0-158.0","0","0","12498","","635","","","75","17","","","1","17","training","adjacent","GF","7","6","Q.jpg","N.jpg","0","0","1","",""
"","feedback","","html-keyboard-response","118","4733599","0.0-1.0-159.0-0.0","0","0","12498","","null","","","null","17","","","","","","","","","","","","","","","",""
"","ITI","","html-keyboard-response","119","4734610","0.0-1.0-162.0","0","0","12498","","null","","","null","17","","","","","","","","","","","","","","","NaN",""
"","S1","","html-keyboard-response","120","4734874","0.0-1.0-164.0","0","0","12498","","null","","","null","18","","","","","","","","","","","","","","","",""
"","ISI","","html-keyboard-response","121","4736885","0.0-1.0-165.0","0","0","12498","","null","","","null","18","NaN","","","","","","","","","","","","","","",""
"","S2","","html-keyboard-response","122","4737150","0.0-1.0-166.0","0","0","12498","","null","","","null","18","","NaN","","","","","","","","","","","","","",""
"","response","","html-keyboard-response","123","4737432","0.0-1.0-167.0","0","0","12498","","274","","","75","18","","","1","18","training","adjacent","FE","6","5","N.jpg","M.jpg","0","0","1","",""
"","feedback","","html-keyboard-response","124","4738444","0.0-1.0-168.0-0.0","0","0","12498","","null","","","null","18","","","","","","","","","","","","","","","",""
"","ITI","","html-keyboard-response","125","4739457","0.0-1.0-171.0","0","0","12498","","null","","","null","18","","","","","","","","","","","","","","","NaN",""
"","S1","","html-keyboard-response","126","4739718","0.0-1.0-173.0","0","0","12498","","null","","","null","19","","","","","","","","","","","","","","","",""
"","ISI","","html-keyboard-response","127","4741733","0.0-1.0-174.0","0","0","12498","","null","","","null","19","NaN","","","","","","","","","","","","","","",""
"","S2","","html-keyboard-response","128","4741992","0.0-1.0-175.0","0","0","12498","","null","","","null","19","","NaN","","","","","","","","","","","","","",""
"","response","","html-keyboard-response","129","4742456","0.0-1.0-176.0","0","0","12498","","458","","","68","19","","","1","19","training","adjacent","AB","1","2","O.jpg","P.jpg","1","1","1","",""
"","feedback","","html-keyboard-response","130","4743469","0.0-1.0-177.0-0.0","0","0","12498","","null","","","null","19","","","","","","","","","","","","","","","",""
"","ITI","","html-keyboard-response","131","4744486","0.0-1.0-180.0","0","0","12498","","null","","","null","19","","","","","","","","","","","","","","","NaN",""
"","S1","","html-keyboard-response","132","4744750","0.0-1.0-182.0","0","0","12498","","null","","","null","20","","","","","","","","","","","","","","","",""
"","ISI","","html-keyboard-response","133","4746758","0.0-1.0-183.0","0","0","12498","","null","","","null","20","NaN","","","","","","","","","","","","","","",""
"","S2","","html-keyboard-response","134","4747023","0.0-1.0-184.0","0","0","12498","","null","","","null","20","","NaN","","","","","","","","","","","","","",""
"","response","","html-keyboard-response","135","4747340","0.0-1.0-185.0","0","0","12498","","310","","","68","20","","","1","20","training","adjacent","ED","5","4","M.jpg","R.jpg","1","0","0","",""
"","feedback","","html-keyboard-response","136","4748356","0.0-1.0-186.0-0.0","0","0","12498","","null","","","null","20","","","","","","","","","","","","","","","",""
"","time_out","","html-keyboard-response","137","4750369","0.0-1.0-188.0-0.0","0","0","12498","","null","","","null","20","","","","","","","","","","","","","","","",""
"","ITI","","html-keyboard-response","138","4751381","0.0-1.0-189.0","0","0","12498","","null","","","null","20","","","","","","","","","","","","","","","NaN",""
"","S1","","html-keyboard-response","139","4751642","0.0-1.0-191.0","0","0","12498","","null","","","null","21","","","","","","","","","","","","","","","",""
"","ISI","","html-keyboard-response","140","4753652","0.0-1.0-192.0","0","0","12498","","null","","","null","21","NaN","","","","","","","","","","","","","","",""
"","S2","","html-keyboard-response","141","4753908","0.0-1.0-193.0","0","0","12498","","null","","","null","21","","NaN","","","","","","","","","","","","","",""
"","response","","html-keyboard-response","142","4754014","0.0-1.0-194.0","0","0","12498","","97","","","75","21","","","1","21","training","adjacent","FE","6","5","N.jpg","M.jpg","0","0","1","",""
"","feedback","","html-keyboard-response","143","4755022","0.0-1.0-195.0-0.0","0","0","12498","","null","","","null","21","","","","","","","","","","","","","","","",""
"","ITI","","html-keyboard-response","144","4756029","0.0-1.0-198.0","0","0","12498","","null","","","null","21","","","","","","","","","","","","","","","NaN",""
"","S1","","html-keyboard-response","145","4756288","0.0-1.0-200.0","0","0","12498","","null","","","null","22","","","","","","","","","","","","","","","",""
"","ISI","","html-keyboard-response","146","4758301","0.0-1.0-201.0","0","0","12498","","null","","","null","22","NaN","","","","","","","","","","","","","","",""
"","S2","","html-keyboard-response","147","4758566","0.0-1.0-202.0","0","0","12498","","null","","","null","22","","NaN","","","","","","","","","","","","","",""
"","response","","html-keyboard-response","148","4759036","0.0-1.0-203.0","0","0","12498","","461","","","68","22","","","1","22","training","adjacent","CB","3","2","L.jpg","P.jpg","1","0","0","",""
"","feedback","","html-keyboard-response","149","4760051","0.0-1.0-204.0-0.0","0","0","12498","","null","","","null","22","","","","","","","","","","","","","","","",""
"","time_out","","html-keyboard-response","150","4762059","0.0-1.0-206.0-0.0","0","0","12498","","null","","","null","22","","","","","","","","","","","","","","","",""
"","ITI","","html-keyboard-response","151","4763071","0.0-1.0-207.0","0","0","12498","","null","","","null","22","","","","","","","","","","","","","","","NaN",""
"","S1","","html-keyboard-response","152","4763333","0.0-1.0-209.0","0","0","12498","","null","","","null","23","","","","","","","","","","","","","","","",""
"","ISI","","html-keyboard-response","153","4765341","0.0-1.0-210.0","0","0","12498","","null","","","null","23","NaN","","","","","","","","","","","","","","",""
"","S2","","html-keyboard-response","154","4765595","0.0-1.0-211.0","0","0","12498","","null","","","null","23","","NaN","","","","","","","","","","","","","",""
"","response","","html-keyboard-response","155","4765745","0.0-1.0-212.0","0","0","12498","","145","","","68","23","","","1","23","training","adjacent","DE","4","5","R.jpg","M.jpg","1","1","1","",""
"","feedback","","html-keyboard-response","156","4766758","0.0-1.0-213.0-0.0","0","0","12498","","null","","","null","23","","","","","","","","","","","","","","","",""
"","ITI","","html-keyboard-response","157","4767778","0.0-1.0-216.0","0","0","12498","","null","","","null","23","","","","","","","","","","","","","","","NaN",""
"","S1","","html-keyboard-response","158","4768041","0.0-1.0-218.0","0","0","12498","","null","","","null","24","","","","","","","","","","","","","","","",""
"","ISI","","html-keyboard-response","159","4770055","0.0-1.0-219.0","0","0","12498","","null","","","null","24","NaN","","","","","","","","","","","","","","",""
"","S2","","html-keyboard-response","160","4770317","0.0-1.0-220.0","0","0","12498","","null","","","null","24","","NaN","","","","","","","","","","","","","",""
"","response","","html-keyboard-response","161","4770742","0.0-1.0-221.0","0","0","12498","","418","","","68","24","","","1","24","training","adjacent","DC","4","3","R.jpg","L.jpg","1","0","0","",""
"","feedback","","html-keyboard-response","162","4771758","0.0-1.0-222.0-0.0","0","0","12498","","null","","","null","24","","","","","","","","","","","","","","","",""
"","time_out","","html-keyboard-response","163","4773775","0.0-1.0-224.0-0.0","0","0","12498","","null","","","null","24","","","","","","","","","","","","","","","",""
"","ITI","","html-keyboard-response","164","4774790","0.0-1.0-225.0","0","0","12498","","null","","","null","24","","","","","","","","","","","","","","","NaN",""
"","S1","","html-keyboard-response","165","4775050","0.0-1.0-227.0","0","0","12498","","null","","","null","25","","","","","","","","","","","","","","","",""
"","ISI","","html-keyboard-response","166","4777057","0.0-1.0-228.0","0","0","12498","","null","","","null","25","NaN","","","","","","","","","","","","","","",""
"","S2","","html-keyboard-response","167","4777321","0.0-1.0-229.0","0","0","12498","","null","","","null","25","","NaN","","","","","","","","","","","","","",""
"","response","","html-keyboard-response","168","4777618","0.0-1.0-230.0","0","0","12498","","292","","","75","25","","","1","25","training","adjacent","EF","5","6","M.jpg","N.jpg","0","1","0","",""
"","feedback","","html-keyboard-response","169","4778625","0.0-1.0-231.0-0.0","0","0","12498","","null","","","null","25","","","","","","","","","","","","","","","",""
"","time_out","","html-keyboard-response","170","4780634","0.0-1.0-233.0-0.0","0","0","12498","","null","","","null","25","","","","","","","","","","","","","","","",""
"","ITI","","html-keyboard-response","171","4781650","0.0-1.0-234.0","0","0","12498","","null","","","null","25","","","","","","","","","","","","","","","NaN",""
"","S1","","html-keyboard-response","172","4781914","0.0-1.0-236.0","0","0","12498","","null","","","null","26","","","","","","","","","","","","","","","",""
"","ISI","","html-keyboard-response","173","4783925","0.0-1.0-237.0","0","0","12498","","null","","","null","26","NaN","","","","","","","","","","","","","","",""
"","S2","","html-keyboard-response","174","4784185","0.0-1.0-238.0","0","0","12498","","null","","","null","26","","NaN","","","","","","","","","","","","","",""
"","response","","html-keyboard-response","175","4784669","0.0-1.0-239.0","0","0","12498","","479","","","75","26","","","1","26","training","adjacent","EF","5","6","M.jpg","N.jpg","0","1","0","",""
"","feedback","","html-keyboard-response","176","4785685","0.0-1.0-240.0-0.0","0","0","12498","","null","","","null","26","","","","","","","","","","","","","","","",""
"","time_out","","html-keyboard-response","177","4787697","0.0-1.0-242.0-0.0","0","0","12498","","null","","","null","26","","","","","","","","","","","","","","","",""
"","ITI","","html-keyboard-response","178","4788709","0.0-1.0-243.0","0","0","12498","","null","","","null","26","","","","","","","","","","","","","","","NaN",""
"","S1","","html-keyboard-response","179","4788969","0.0-1.0-245.0","0","0","12498","","null","","","null","27","","","","","","","","","","","","","","","",""
"","ISI","","html-keyboard-response","180","4790983","0.0-1.0-246.0","0","0","12498","","null","","","null","27","NaN","","","","","","","","","","","","","","",""
"","S2","","html-keyboard-response","181","4791247","0.0-1.0-247.0","0","0","12498","","null","","","null","27","","NaN","","","","","","","","","","","","","",""
"","response","","html-keyboard-response","182","4791696","0.0-1.0-248.0","0","0","12498","","439","","","68","27","","","1","27","training","adjacent","EF","5","6","M.jpg","N.jpg","1","1","1","",""
"","feedback","","html-keyboard-response","183","4792708","0.0-1.0-249.0-0.0","0","0","12498","","null","","","null","27","","","","","","","","","","","","","","","",""
"","ITI","","html-keyboard-response","184","4793714","0.0-1.0-252.0","0","0","12498","","null","","","null","27","","","","","","","","","","","","","","","NaN",""
"","S1","","html-keyboard-response","185","4793976","0.0-1.0-254.0","0","0","12498","","null","","","null","28","","","","","","","","","","","","","","","",""
"","ISI","","html-keyboard-response","186","4795989","0.0-1.0-255.0","0","0","12498","","null","","","null","28","NaN","","","","","","","","","","","","","","",""
"","S2","","html-keyboard-response","187","4796250","0.0-1.0-256.0","0","0","12498","","null","","","null","28","","NaN","","","","","","","","","","","","","",""
"","response","","html-keyboard-response","188","4796558","0.0-1.0-257.0","0","0","12498","","301","","","75","28","","","1","28","training","adjacent","CD","3","4","L.jpg","R.jpg","0","1","0","",""
"","feedback","","html-keyboard-response","189","4797578","0.0-1.0-258.0-0.0","0","0","12498","","null","","","null","28","","","","","","","","","","","","","","","",""
"","time_out","","html-keyboard-response","190","4799590","0.0-1.0-260.0-0.0","0","0","12498","","null","","","null","28","","","","","","","","","","","","","","","",""
"","ITI","","html-keyboard-response","191","4800606","0.0-1.0-261.0","0","0","12498","","null","","","null","28","","","","","","","","","","","","","","","NaN",""
"","S1","","html-keyboard-response","192","4800873","0.0-1.0-263.0","0","0","12498","","null","","","null","29","","","","","","","","","","","","","","","",""
"","ISI","","html-keyboard-response","193","4802889","0.0-1.0-264.0","0","0","12498","","null","","","null","29","NaN","","","","","","","","","","","","","","",""
"","S2","","html-keyboard-response","194","4803145","0.0-1.0-265.0","0","0","12498","","null","","","null","29","","NaN","","","","","","","","","","","","","",""
"","response","","html-keyboard-response","195","4803610","0.0-1.0-266.0","0","0","12498","","459","","","68","29","","","1","29","training","adjacent","FG","6","7","N.jpg","Q.jpg","1","1","1","",""
"","feedback","","html-keyboard-response","196","4804618","0.0-1.0-267.0-0.0","0","0","12498","","null","","","null","29","","","","","","","","","","","","","","","",""
"","ITI","","html-keyboard-response","197","4805628","0.0-1.0-270.0","0","0","12498","","null","","","null","29","","","","","","","","","","","","","","","NaN",""
"","S1","","html-keyboard-response","198","4805888","0.0-1.0-272.0","0","0","12498","","null","","","null","30","","","","","","","","","","","","","","","",""
"","ISI","","html-keyboard-response","199","4807894","0.0-1.0-273.0","0","0","12498","","null","","","null","30","NaN","","","","","","","","","","","","","","",""
"","S2","","html-keyboard-response","200","4808160","0.0-1.0-274.0","0","0","12498","","null","","","null","30","","NaN","","","","","","","","","","","","","",""
"","response","","html-keyboard-response","201","4808260","0.0-1.0-275.0","0","0","12498","","94","","","68","30","","","1","30","training","adjacent","BA","2","1","P.jpg","O.jpg","1","0","0","",""
"","feedback","","html-keyboard-response","202","4809274","0.0-1.0-276.0-0.0","0","0","12498","","null","","","null","30","","","","","","","","","","","","","","","",""
"","time_out","","html-keyboard-response","203","4811288","0.0-1.0-278.0-0.0","0","0","12498","","null","","","null","30","","","","","","","","","","","","","","","",""
"","ITI","","html-keyboard-response","204","4812297","0.0-1.0-279.0","0","0","12498","","null","","","null","30","","","","","","","","","","","","","","","NaN",""
"","S1","","html-keyboard-response","205","4812569","0.0-1.0-281.0","0","0","12498","","null","","","null","31","","","","","","","","","","","","","","","",""
"","ISI","","html-keyboard-response","206","4814582","0.0-1.0-282.0","0","0","12498","","null","","","null","31","NaN","","","","","","","","","","","","","","",""
"","S2","","html-keyboard-response","207","4814846","0.0-1.0-283.0","0","0","12498","","null","","","null","31","","NaN","","","","","","","","","","","","","",""
"","response","","html-keyboard-response","208","4815041","0.0-1.0-284.0","0","0","12498","","185","","","68","31","","","1","31","training","adjacent","ED","5","4","M.jpg","R.jpg","1","0","0","",""
"","feedback","","html-keyboard-response","209","4816051","0.0-1.0-285.0-0.0","0","0","12498","","null","","","null","31","","","","","","","","","","","","","","","",""
"","time_out","","html-keyboard-response","210","4818068","0.0-1.0-287.0-0.0","0","0","12498","","null","","","null","31","","","","","","","","","","","","","","","",""
"","ITI","","html-keyboard-response","211","4819081","0.0-1.0-288.0","0","0","12498","","null","","","null","31","","","","","","","","","","","","","","","NaN",""
"","S1","","html-keyboard-response","212","4819346","0.0-1.0-290.0","0","0","12498","","null","","","null","32","","","","","","","","","","","","","","","",""
"","ISI","","html-keyboard-response","213","4821352","0.0-1.0-291.0","0","0","12498","","null","","","null","32","NaN","","","","","","","","","","","","","","",""
"","S2","","html-keyboard-response","214","4821611","0.0-1.0-292.0","0","0","12498","","null","","","null","32","","NaN","","","","","","","","","","","","","",""
"","response","","html-keyboard-response","215","4821865","0.0-1.0-293.0","0","0","12498","","248","","","68","32","","","1","32","training","adjacent","AB","1","2","O.jpg","P.jpg","1","1","1","",""
"","feedback","","html-keyboard-response","216","4822878","0.0-1.0-294.0-0.0","0","0","12498","","null","","","null","32","","","","","","","","","","","","","","","",""
"","ITI","","html-keyboard-response","217","4823895","0.0-1.0-297.0","0","0","12498","","null","","","null","32","","","","","","","","","","","","","","","NaN",""
"","S1","","html-keyboard-response","218","4824158","0.0-1.0-299.0","0","0","12498","","null","","","null","33","","","","","","","","","","","","","","","",""
"","ISI","","html-keyboard-response","219","4826173","0.0-1.0-300.0","0","0","12498","","null","","","null","33","NaN","","","","","","","","","","","","","","",""
"","S2","","html-keyboard-response","220","4826430","0.0-1.0-301.0","0","0","12498","","null","","","null","33","","NaN","","","","","","","","","","","","","",""
"","response","","html-keyboard-response","221","4826852","0.0-1.0-302.0","0","0","12498","","415","","","75","33","","","1","33","training","adjacent","CB","3","2","L.jpg","P.jpg","0","0","1","",""
"","feedback","","html-keyboard-response","222","4827869","0.0-1.0-303.0-0.0","0","0","12498","","null","","","null","33","","","","","","","","","","","","","","","",""
"","ITI","","html-keyboard-response","223","4828880","0.0-1.0-306.0","0","0","12498","","null","","","null","33","","","","","","","","","","","","","","","NaN",""
"","S1","","html-keyboard-response","224","4829140","0.0-1.0-308.0","0","0","12498","","null","","","null","34","","","","","","","","","","","","","","","",""
"","ISI","","html-keyboard-response","225","4831147","0.0-1.0-309.0","0","0","12498","","null","","","null","34","NaN","","","","","","","","","","","","","","",""
"","S2","","html-keyboard-response","226","4831407","0.0-1.0-310.0","0","0","12498","","null","","","null","34","","NaN","","","","","","","","","","","","","",""
"","response","","html-keyboard-response","227","4831978","0.0-1.0-311.0","0","0","12498","","562","","","75","34","","","1","34","training","adjacent","BC","2","3","P.jpg","L.jpg","0","1","0","",""
"","feedback","","html-keyboard-response","228","4832990","0.0-1.0-312.0-0.0","0","0","12498","","null","","","null","34","","","","","","","","","","","","","","","",""
"","time_out","","html-keyboard-response","229","4835002","0.0-1.0-314.0-0.0","0","0","12498","","null","","","null","34","","","","","","","","","","","","","","","",""
"","ITI","","html-keyboard-response","230","4836011","0.0-1.0-315.0","0","0","12498","","null","","","null","34","","","","","","","","","","","","","","","NaN",""
"","S1","","html-keyboard-response","231","4836268","0.0-1.0-317.0","0","0","12498","","null","","","null","35","","","","","","","","","","","","","","","",""
"","ISI","","html-keyboard-response","232","4838276","0.0-1.0-318.0","0","0","12498","","null","","","null","35","NaN","","","","","","","","","","","","","","",""
"","S2","","html-keyboard-response","233","4838539","0.0-1.0-319.0","0","0","12498","","null","","","null","35","","NaN","","","","","","","","","","","","","",""
"","response","","html-keyboard-response","234","4838693","0.0-1.0-320.0","0","0","12498","","147","","","75","35","","","1","35","training","adjacent","FE","6","5","N.jpg","M.jpg","0","0","1","",""
"","feedback","","html-keyboard-response","235","4839708","0.0-1.0-321.0-0.0","0","0","12498","","null","","","null","35","","","","","","","","","","","","","","","",""
"","ITI","","html-keyboard-response","236","4840723","0.0-1.0-324.0","0","0","12498","","null","","","null","35","","","","","","","","","","","","","","","NaN",""
"","S1","","html-keyboard-response","237","4840990","0.0-1.0-326.0","0","0","12498","","null","","","null","36","","","","","","","","","","","","","","","",""
"","ISI","","html-keyboard-response","238","4843006","0.0-1.0-327.0","0","0","12498","","null","","","null","36","NaN","","","","","","","","","","","","","","",""
"","S2","","html-keyboard-response","239","4843271","0.0-1.0-328.0","0","0","12498","","null","","","null","36","","NaN","","","","","","","","","","","","","",""
"","response","","html-keyboard-response","240","4843414","0.0-1.0-329.0","0","0","12498","","136","","","68","36","","","1","36","training","adjacent","FG","6","7","N.jpg","Q.jpg","1","1","1","",""
"","feedback","","html-keyboard-response","241","4844427","0.0-1.0-330.0-0.0","0","0","12498","","null","","","null","36","","","","","","","","","","","","","","","",""
"","ITI","","html-keyboard-response","242","4845444","0.0-1.0-333.0","0","0","12498","","null","","","null","36","","","","","","","","","","","","","","","NaN",""
"","S1","","html-keyboard-response","243","4845709","0.0-1.0-335.0","0","0","12498","","null","","","null","37","","","","","","","","","","","","","","","",""
"","ISI","","html-keyboard-response","244","4847724","0.0-1.0-336.0","0","0","12498","","null","","","null","37","NaN","","","","","","","","","","","","","","",""
"","S2","","html-keyboard-response","245","4847991","0.0-1.0-337.0","0","0","12498","","null","","","null","37","","NaN","","","","","","","","","","","","","",""
"","response","","html-keyboard-response","246","4848128","0.0-1.0-338.0","0","0","12498","","129","","","75","37","","","1","37","training","adjacent","BC","2","3","P.jpg","L.jpg","0","1","0","",""
"","feedback","","html-keyboard-response","247","4849142","0.0-1.0-339.0-0.0","0","0","12498","","null","","","null","37","","","","","","","","","","","","","","","",""
"","time_out","","html-keyboard-response","248","4851161","0.0-1.0-341.0-0.0","0","0","12498","","null","","","null","37","","","","","","","","","","","","","","","",""
"","ITI","","html-keyboard-response","249","4852174","0.0-1.0-342.0","0","0","12498","","null","","","null","37","","","","","","","","","","","","","","","NaN",""
"","S1","","html-keyboard-response","250","4852433","0.0-1.0-344.0","0","0","12498","","null","","","null","38","","","","","","","","","","","","","","","",""
"","ISI","","html-keyboard-response","251","4854441","0.0-1.0-345.0","0","0","12498","","null","","","null","38","NaN","","","","","","","","","","","","","","",""
"","S2","","html-keyboard-response","252","4854701","0.0-1.0-346.0","0","0","12498","","null","","","null","38","","NaN","","","","","","","","","","","","","",""
"","response","","html-keyboard-response","253","4855003","0.0-1.0-347.0","0","0","12498","","294","","","75","38","","","1","38","training","adjacent","BA","2","1","P.jpg","O.jpg","0","0","1","",""
"","feedback","","html-keyboard-response","254","4856020","0.0-1.0-348.0-0.0","0","0","12498","","null","","","null","38","","","","","","","","","","","","","","","",""
"","ITI","","html-keyboard-response","255","4857033","0.0-1.0-351.0","0","0","12498","","null","","","null","38","","","","","","","","","","","","","","","NaN",""
"","S1","","html-keyboard-response","256","4857293","0.0-1.0-353.0","0","0","12498","","null","","","null","39","","","","","","","","","","","","","","","",""
"","ISI","","html-keyboard-response","257","4859310","0.0-1.0-354.0","0","0","12498","","null","","","null","39","NaN","","","","","","","","","","","","","","",""
"","S2","","html-keyboard-response","258","4859573","0.0-1.0-355.0","0","0","12498","","null","","","null","39","","NaN","","","","","","","","","","","","","",""
"","response","","html-keyboard-response","259","4859758","0.0-1.0-356.0","0","0","12498","","177","","","68","39","","","1","39","training","adjacent","ED","5","4","M.jpg","R.jpg","1","0","0","",""
"","feedback","","html-keyboard-response","260","4860774","0.0-1.0-357.0-0.0","0","0","12498","","null","","","null","39","","","","","","","","","","","","","","","",""
"","time_out","","html-keyboard-response","261","4862787","0.0-1.0-359.0-0.0","0","0","12498","","null","","","null","39","","","","","","","","","","","","","","","",""
"","ITI","","html-keyboard-response","262","4863797","0.0-1.0-360.0","0","0","12498","","null","","","null","39","","","","","","","","","","","","","","","NaN",""
"","S1","","html-keyboard-response","263","4864064","0.0-1.0-362.0","0","0","12498","","null","","","null","40","","","","","","","","","","","","","","","",""
"","ISI","","html-keyboard-response","264","4866083","0.0-1.0-363.0","0","0","12498","","264","","","75","40","k","","","","","","","","","","","","","","",""
"","S2","","html-keyboard-response","265","4866355","0.0-1.0-364.0","0","0","12498","","null","","","null","40","","NaN","","","","","","","","","","","","","",""
"","response","","html-keyboard-response","266","4866375","0.0-1.0-365.0","0","0","12498","","14","","","75","40","","","1","40","training","adjacent","GF","7","6","Q.jpg","N.jpg","0","0","1","",""
"","feedback","","html-keyboard-response","267","4867390","0.0-1.0-366.0-0.0","0","0","12498","","null","","","null","40","","","","","","","","","","","","","","","",""
"","ITI","","html-keyboard-response","268","4868402","0.0-1.0-369.0","0","0","12498","","null","","","null","40","","","","","","","","","","","","","","","NaN",""
"","S1","","html-keyboard-response","269","4868664","0.0-1.0-371.0","0","0","12498","","null","","","null","41","","","","","","","","","","","","","","","",""
"","ISI","","html-keyboard-response","270","4870673","0.0-1.0-372.0","0","0","12498","","null","","","null","41","NaN","","","","","","","","","","","","","","",""
"","S2","","html-keyboard-response","271","4870937","0.0-1.0-373.0","0","0","12498","","null","","","null","41","","NaN","","","","","","","","","","","","","",""
"","response","","html-keyboard-response","272","4871089","0.0-1.0-374.0","0","0","12498","","145","","","75","41","","","1","41","training","adjacent","BC","2","3","P.jpg","L.jpg","0","1","0","",""
"","feedback","","html-keyboard-response","273","4872102","0.0-1.0-375.0-0.0","0","0","12498","","null","","","null","41","","","","","","","","","","","","","","","",""
"","time_out","","html-keyboard-response","274","4874120","0.0-1.0-377.0-0.0","0","0","12498","","null","","","null","41","","","","","","","","","","","","","","","",""
"","ITI","","html-keyboard-response","275","4875136","0.0-1.0-378.0","0","0","12498","","null","","","null","41","","","","","","","","","","","","","","","NaN",""
"","S1","","html-keyboard-response","276","4875402","0.0-1.0-380.0","0","0","12498","","null","","","null","42","","","","","","","","","","","","","","","",""
"","ISI","","html-keyboard-response","277","4877411","0.0-1.0-381.0","0","0","12498","","null","","","null","42","NaN","","","","","","","","","","","","","","",""
"","S2","","html-keyboard-response","278","4877676","0.0-1.0-382.0","0","0","12498","","null","","","null","42","","NaN","","","","","","","","","","","","","",""
"","response","","html-keyboard-response","279","4877776","0.0-1.0-383.0","0","0","12498","","93","","","68","42","","","1","42","training","adjacent","DC","4","3","R.jpg","L.jpg","1","0","0","",""
"","feedback","","html-keyboard-response","280","4878791","0.0-1.0-384.0-0.0","0","0","12498","","null","","","null","42","","","","","","","","","","","","","","","",""
"","time_out","","html-keyboard-response","281","4880805","0.0-1.0-386.0-0.0","0","0","12498","","null","","","null","42","","","","","","","","","","","","","","","",""
"","ITI","","html-keyboard-response","282","4881819","0.0-1.0-387.0","0","0","12498","","null","","","null","42","","","","","","","","","","","","","","","NaN",""
"","S1","","html-keyboard-response","283","4882086","0.0-1.0-389.0","0","0","12498","","null","","","null","43","","","","","","","","","","","","","","","",""
"","ISI","","html-keyboard-response","284","4884100","0.0-1.0-390.0","0","0","12498","","null","","","null","43","NaN","","","","","","","","","","","","","","",""
"","S2","","html-keyboard-response","285","4884363","0.0-1.0-391.0","0","0","12498","","null","","","null","43","","NaN","","","","","","","","","","","","","",""
"","response","","html-keyboard-response","286","4884436","0.0-1.0-392.0","0","0","12498","","62","","","75","43","","","1","43","training","adjacent","AB","1","2","O.jpg","P.jpg","0","1","0","",""
"","feedback","","html-keyboard-response","287","4885454","0.0-1.0-393.0-0.0","0","0","12498","","null","","","null","43","","","","","","","","","","","","","","","",""
"","time_out","","html-keyboard-response","288","4887469","0.0-1.0-395.0-0.0","0","0","12498","","null","","","null","43","","","","","","","","","","","","","","","",""
"","ITI","","html-keyboard-response","289","4888483","0.0-1.0-396.0","0","0","12498","","null","","","null","43","","","","","","","","","","","","","","","NaN",""
"","S1","","html-keyboard-response","290","4888743","0.0-1.0-398.0","0","0","12498","","null","","","null","44","","","","","","","","","","","","","","","",""
"","ISI","","html-keyboard-response","291","4890752","0.0-1.0-399.0","0","0","12498","","null","","","null","44","NaN","","","","","","","","","","","","","","",""
"","S2","","html-keyboard-response","292","4891018","0.0-1.0-400.0","0","0","12498","","null","","","null","44","","NaN","","","","","","","","","","","","","",""
"","response","","html-keyboard-response","293","4891385","0.0-1.0-401.0","0","0","12498","","356","","","75","44","","","1","44","training","adjacent","FG","6","7","N.jpg","Q.jpg","0","1","0","",""
"","feedback","","html-keyboard-response","294","4892394","0.0-1.0-402.0-0.0","0","0","12498","","null","","","null","44","","","","","","","","","","","","","","","",""
"","time_out","","html-keyboard-response","295","4894406","0.0-1.0-404.0-0.0","0","0","12498","","null","","","null","44","","","","","","","","","","","","","","","",""
"","ITI","","html-keyboard-response","296","4895418","0.0-1.0-405.0","0","0","12498","","null","","","null","44","","","","","","","","","","","","","","","NaN",""
"","S1","","html-keyboard-response","297","4895683","0.0-1.0-407.0","0","0","12498","","null","","","null","45","","","","","","","","","","","","","","","",""
"","ISI","","html-keyboard-response","298","4897694","0.0-1.0-408.0","0","0","12498","","null","","","null","45","NaN","","","","","","","","","","","","","","",""
"","S2","","html-keyboard-response","299","4897956","0.0-1.0-409.0","0","0","12498","","null","","","null","45","","NaN","","","","","","","","","","","","","",""
"","response","","html-keyboard-response","300","4898053","0.0-1.0-410.0","0","0","12498","","88","","","75","45","","","1","45","training","adjacent","CB","3","2","L.jpg","P.jpg","0","0","1","",""
"","feedback","","html-keyboard-response","301","4899058","0.0-1.0-411.0-0.0","0","0","12498","","null","","","null","45","","","","","","","","","","","","","","","",""
"","ITI","","html-keyboard-response","302","4900072","0.0-1.0-414.0","0","0","12498","","null","","","null","45","","","","","","","","","","","","","","","NaN",""
"","S1","","html-keyboard-response","303","4900337","0.0-1.0-416.0","0","0","12498","","null","","","null","46","","","","","","","","","","","","","","","",""
"","ISI","","html-keyboard-response","304","4902352","0.0-1.0-417.0","0","0","12498","","null","","","null","46","NaN","","","","","","","","","","","","","","",""
"","S2","","html-keyboard-response","305","4902611","0.0-1.0-418.0","0","0","12498","","null","","","null","46","","NaN","","","","","","","","","","","","","",""
"","response","","html-keyboard-response","306","4903339","0.0-1.0-419.0","0","0","12498","","723","","","75","46","","","1","46","training","adjacent","DE","4","5","R.jpg","M.jpg","0","1","0","",""
"","feedback","","html-keyboard-response","307","4904352","0.0-1.0-420.0-0.0","0","0","12498","","null","","","null","46","","","","","","","","","","","","","","","",""
"","time_out","","html-keyboard-response","308","4906369","0.0-1.0-422.0-0.0","0","0","12498","","null","","","null","46","","","","","","","","","","","","","","","",""
"","ITI","","html-keyboard-response","309","4907386","0.0-1.0-423.0","0","0","12498","","null","","","null","46","","","","","","","","","","","","","","","NaN",""
"","S1","","html-keyboard-response","310","4907647","0.0-1.0-425.0","0","0","12498","","null","","","null","47","","","","","","","","","","","","","","","",""
"","ISI","","html-keyboard-response","311","4909656","0.0-1.0-426.0","0","0","12498","","null","","","null","47","NaN","","","","","","","","","","","","","","",""
"","S2","","html-keyboard-response","312","4909917","0.0-1.0-427.0","0","0","12498","","null","","","null","47","","NaN","","","","","","","","","","","","","",""
"","response","","html-keyboard-response","313","4910717","0.0-1.0-428.0","0","0","12498","","791","","","68","47","","","1","47","training","adjacent","ED","5","4","M.jpg","R.jpg","1","0","0","",""
"","feedback","","html-keyboard-response","314","4911735","0.0-1.0-429.0-0.0","0","0","12498","","null","","","null","47","","","","","","","","","","","","","","","",""
"","time_out","","html-keyboard-response","315","4913744","0.0-1.0-431.0-0.0","0","0","12498","","null","","","null","47","","","","","","","","","","","","","","","",""
"","ITI","","html-keyboard-response","316","4914755","0.0-1.0-432.0","0","0","12498","","null","","","null","47","","","","","","","","","","","","","","","NaN",""
"","block_over","","html-keyboard-response","317","4927830","0.0-1.0-433.0-0.0","0","0","12498","","13069","","","32","47","","","","","","","","","","","","","","","",""
"","S1","","html-keyboard-response","318","4928091","0.0-1.0-434.0","0","0","12498","","null","","","null","48","","","","","","","","","","","","","","","",""
"","ISI","","html-keyboard-response","319","4930101","0.0-1.0-435.0","0","0","12498","","null","","","null","48","NaN","","","","","","","","","","","","","","",""
"","S2","","html-keyboard-response","320","4930366","0.0-1.0-436.0","0","0","12498","","null","","","null","48","","NaN","","","","","","","","","","","","","",""
"","response","","html-keyboard-response","321","4930612","0.0-1.0-437.0","0","0","12498","","241","","","75","48","","","2","48","training","adjacent","CD","3","4","L.jpg","R.jpg","0","1","0","",""
"","feedback","","html-keyboard-response","322","4931622","0.0-1.0-438.0-0.0","0","0","12498","","null","","","null","48","","","","","","","","","","","","","","","",""
"","time_out","","html-keyboard-response","323","4933636","0.0-1.0-440.0-0.0","0","0","12498","","null","","","null","48","","","","","","","","","","","","","","","",""
"","ITI","","html-keyboard-response","324","4934650","0.0-1.0-441.0","0","0","12498","","null","","","null","48","","","","","","","","","","","","","","","NaN",""
"","S1","","html-keyboard-response","325","4934909","0.0-1.0-443.0","0","0","12498","","null","","","null","49","","","","","","","","","","","","","","","",""
"","ISI","","html-keyboard-response","326","4936923","0.0-1.0-444.0","0","0","12498","","null","","","null","49","NaN","","","","","","","","","","","","","","",""
"","S2","","html-keyboard-response","327","4937184","0.0-1.0-445.0","0","0","12498","","null","","","null","49","","NaN","","","","","","","","","","","","","",""
"","response","","html-keyboard-response","328","4937219","0.0-1.0-446.0","0","0","12498","","26","","","75","49","","","2","49","training","adjacent","DC","4","3","R.jpg","L.jpg","0","0","1","",""
"","feedback","","html-keyboard-response","329","4938234","0.0-1.0-447.0-0.0","0","0","12498","","null","","","null","49","","","","","","","","","","","","","","","",""
"","ITI","","html-keyboard-response","330","4939252","0.0-1.0-450.0","0","0","12498","","null","","","null","49","","","","","","","","","","","","","","","NaN",""
"","S1","","html-keyboard-response","331","4939516","0.0-1.0-452.0","0","0","12498","","null","","","null","50","","","","","","","","","","","","","","","",""
"","ISI","","html-keyboard-response","332","4941522","0.0-1.0-453.0","0","0","12498","","null","","","null","50","NaN","","","","","","","","","","","","","","",""
"","S2","","html-keyboard-response","333","4941780","0.0-1.0-454.0","0","0","12498","","null","","","null","50","","NaN","","","","","","","","","","","","","",""
"","response","","html-keyboard-response","334","4942818","0.0-1.0-455.0","0","0","12498","","1024","","","68","50","","","2","50","training","adjacent","CD","3","4","L.jpg","R.jpg","1","1","1","",""
"","feedback","","html-keyboard-response","335","4943835","0.0-1.0-456.0-0.0","0","0","12498","","null","","","null","50","","","","","","","","","","","","","","","",""
"","ITI","","html-keyboard-response","336","4944850","0.0-1.0-459.0","0","0","12498","","null","","","null","50","","","","","","","","","","","","","","","NaN",""
"","S1","","html-keyboard-response","337","4945109","0.0-1.0-461.0","0","0","12498","","null","","","null","51","","","","","","","","","","","","","","","",""
"","ISI","","html-keyboard-response","338","4947118","0.0-1.0-462.0","0","0","12498","","null","","","null","51","NaN","","","","","","","","","","","","","","",""
"","S2","","html-keyboard-response","339","4947385","0.0-1.0-463.0","0","0","12498","","null","","","null","51","","NaN","","","","","","","","","","","","","",""
"","response","","html-keyboard-response","340","4947733","0.0-1.0-464.0","0","0","12498","","337","","","68","51","","","2","51","training","adjacent","ED","5","4","M.jpg","R.jpg","1","0","0","",""
"","feedback","","html-keyboard-response","341","4948750","0.0-1.0-465.0-0.0","0","0","12498","","null","","","null","51","","","","","","","","","","","","","","","",""
"","time_out","","html-keyboard-response","342","4950763","0.0-1.0-467.0-0.0","0","0","12498","","null","","","null","51","","","","","","","","","","","","","","","",""
"","ITI","","html-keyboard-response","343","4951773","0.0-1.0-468.0","0","0","12498","","null","","","null","51","","","","","","","","","","","","","","","NaN",""
"","S1","","html-keyboard-response","344","4952030","0.0-1.0-470.0","0","0","12498","","null","","","null","52","","","","","","","","","","","","","","","",""
"","ISI","","html-keyboard-response","345","4954043","0.0-1.0-471.0","0","0","12498","","null","","","null","52","NaN","","","","","","","","","","","","","","",""
"","S2","","html-keyboard-response","346","4954308","0.0-1.0-472.0","0","0","12498","","null","","","null","52","","NaN","","","","","","","","","","","","","",""
"","response","","html-keyboard-response","347","4954356","0.0-1.0-473.0","0","0","12498","","40","","","75","52","","","2","52","training","adjacent","BA","2","1","P.jpg","O.jpg","0","0","1","",""
"","feedback","","html-keyboard-response","348","4955368","0.0-1.0-474.0-0.0","0","0","12498","","null","","","null","52","","","","","","","","","","","","","","","",""
"","ITI","","html-keyboard-response","349","4956384","0.0-1.0-477.0","0","0","12498","","null","","","null","52","","","","","","","","","","","","","","","NaN",""
"","S1","","html-keyboard-response","350","4956651","0.0-1.0-479.0","0","0","12498","","null","","","null","53","","","","","","","","","","","","","","","",""
"","ISI","","html-keyboard-response","351","4958668","0.0-1.0-480.0","0","0","12498","","null","","","null","53","NaN","","","","","","","","","","","","","","",""
"","S2","","html-keyboard-response","352","4958935","0.0-1.0-481.0","0","0","12498","","null","","","null","53","","NaN","","","","","","","","","","","","","",""
"","response","","html-keyboard-response","353","4959157","0.0-1.0-482.0","0","0","12498","","214","","","68","53","","","2","53","training","adjacent","BC","2","3","P.jpg","L.jpg","1","1","1","",""
"","feedback","","html-keyboard-response","354","4960173","0.0-1.0-483.0-0.0","0","0","12498","","null","","","null","53","","","","","","","","","","","","","","","",""
"","ITI","","html-keyboard-response","355","4961188","0.0-1.0-486.0","0","0","12498","","null","","","null","53","","","","","","","","","","","","","","","NaN",""
"","S1","","html-keyboard-response","356","4961451","0.0-1.0-488.0","0","0","12498","","null","","","null","54","","","","","","","","","","","","","","","",""
"","ISI","","html-keyboard-response","357","4963459","0.0-1.0-489.0","0","0","12498","","null","","","null","54","NaN","","","","","","","","","","","","","","",""
"","S2","","html-keyboard-response","358","4963724","0.0-1.0-490.0","0","0","12498","","null","","","null","54","","NaN","","","","","","","","","","","","","",""
"","response","","html-keyboard-response","359","4963952","0.0-1.0-491.0","0","0","12498","","219","","","75","54","","","2","54","training","adjacent","AB","1","2","O.jpg","P.jpg","0","1","0","",""
"","feedback","","html-keyboard-response","360","4964961","0.0-1.0-492.0-0.0","0","0","12498","","null","","","null","54","","","","","","","","","","","","","","","",""
"","time_out","","html-keyboard-response","361","4966975","0.0-1.0-494.0-0.0","0","0","12498","","null","","","null","54","","","","","","","","","","","","","","","",""
"","ITI","","html-keyboard-response","362","4967985","0.0-1.0-495.0","0","0","12498","","null","","","null","54","","","","","","","","","","","","","","","NaN",""
"","S1","","html-keyboard-response","363","4968253","0.0-1.0-497.0","0","0","12498","","null","","","null","55","","","","","","","","","","","","","","","",""
"","ISI","","html-keyboard-response","364","4970268","0.0-1.0-498.0","0","0","12498","","1836","","","68","55","d","","","","","","","","","","","","","","",""
"","S2","","html-keyboard-response","365","4970533","0.0-1.0-499.0","0","0","12498","","null","","","null","55","","NaN","","","","","","","","","","","","","",""
"","response","","html-keyboard-response","366","4971013","0.0-1.0-500.0","0","0","12498","","470","","","68","55","","","2","55","training","adjacent","BA","2","1","P.jpg","O.jpg","1","0","0","",""
"","feedback","","html-keyboard-response","367","4972029","0.0-1.0-501.0-0.0","0","0","12498","","null","","","null","55","","","","","","","","","","","","","","","",""
"","time_out","","html-keyboard-response","368","4974043","0.0-1.0-503.0-0.0","0","0","12498","","null","","","null","55","","","","","","","","","","","","","","","",""
"","ITI","","html-keyboard-response","369","4975054","0.0-1.0-504.0","0","0","12498","","null","","","null","55","","","","","","","","","","","","","","","NaN",""
"","S1","","html-keyboard-response","370","4975319","0.0-1.0-506.0","0","0","12498","","null","","","null","56","","","","","","","","","","","","","","","",""
"","ISI","","html-keyboard-response","371","4977329","0.0-1.0-507.0","0","0","12498","","null","","","null","56","NaN","","","","","","","","","","","","","","",""
"","S2","","html-keyboard-response","372","4977587","0.0-1.0-508.0","0","0","12498","","44","","","75","56","","k","","","","","","","","","","","","","",""
"","response","","html-keyboard-response","373","4978653","0.0-1.0-509.0","0","0","12498","","1059","","","75","56","","","2","56","training","adjacent","DE","4","5","R.jpg","M.jpg","0","1","0","",""
"","feedback","","html-keyboard-response","374","4979667","0.0-1.0-510.0-0.0","0","0","12498","","null","","","null","56","","","","","","","","","","","","","","","",""
"","time_out","","html-keyboard-response","375","4981673","0.0-1.0-512.0-0.0","0","0","12498","","null","","","null","56","","","","","","","","","","","","","","","",""
"","ITI","","html-keyboard-response","376","4982685","0.0-1.0-513.0","0","0","12498","","null","","","null","56","","","","","","","","","","","","","","","NaN",""
"","S1","","html-keyboard-response","377","4982944","0.0-1.0-515.0","0","0","12498","","null","","","null","57","","","","","","","","","","","","","","","",""
"","ISI","","html-keyboard-response","378","4984955","0.0-1.0-516.0","0","0","12498","","322","","","68","57","d","","","","","","","","","","","","","","",""
"","S2","","html-keyboard-response","379","4985216","0.0-1.0-517.0","0","0","12498","","null","","","null","57","","NaN","","","","","","","","","","","","","",""
"","response","","html-keyboard-response","380","4985368","0.0-1.0-518.0","0","0","12498","","142","","","75","57","","","2","57","training","adjacent","ED","5","4","M.jpg","R.jpg","0","0","1","",""
"","feedback","","html-keyboard-response","381","4986378","0.0-1.0-519.0-0.0","0","0","12498","","null","","","null","57","","","","","","","","","","","","","","","",""
"","ITI","","html-keyboard-response","382","4987391","0.0-1.0-522.0","0","0","12498","","null","","","null","57","","","","","","","","","","","","","","","NaN",""
"","S1","","html-keyboard-response","383","4987658","0.0-1.0-524.0","0","0","12498","","null","","","null","58","","","","","","","","","","","","","","","",""
"","ISI","","html-keyboard-response","384","4989669","0.0-1.0-525.0","0","0","12498","","null","","","null","58","NaN","","","","","","","","","","","","","","",""
"","S2","","html-keyboard-response","385","4989934","0.0-1.0-526.0","0","0","12498","","null","","","null","58","","NaN","","","","","","","","","","","","","",""
"","response","","html-keyboard-response","386","4990317","0.0-1.0-527.0","0","0","12498","","373","","","68","58","","","2","58","training","adjacent","BC","2","3","P.jpg","L.jpg","1","1","1","",""
"","feedback","","html-keyboard-response","387","4991325","0.0-1.0-528.0-0.0","0","0","12498","","null","","","null","58","","","","","","","","","","","","","","","",""
"","ITI","","html-keyboard-response","388","4992336","0.0-1.0-531.0","0","0","12498","","null","","","null","58","","","","","","","","","","","","","","","NaN",""
"","S1","","html-keyboard-response","389","4992596","0.0-1.0-533.0","0","0","12498","","null","","","null","59","","","","","","","","","","","","","","","",""
"","ISI","","html-keyboard-response","390","4994607","0.0-1.0-534.0","0","0","12498","","null","","","null","59","NaN","","","","","","","","","","","","","","",""
"","S2","","html-keyboard-response","391","4994873","0.0-1.0-535.0","0","0","12498","","null","","","null","59","","NaN","","","","","","","","","","","","","",""
"","response","","html-keyboard-response","392","4994943","0.0-1.0-536.0","0","0","12498","","61","","","68","59","","","2","59","training","adjacent","FG","6","7","N.jpg","Q.jpg","1","1","1","",""
"","feedback","","html-keyboard-response","393","4995969","0.0-1.0-537.0-0.0","0","0","12498","","null","","","null","59","","","","","","","","","","","","","","","",""
"","ITI","","html-keyboard-response","394","4996985","0.0-1.0-540.0","0","0","12498","","null","","","null","59","","","","","","","","","","","","","","","NaN",""
"","S1","","html-keyboard-response","395","4997247","0.0-1.0-542.0","0","0","12498","","null","","","null","60","","","","","","","","","","","","","","","",""
"","ISI","","html-keyboard-response","396","4999256","0.0-1.0-543.0","0","0","12498","","null","","","null","60","NaN","","","","","","","","","","","","","","",""
"","S2","","html-keyboard-response","397","4999518","0.0-1.0-544.0","0","0","12498","","null","","","null","60","","NaN","","","","","","","","","","","","","",""
"","response","","html-keyboard-response","398","4999889","0.0-1.0-545.0","0","0","12498","","364","","","75","60","","","2","60","training","adjacent","BA","2","1","P.jpg","O.jpg","0","0","1","",""
"","feedback","","html-keyboard-response","399","5000901","0.0-1.0-546.0-0.0","0","0","12498","","null","","","null","60","","","","","","","","","","","","","","","",""
"","ITI","","html-keyboard-response","400","5001907","0.0-1.0-549.0","0","0","12498","","null","","","null","60","","","","","","","","","","","","","","","NaN",""
"","S1","","html-keyboard-response","401","5002170","0.0-1.0-551.0","0","0","12498","","null","","","null","61","","","","","","","","","","","","","","","",""
"","ISI","","html-keyboard-response","402","5004178","0.0-1.0-552.0","0","0","12498","","null","","","null","61","NaN","","","","","","","","","","","","","","",""
"","S2","","html-keyboard-response","403","5004447","0.0-1.0-553.0","0","0","12498","","null","","","null","61","","NaN","","","","","","","","","","","","","",""
"","response","","html-keyboard-response","404","5004872","0.0-1.0-554.0","0","0","12498","","416","","","68","61","","","2","61","training","adjacent","FE","6","5","N.jpg","M.jpg","1","0","0","",""
"","feedback","","html-keyboard-response","405","5005880","0.0-1.0-555.0-0.0","0","0","12498","","null","","","null","61","","","","","","","","","","","","","","","",""
"","time_out","","html-keyboard-response","406","5007891","0.0-1.0-557.0-0.0","0","0","12498","","null","","","null","61","","","","","","","","","","","","","","","",""
"","ITI","","html-keyboard-response","407","5008903","0.0-1.0-558.0","0","0","12498","","null","","","null","61","","","","","","","","","","","","","","","NaN",""
"","S1","","html-keyboard-response","408","5009169","0.0-1.0-560.0","0","0","12498","","null","","","null","62","","","","","","","","","","","","","","","",""
"","ISI","","html-keyboard-response","409","5011180","0.0-1.0-561.0","0","0","12498","","null","","","null","62","NaN","","","","","","","","","","","","","","",""
"","S2","","html-keyboard-response","410","5011441","0.0-1.0-562.0","0","0","12498","","null","","","null","62","","NaN","","","","","","","","","","","","","",""
"","response","","html-keyboard-response","411","5011896","0.0-1.0-563.0","0","0","12498","","448","","","68","62","","","2","62","training","adjacent","ED","5","4","M.jpg","R.jpg","1","0","0","",""
"","feedback","","html-keyboard-response","412","5012908","0.0-1.0-564.0-0.0","0","0","12498","","null","","","null","62","","","","","","","","","","","","","","","",""
"","time_out","","html-keyboard-response","413","5014927","0.0-1.0-566.0-0.0","0","0","12498","","null","","","null","62","","","","","","","","","","","","","","","",""
"","ITI","","html-keyboard-response","414","5015940","0.0-1.0-567.0","0","0","12498","","null","","","null","62","","","","","","","","","","","","","","","NaN",""
"","S1","","html-keyboard-response","415","5016202","0.0-1.0-569.0","0","0","12498","","null","","","null","63","","","","","","","","","","","","","","","",""
"","ISI","","html-keyboard-response","416","5018217","0.0-1.0-570.0","0","0","12498","","null","","","null","63","NaN","","","","","","","","","","","","","","",""
"","S2","","html-keyboard-response","417","5018483","0.0-1.0-571.0","0","0","12498","","null","","","null","63","","NaN","","","","","","","","","","","","","",""
"","response","","html-keyboard-response","418","5018574","0.0-1.0-572.0","0","0","12498","","85","","","68","63","","","2","63","training","adjacent","FG","6","7","N.jpg","Q.jpg","1","1","1","",""
"","feedback","","html-keyboard-response","419","5019603","0.0-1.0-573.0-0.0","0","0","12498","","null","","","null","63","","","","","","","","","","","","","","","",""
"","ITI","","html-keyboard-response","420","5020616","0.0-1.0-576.0","0","0","12498","","null","","","null","63","","","","","","","","","","","","","","","NaN",""
"","S1","","html-keyboard-response","421","5020875","0.0-1.0-578.0","0","0","12498","","null","","","null","64","","","","","","","","","","","","","","","",""
"","ISI","","html-keyboard-response","422","5022888","0.0-1.0-579.0","0","0","12498","","null","","","null","64","NaN","","","","","","","","","","","","","","",""
"","S2","","html-keyboard-response","423","5023153","0.0-1.0-580.0","0","0","12498","","null","","","null","64","","NaN","","","","","","","","","","","","","",""
"","response","","html-keyboard-response","424","5023363","0.0-1.0-581.0","0","0","12498","","203","","","75","64","","","2","64","training","adjacent","AB","1","2","O.jpg","P.jpg","0","1","0","",""
"","feedback","","html-keyboard-response","425","5024380","0.0-1.0-582.0-0.0","0","0","12498","","null","","","null","64","","","","","","","","","","","","","","","",""
"","time_out","","html-keyboard-response","426","5026405","0.0-1.0-584.0-0.0","0","0","12498","","null","","","null","64","","","","","","","","","","","","","","","",""
"","ITI","","html-keyboard-response","427","5027414","0.0-1.0-585.0","0","0","12498","","null","","","null","64","","","","","","","","","","","","","","","NaN",""
"","S1","","html-keyboard-response","428","5027672","0.0-1.0-587.0","0","0","12498","","null","","","null","65","","","","","","","","","","","","","","","",""
"","ISI","","html-keyboard-response","429","5029679","0.0-1.0-588.0","0","0","12498","","null","","","null","65","NaN","","","","","","","","","","","","","","",""
"","S2","","html-keyboard-response","430","5029940","0.0-1.0-589.0","0","0","12498","","null","","","null","65","","NaN","","","","","","","","","","","","","",""
"","response","","html-keyboard-response","431","5030011","0.0-1.0-590.0","0","0","12498","","64","","","68","65","","","2","65","training","adjacent","GF","7","6","Q.jpg","N.jpg","1","0","0","",""
"","feedback","","html-keyboard-response","432","5031021","0.0-1.0-591.0-0.0","0","0","12498","","null","","","null","65","","","","","","","","","","","","","","","",""
"","time_out","","html-keyboard-response","433","5033030","0.0-1.0-593.0-0.0","0","0","12498","","null","","","null","65","","","","","","","","","","","","","","","",""
"","ITI","","html-keyboard-response","434","5034040","0.0-1.0-594.0","0","0","12498","","null","","","null","65","","","","","","","","","","","","","","","NaN",""
"","S1","","html-keyboard-response","435","5034297","0.0-1.0-596.0","0","0","12498","","null","","","null","66","","","","","","","","","","","","","","","",""
"","ISI","","html-keyboard-response","436","5036305","0.0-1.0-597.0","0","0","12498","","null","","","null","66","NaN","","","","","","","","","","","","","","",""
"","S2","","html-keyboard-response","437","5036568","0.0-1.0-598.0","0","0","12498","","null","","","null","66","","NaN","","","","","","","","","","","","","",""
"","response","","html-keyboard-response","438","5037074","0.0-1.0-599.0","0","0","12498","","497","","","68","66","","","2","66","training","adjacent","CB","3","2","L.jpg","P.jpg","1","0","0","",""
"","feedback","","html-keyboard-response","439","5038086","0.0-1.0-600.0-0.0","0","0","12498","","null","","","null","66","","","","","","","","","","","","","","","",""
"","time_out","","html-keyboard-response","440","5040100","0.0-1.0-602.0-0.0","0","0","12498","","null","","","null","66","","","","","","","","","","","","","","","",""
"","ITI","","html-keyboard-response","441","5041119","0.0-1.0-603.0","0","0","12498","","null","","","null","66","","","","","","","","","","","","","","","NaN",""
"","S1","","html-keyboard-response","442","5041381","0.0-1.0-605.0","0","0","12498","","null","","","null","67","","","","","","","","","","","","","","","",""
"","ISI","","html-keyboard-response","443","5043386","0.0-1.0-606.0","0","0","12498","","null","","","null","67","NaN","","","","","","","","","","","","","","",""
"","S2","","html-keyboard-response","444","5043650","0.0-1.0-607.0","0","0","12498","","null","","","null","67","","NaN","","","","","","","","","","","","","",""
"","response","","html-keyboard-response","445","5043837","0.0-1.0-608.0","0","0","12498","","179","","","75","67","","","2","67","training","adjacent","DC","4","3","R.jpg","L.jpg","0","0","1","",""
"","feedback","","html-keyboard-response","446","5044850","0.0-1.0-609.0-0.0","0","0","12498","","null","","","null","67","","","","","","","","","","","","","","","",""
"","ITI","","html-keyboard-response","447","5045866","0.0-1.0-612.0","0","0","12498","","null","","","null","67","","","","","","","","","","","","","","","NaN",""
"","S1","","html-keyboard-response","448","5046130","0.0-1.0-614.0","0","0","12498","","null","","","null","68","","","","","","","","","","","","","","","",""
"","ISI","","html-keyboard-response","449","5048138","0.0-1.0-615.0","0","0","12498","","null","","","null","68","NaN","","","","","","","","","","","","","","",""
"","S2","","html-keyboard-response","450","5048399","0.0-1.0-616.0","0","0","12498","","null","","","null","68","","NaN","","","","","","","","","","","","","",""
"","response","","html-keyboard-response","451","5048468","0.0-1.0-617.0","0","0","12498","","63","","","75","68","","","2","68","training","adjacent","FG","6","7","N.jpg","Q.jpg","0","1","0","",""
"","feedback","","html-keyboard-response","452","5049484","0.0-1.0-618.0-0.0","0","0","12498","","null","","","null","68","","","","","","","","","","","","","","","",""
"","time_out","","html-keyboard-response","453","5051498","0.0-1.0-620.0-0.0","0","0","12498","","null","","","null","68","","","","","","","","","","","","","","","",""
"","ITI","","html-keyboard-response","454","5052514","0.0-1.0-621.0","0","0","12498","","null","","","null","68","","","","","","","","","","","","","","","NaN",""
"","S1","","html-keyboard-response","455","5052781","0.0-1.0-623.0","0","0","12498","","null","","","null","69","","","","","","","","","","","","","","","",""
"","ISI","","html-keyboard-response","456","5054793","0.0-1.0-624.0","0","0","12498","","null","","","null","69","NaN","","","","","","","","","","","","","","",""
"","S2","","html-keyboard-response","457","5055064","0.0-1.0-625.0","0","0","12498","","null","","","null","69","","NaN","","","","","","","","","","","","","",""
"","response","","html-keyboard-response","458","5055503","0.0-1.0-626.0","0","0","12498","","432","","","75","69","","","2","69","training","adjacent","AB","1","2","O.jpg","P.jpg","0","1","0","",""
"","feedback","","html-keyboard-response","459","5056515","0.0-1.0-627.0-0.0","0","0","12498","","null","","","null","69","","","","","","","","","","","","","","","",""
"","time_out","","html-keyboard-response","460","5058528","0.0-1.0-629.0-0.0","0","0","12498","","null","","","null","69","","","","","","","","","","","","","","","",""
"","ITI","","html-keyboard-response","461","5059534","0.0-1.0-630.0","0","0","12498","","null","","","null","69","","","","","","","","","","","","","","","NaN",""
"","S1","","html-keyboard-response","462","5059798","0.0-1.0-632.0","0","0","12498","","null","","","null","70","","","","","","","","","","","","","","","",""
"","ISI","","html-keyboard-response","463","5061811","0.0-1.0-633.0","0","0","12498","","null","","","null","70","NaN","","","","","","","","","","","","","","",""
"","S2","","html-keyboard-response","464","5062072","0.0-1.0-634.0","0","0","12498","","null","","","null","70","","NaN","","","","","","","","","","","","","",""
"","response","","html-keyboard-response","465","5062224","0.0-1.0-635.0","0","0","12498","","146","","","75","70","","","2","70","training","adjacent","BC","2","3","P.jpg","L.jpg","0","1","0","",""
"","feedback","","html-keyboard-response","466","5063238","0.0-1.0-636.0-0.0","0","0","12498","","null","","","null","70","","","","","","","","","","","","","","","",""
"","time_out","","html-keyboard-response","467","5065248","0.0-1.0-638.0-0.0","0","0","12498","","null","","","null","70","","","","","","","","","","","","","","","",""
"","ITI","","html-keyboard-response","468","5066258","0.0-1.0-639.0","0","0","12498","","null","","","null","70","","","","","","","","","","","","","","","NaN",""
"","S1","","html-keyboard-response","469","5066521","0.0-1.0-641.0","0","0","12498","","null","","","null","71","","","","","","","","","","","","","","","",""
"","ISI","","html-keyboard-response","470","5068535","0.0-1.0-642.0","0","0","12498","","null","","","null","71","NaN","","","","","","","","","","","","","","",""
"","S2","","html-keyboard-response","471","5068793","0.0-1.0-643.0","0","0","12498","","null","","","null","71","","NaN","","","","","","","","","","","","","",""
"","response","","html-keyboard-response","472","5068867","0.0-1.0-644.0","0","0","12498","","65","","","68","71","","","2","71","training","adjacent","CD","3","4","L.jpg","R.jpg","1","1","1","",""
"","feedback","","html-keyboard-response","473","5069878","0.0-1.0-645.0-0.0","0","0","12498","","null","","","null","71","","","","","","","","","","","","","","","",""
"","ITI","","html-keyboard-response","474","5070888","0.0-1.0-648.0","0","0","12498","","null","","","null","71","","","","","","","","","","","","","","","NaN",""
"","S1","","html-keyboard-response","475","5071151","0.0-1.0-650.0","0","0","12498","","null","","","null","72","","","","","","","","","","","","","","","",""
"","ISI","","html-keyboard-response","476","5073163","0.0-1.0-651.0","0","0","12498","","null","","","null","72","NaN","","","","","","","","","","","","","","",""
"","S2","","html-keyboard-response","477","5073423","0.0-1.0-652.0","0","0","12498","","null","","","null","72","","NaN","","","","","","","","","","","","","",""
"","response","","html-keyboard-response","478","5073562","0.0-1.0-653.0","0","0","12498","","131","","","68","72","","","2","72","training","adjacent","DE","4","5","R.jpg","M.jpg","1","1","1","",""
"","feedback","","html-keyboard-response","479","5074590","0.0-1.0-654.0-0.0","0","0","12498","","null","","","null","72","","","","","","","","","","","","","","","",""
"","ITI","","html-keyboard-response","480","5075604","0.0-1.0-657.0","0","0","12498","","null","","","null","72","","","","","","","","","","","","","","","NaN",""
"","S1","","html-keyboard-response","481","5075863","0.0-1.0-659.0","0","0","12498","","null","","","null","73","","","","","","","","","","","","","","","",""
"","ISI","","html-keyboard-response","482","5077878","0.0-1.0-660.0","0","0","12498","","null","","","null","73","NaN","","","","","","","","","","","","","","",""
"","S2","","html-keyboard-response","483","5078139","0.0-1.0-661.0","0","0","12498","","null","","","null","73","","NaN","","","","","","","","","","","","","",""
"","response","","html-keyboard-response","484","5078637","0.0-1.0-662.0","0","0","12498","","492","","","68","73","","","2","73","training","adjacent","DE","4","5","R.jpg","M.jpg","1","1","1","",""
"","feedback","","html-keyboard-response","485","5079651","0.0-1.0-663.0-0.0","0","0","12498","","null","","","null","73","","","","","","","","","","","","","","","",""
"","ITI","","html-keyboard-response","486","5080663","0.0-1.0-666.0","0","0","12498","","null","","","null","73","","","","","","","","","","","","","","","NaN",""
"","S1","","html-keyboard-response","487","5080922","0.0-1.0-668.0","0","0","12498","","null","","","null","74","","","","","","","","","","","","","","","",""
"","ISI","","html-keyboard-response","488","5082932","0.0-1.0-669.0","0","0","12498","","null","","","null","74","NaN","","","","","","","","","","","","","","",""
"","S2","","html-keyboard-response","489","5083199","0.0-1.0-670.0","0","0","12498","","null","","","null","74","","NaN","","","","","","","","","","","","","",""
"","response","","html-keyboard-response","490","5083764","0.0-1.0-671.0","0","0","12498","","556","","","68","74","","","2","74","training","adjacent","EF","5","6","M.jpg","N.jpg","1","1","1","",""
"","feedback","","html-keyboard-response","491","5084782","0.0-1.0-672.0-0.0","0","0","12498","","null","","","null","74","","","","","","","","","","","","","","","",""
"","ITI","","html-keyboard-response","492","5085798","0.0-1.0-675.0","0","0","12498","","null","","","null","74","","","","","","","","","","","","","","","NaN",""
"","S1","","html-keyboard-response","493","5086064","0.0-1.0-677.0","0","0","12498","","null","","","null","75","","","","","","","","","","","","","","","",""
"","ISI","","html-keyboard-response","494","5088080","0.0-1.0-678.0","0","0","12498","","null","","","null","75","NaN","","","","","","","","","","","","","","",""
"","S2","","html-keyboard-response","495","5088348","0.0-1.0-679.0","0","0","12498","","null","","","null","75","","NaN","","","","","","","","","","","","","",""
"","response","","html-keyboard-response","496","5089641","0.0-1.0-680.0","0","0","12498","","1287","","","68","75","","","2","75","training","adjacent","FG","6","7","N.jpg","Q.jpg","1","1","1","",""
"","feedback","","html-keyboard-response","497","5090655","0.0-1.0-681.0-0.0","0","0","12498","","null","","","null","75","","","","","","","","","","","","","","","",""
"","ITI","","html-keyboard-response","498","5091668","0.0-1.0-684.0","0","0","12498","","null","","","null","75","","","","","","","","","","","","","","","NaN",""
"","S1","","html-keyboard-response","499","5091928","0.0-1.0-686.0","0","0","12498","","null","","","null","76","","","","","","","","","","","","","","","",""
"","ISI","","html-keyboard-response","500","5093937","0.0-1.0-687.0","0","0","12498","","null","","","null","76","NaN","","","","","","","","","","","","","","",""
"","S2","","html-keyboard-response","501","5094205","0.0-1.0-688.0","0","0","12498","","null","","","null","76","","NaN","","","","","","","","","","","","","",""
"","response","","html-keyboard-response","502","5094240","0.0-1.0-689.0","0","0","12498","","29","","","68","76","","","2","76","training","adjacent","BC","2","3","P.jpg","L.jpg","1","1","1","",""
"","feedback","","html-keyboard-response","503","5095254","0.0-1.0-690.0-0.0","0","0","12498","","null","","","null","76","","","","","","","","","","","","","","","",""
"","ITI","","html-keyboard-response","504","5096268","0.0-1.0-693.0","0","0","12498","","null","","","null","76","","","","","","","","","","","","","","","NaN",""
"","S1","","html-keyboard-response","505","5096533","0.0-1.0-695.0","0","0","12498","","null","","","null","77","","","","","","","","","","","","","","","",""
"","ISI","","html-keyboard-response","506","5098541","0.0-1.0-696.0","0","0","12498","","null","","","null","77","NaN","","","","","","","","","","","","","","",""
"","S2","","html-keyboard-response","507","5098803","0.0-1.0-697.0","0","0","12498","","null","","","null","77","","NaN","","","","","","","","","","","","","",""
"","response","","html-keyboard-response","508","5099006","0.0-1.0-698.0","0","0","12498","","196","","","68","77","","","2","77","training","adjacent","GF","7","6","Q.jpg","N.jpg","1","0","0","",""
"","feedback","","html-keyboard-response","509","5100016","0.0-1.0-699.0-0.0","0","0","12498","","null","","","null","77","","","","","","","","","","","","","","","",""
"","time_out","","html-keyboard-response","510","5102024","0.0-1.0-701.0-0.0","0","0","12498","","null","","","null","77","","","","","","","","","","","","","","","",""
"","ITI","","html-keyboard-response","511","5103042","0.0-1.0-702.0","0","0","12498","","null","","","null","77","","","","","","","","","","","","","","","NaN",""
"","S1","","html-keyboard-response","512","5103306","0.0-1.0-704.0","0","0","12498","","null","","","null","78","","","","","","","","","","","","","","","",""
"","ISI","","html-keyboard-response","513","5105316","0.0-1.0-705.0","0","0","12498","","null","","","null","78","NaN","","","","","","","","","","","","","","",""
"","S2","","html-keyboard-response","514","5105579","0.0-1.0-706.0","0","0","12498","","null","","","null","78","","NaN","","","","","","","","","","","","","",""
"","response","","html-keyboard-response","515","5105884","0.0-1.0-707.0","0","0","12498","","294","","","75","78","","","2","78","training","adjacent","CB","3","2","L.jpg","P.jpg","0","0","1","",""
"","feedback","","html-keyboard-response","516","5106901","0.0-1.0-708.0-0.0","0","0","12498","","null","","","null","78","","","","","","","","","","","","","","","",""
"","ITI","","html-keyboard-response","517","5107916","0.0-1.0-711.0","0","0","12498","","null","","","null","78","","","","","","","","","","","","","","","NaN",""
"","S1","","html-keyboard-response","518","5108178","0.0-1.0-713.0","0","0","12498","","null","","","null","79","","","","","","","","","","","","","","","",""
"","ISI","","html-keyboard-response","519","5110192","0.0-1.0-714.0","0","0","12498","","null","","","null","79","NaN","","","","","","","","","","","","","","",""
"","S2","","html-keyboard-response","520","5110456","0.0-1.0-715.0","0","0","12498","","null","","","null","79","","NaN","","","","","","","","","","","","","",""
"","response","","html-keyboard-response","521","5110571","0.0-1.0-716.0","0","0","12498","","108","","","75","79","","","2","79","training","adjacent","FE","6","5","N.jpg","M.jpg","0","0","1","",""
"","feedback","","html-keyboard-response","522","5111578","0.0-1.0-717.0-0.0","0","0","12498","","null","","","null","79","","","","","","","","","","","","","","","",""
"","ITI","","html-keyboard-response","523","5112600","0.0-1.0-720.0","0","0","12498","","null","","","null","79","","","","","","","","","","","","","","","NaN",""
"","S1","","html-keyboard-response","524","5112867","0.0-1.0-722.0","0","0","12498","","null","","","null","80","","","","","","","","","","","","","","","",""
"","ISI","","html-keyboard-response","525","5114884","0.0-1.0-723.0","0","0","12498","","null","","","null","80","NaN","","","","","","","","","","","","","","",""
"","S2","","html-keyboard-response","526","5115152","0.0-1.0-724.0","0","0","12498","","null","","","null","80","","NaN","","","","","","","","","","","","","",""
"","response","","html-keyboard-response","527","5115659","0.0-1.0-725.0","0","0","12498","","500","","","75","80","","","2","80","training","adjacent","ED","5","4","M.jpg","R.jpg","0","0","1","",""
"","feedback","","html-keyboard-response","528","5116669","0.0-1.0-726.0-0.0","0","0","12498","","null","","","null","80","","","","","","","","","","","","","","","",""
"","ITI","","html-keyboard-response","529","5117685","0.0-1.0-729.0","0","0","12498","","null","","","null","80","","","","","","","","","","","","","","","NaN",""
"","S1","","html-keyboard-response","530","5117950","0.0-1.0-731.0","0","0","12498","","null","","","null","81","","","","","","","","","","","","","","","",""
"","ISI","","html-keyboard-response","531","5119956","0.0-1.0-732.0","0","0","12498","","null","","","null","81","NaN","","","","","","","","","","","","","","",""
"","S2","","html-keyboard-response","532","5120219","0.0-1.0-733.0","0","0","12498","","null","","","null","81","","NaN","","","","","","","","","","","","","",""
"","response","","html-keyboard-response","533","5120361","0.0-1.0-734.0","0","0","12498","","136","","","75","81","","","2","81","training","adjacent","EF","5","6","M.jpg","N.jpg","0","1","0","",""
"","feedback","","html-keyboard-response","534","5121379","0.0-1.0-735.0-0.0","0","0","12498","","null","","","null","81","","","","","","","","","","","","","","","",""
"","time_out","","html-keyboard-response","535","5123387","0.0-1.0-737.0-0.0","0","0","12498","","null","","","null","81","","","","","","","","","","","","","","","",""
"","ITI","","html-keyboard-response","536","5124400","0.0-1.0-738.0","0","0","12498","","null","","","null","81","","","","","","","","","","","","","","","NaN",""
"","S1","","html-keyboard-response","537","5124665","0.0-1.0-740.0","0","0","12498","","null","","","null","82","","","","","","","","","","","","","","","",""
"","ISI","","html-keyboard-response","538","5126672","0.0-1.0-741.0","0","0","12498","","null","","","null","82","NaN","","","","","","","","","","","","","","",""
"","S2","","html-keyboard-response","539","5126934","0.0-1.0-742.0","0","0","12498","","null","","","null","82","","NaN","","","","","","","","","","","","","",""
"","response","","html-keyboard-response","540","5127000","0.0-1.0-743.0","0","0","12498","","56","","","68","82","","","2","82","training","adjacent","FE","6","5","N.jpg","M.jpg","1","0","0","",""
"","feedback","","html-keyboard-response","541","5128015","0.0-1.0-744.0-0.0","0","0","12498","","null","","","null","82","","","","","","","","","","","","","","","",""
"","time_out","","html-keyboard-response","542","5130023","0.0-1.0-746.0-0.0","0","0","12498","","null","","","null","82","","","","","","","","","","","","","","","",""
"","ITI","","html-keyboard-response","543","5131032","0.0-1.0-747.0","0","0","12498","","null","","","null","82","","","","","","","","","","","","","","","NaN",""
"","S1","","html-keyboard-response","544","5131292","0.0-1.0-749.0","0","0","12498","","null","","","null","83","","","","","","","","","","","","","","","",""
"","ISI","","html-keyboard-response","545","5133302","0.0-1.0-750.0","0","0","12498","","382","","","75","83","k","","","","","","","","","","","","","","",""
"","S2","","html-keyboard-response","546","5133562","0.0-1.0-751.0","0","0","12498","","241","","","75","83","","k","","","","","","","","","","","","","",""
"","response","","html-keyboard-response","547","5134717","0.0-1.0-752.0","0","0","12498","","1145","","","75","83","","","2","83","training","adjacent","GF","7","6","Q.jpg","N.jpg","0","0","1","",""
"","feedback","","html-keyboard-response","548","5135731","0.0-1.0-753.0-0.0","0","0","12498","","null","","","null","83","","","","","","","","","","","","","","","",""
"","ITI","","html-keyboard-response","549","5136749","0.0-1.0-756.0","0","0","12498","","null","","","null","83","","","","","","","","","","","","","","","NaN",""
"","S1","","html-keyboard-response","550","5137012","0.0-1.0-758.0","0","0","12498","","null","","","null","84","","","","","","","","","","","","","","","",""
"","ISI","","html-keyboard-response","551","5139022","0.0-1.0-759.0","0","0","12498","","1685","","","68","84","d","","","","","","","","","","","","","","",""
"","S2","","html-keyboard-response","552","5139285","0.0-1.0-760.0","0","0","12498","","null","","","null","84","","NaN","","","","","","","","","","","","","",""
"","response","","html-keyboard-response","553","5139418","0.0-1.0-761.0","0","0","12498","","127","","","68","84","","","2","84","training","adjacent","CB","3","2","L.jpg","P.jpg","1","0","0","",""
"","feedback","","html-keyboard-response","554","5140434","0.0-1.0-762.0-0.0","0","0","12498","","null","","","null","84","","","","","","","","","","","","","","","",""
"","time_out","","html-keyboard-response","555","5142449","0.0-1.0-764.0-0.0","0","0","12498","","null","","","null","84","","","","","","","","","","","","","","","",""
"","ITI","","html-keyboard-response","556","5143462","0.0-1.0-765.0","0","0","12498","","228","","","75","84","","","","","","","","","","","","","","","k",""
"","S1","","html-keyboard-response","557","5143733","0.0-1.0-767.0","0","0","12498","","null","","","null","85","","","","","","","","","","","","","","","",""
"","ISI","","html-keyboard-response","558","5145740","0.0-1.0-768.0","0","0","12498","","192","","","75","85","k","","","","","","","","","","","","","","",""
"","S2","","html-keyboard-response","559","5146002","0.0-1.0-769.0","0","0","12498","","null","","","null","85","","NaN","","","","","","","","","","","","","",""
"","response","","html-keyboard-response","560","5146255","0.0-1.0-770.0","0","0","12498","","245","","","75","85","","","2","85","training","adjacent","DC","4","3","R.jpg","L.jpg","0","0","1","",""
"","feedback","","html-keyboard-response","561","5147268","0.0-1.0-771.0-0.0","0","0","12498","","null","","","null","85","","","","","","","","","","","","","","","",""
"","ITI","","html-keyboard-response","562","5148284","0.0-1.0-774.0","0","0","12498","","null","","","null","85","","","","","","","","","","","","","","","NaN",""
"","S1","","html-keyboard-response","563","5148546","0.0-1.0-776.0","0","0","12498","","null","","","null","86","","","","","","","","","","","","","","","",""
"","ISI","","html-keyboard-response","564","5150569","0.0-1.0-777.0","0","0","12498","","null","","","null","86","NaN","","","","","","","","","","","","","","",""
"","S2","","html-keyboard-response","565","5150835","0.0-1.0-778.0","0","0","12498","","null","","","null","86","","NaN","","","","","","","","","","","","","",""
"","response","","html-keyboard-response","566","5151184","0.0-1.0-779.0","0","0","12498","","341","","","68","86","","","2","86","training","adjacent","CB","3","2","L.jpg","P.jpg","1","0","0","",""
"","feedback","","html-keyboard-response","567","5152193","0.0-1.0-780.0-0.0","0","0","12498","","null","","","null","86","","","","","","","","","","","","","","","",""
"","time_out","","html-keyboard-response","568","5154207","0.0-1.0-782.0-0.0","0","0","12498","","null","","","null","86","","","","","","","","","","","","","","","",""
"","ITI","","html-keyboard-response","569","5155216","0.0-1.0-783.0","0","0","12498","","null","","","null","86","","","","","","","","","","","","","","","NaN",""
"","S1","","html-keyboard-response","570","5155474","0.0-1.0-785.0","0","0","12498","","null","","","null","87","","","","","","","","","","","","","","","",""
"","ISI","","html-keyboard-response","571","5157487","0.0-1.0-786.0","0","0","12498","","331","","","75","87","k","","","","","","","","","","","","","","",""
"","S2","","html-keyboard-response","572","5157755","0.0-1.0-787.0","0","0","12498","","201","","","75","87","","k","","","","","","","","","","","","","",""
"","response","","html-keyboard-response","573","5158274","0.0-1.0-788.0","0","0","12498","","512","","","75","87","","","2","87","training","adjacent","FE","6","5","N.jpg","M.jpg","0","0","1","",""
"","feedback","","html-keyboard-response","574","5159289","0.0-1.0-789.0-0.0","0","0","12498","","null","","","null","87","","","","","","","","","","","","","","","",""
"","ITI","","html-keyboard-response","575","5160299","0.0-1.0-792.0","0","0","12498","","null","","","null","87","","","","","","","","","","","","","","","NaN",""
"","S1","","html-keyboard-response","576","5160565","0.0-1.0-794.0","0","0","12498","","null","","","null","88","","","","","","","","","","","","","","","",""
"","ISI","","html-keyboard-response","577","5162582","0.0-1.0-795.0","0","0","12498","","null","","","null","88","NaN","","","","","","","","","","","","","","",""
"","S2","","html-keyboard-response","578","5162850","0.0-1.0-796.0","0","0","12498","","null","","","null","88","","NaN","","","","","","","","","","","","","",""
"","response","","html-keyboard-response","579","5164011","0.0-1.0-797.0","0","0","12498","","1154","","","75","88","","","2","88","training","adjacent","DC","4","3","R.jpg","L.jpg","0","0","1","",""
"","feedback","","html-keyboard-response","580","5165022","0.0-1.0-798.0-0.0","0","0","12498","","null","","","null","88","","","","","","","","","","","","","","","",""
"","ITI","","html-keyboard-response","581","5166033","0.0-1.0-801.0","0","0","12498","","null","","","null","88","","","","","","","","","","","","","","","NaN",""
