"success","ttype","start_time","trial_type","trial_index","time_elapsed","internal_node_id","warning","missed_checkup","PID","view_history","rt","responses","repeat_instructions","key_press","index","keypress_isi","keypress_S2","block","trial_num","phase","group_type","pair_type","S1_stim","S2_stim","S1_img","S2_img","S1_chosen","S1_higher","accuracy","keypress_iti","total_bonus_tally"
"true","full_screen","d08012022hr1345","fullscreen","0","103443","0.0-0.0","0","0","99305","","","","","","","","","","","","","","","","","","","","","",""
"","instructions","","instructions","1","119572","0.0-1.0-0.0-0.0","0","0","99305","[{""page_index"":0,""viewing_time"":6881},{""page_index"":1,""viewing_time"":5238},{""page_index"":2,""viewing_time"":2495},{""page_index"":3,""viewing_time"":1505}]","16121","","","","","","","","","","","","","","","","","","","",""
"","comprehension_check","","survey-multi-choice","2","137496","0.0-1.0-0.0-1.0","0","0","99305","","17914","{""Q0"":""True"",""Q1"":""D"",""Q2"":""While the images are shown"",""Q3"":""Green mark"",""Q4"":""either D or K""}","1","","","","","","","","","","","","","","","","","",""
"","missed_instruction_checkup","","html-keyboard-response","3","138847","0.0-1.0-0.0-2.0-0.0","0","1","99305","","1337","","","32","","","","","","","","","","","","","","","","",""
"","instructions","","instructions","4","150441","0.0-1.0-0.1-0.1","0","0","99305","[{""page_index"":0,""viewing_time"":4015},{""page_index"":1,""viewing_time"":5237},{""page_index"":2,""viewing_time"":1223},{""page_index"":3,""viewing_time"":1115}]","11590","","","","","","","","","","","","","","","","","","","",""
"","comprehension_check","","survey-multi-choice","5","164302","0.0-1.0-0.1-1.1","0","0","99305","","13850","{""Q0"":""True"",""Q1"":""K"",""Q2"":""When you see the prompt 'MAKE A CHOICE' after the second image was presented"",""Q3"":""Green mark"",""Q4"":""either D or K""}","0","","","","","","","","","","","","","","","","","",""
"","start_exp","","html-keyboard-response","6","165498","0.0-1.0-1.0","0","0","99305","","1185","","","32","","","","","","","","","","","","","","","","",""
"","S1","","html-keyboard-response","7","165753","0.0-1.0-2.0","0","0","99305","","null","","","null","0","","","","","","","","","","","","","","","",""
"","ISI","","html-keyboard-response","8","167756","0.0-1.0-3.0","0","0","99305","","null","","","null","0","NaN","","","","","","","","","","","","","","",""
"","S2","","html-keyboard-response","9","168009","0.0-1.0-4.0","0","0","99305","","null","","","null","0","","NaN","","","","","","","","","","","","","",""
"","response","","html-keyboard-response","10","168749","0.0-1.0-5.0","0","0","99305","","737","","","75","0","","","1","0","training","adjacent","DC","4","3","M.jpg","L.jpg","1","0","0","",""
"","feedback","","html-keyboard-response","11","169754","0.0-1.0-6.0-0.0","0","0","99305","","null","","","null","0","","","","","","","","","","","","","","","",""
"","time_out","","html-keyboard-response","12","171757","0.0-1.0-8.0-0.0","0","0","99305","","null","","","null","0","","","","","","","","","","","","","","","",""
"","ITI","","html-keyboard-response","13","172761","0.0-1.0-9.0","0","0","99305","","null","","","null","0","","","","","","","","","","","","","","","NaN",""
"","S1","","html-keyboard-response","14","173016","0.0-1.0-11.0","0","0","99305","","null","","","null","1","","","","","","","","","","","","","","","",""
"","ISI","","html-keyboard-response","15","175020","0.0-1.0-12.0","0","0","99305","","null","","","null","1","NaN","","","","","","","","","","","","","","",""
"","S2","","html-keyboard-response","16","175274","0.0-1.0-13.0","0","0","99305","","null","","","null","1","","NaN","","","","","","","","","","","","","",""
"","response","","html-keyboard-response","17","175602","0.0-1.0-14.0","0","0","99305","","325","","","75","1","","","1","1","training","adjacent","BA","2","1","R.jpg","N.jpg","1","0","0","",""
"","feedback","","html-keyboard-response","18","176605","0.0-1.0-15.0-0.0","0","0","99305","","null","","","null","1","","","","","","","","","","","","","","","",""
"","time_out","","html-keyboard-response","19","178608","0.0-1.0-17.0-0.0","0","0","99305","","null","","","null","1","","","","","","","","","","","","","","","",""
"","ITI","","html-keyboard-response","20","179612","0.0-1.0-18.0","0","0","99305","","null","","","null","1","","","","","","","","","","","","","","","NaN",""
"","S1","","html-keyboard-response","21","179867","0.0-1.0-20.0","0","0","99305","","null","","","null","2","","","","","","","","","","","","","","","",""
"","ISI","","html-keyboard-response","22","181870","0.0-1.0-21.0","0","0","99305","","null","","","null","2","NaN","","","","","","","","","","","","","","",""
"","S2","","html-keyboard-response","23","182123","0.0-1.0-22.0","0","0","99305","","null","","","null","2","","NaN","","","","","","","","","","","","","",""
"","response","","html-keyboard-response","24","182410","0.0-1.0-23.0","0","0","99305","","285","","","68","2","","","1","2","training","adjacent","ED","5","4","P.jpg","M.jpg","0","0","1","",""
"","feedback","","html-keyboard-response","25","183414","0.0-1.0-24.0-0.0","0","0","99305","","null","","","null","2","","","","","","","","","","","","","","","",""
"","ITI","","html-keyboard-response","26","184418","0.0-1.0-27.0","0","0","99305","","null","","","null","2","","","","","","","","","","","","","","","NaN",""
"","S1","","html-keyboard-response","27","184673","0.0-1.0-29.0","0","0","99305","","null","","","null","3","","","","","","","","","","","","","","","",""
"","ISI","","html-keyboard-response","28","186676","0.0-1.0-30.0","0","0","99305","","163","","","68","3","d","","","","","","","","","","","","","","",""
"","S2","","html-keyboard-response","29","186930","0.0-1.0-31.0","0","0","99305","","null","","","null","3","","NaN","","","","","","","","","","","","","",""
"","response","","html-keyboard-response","30","187302","0.0-1.0-32.0","0","0","99305","","369","","","68","3","","","1","3","training","adjacent","EF","5","6","P.jpg","Q.jpg","0","1","0","",""
"","feedback","","html-keyboard-response","31","188306","0.0-1.0-33.0-0.0","0","0","99305","","null","","","null","3","","","","","","","","","","","","","","","",""
"","time_out","","html-keyboard-response","32","190311","0.0-1.0-35.0-0.0","0","0","99305","","null","","","null","3","","","","","","","","","","","","","","","",""
"","ITI","","html-keyboard-response","33","191313","0.0-1.0-36.0","0","0","99305","","null","","","null","3","","","","","","","","","","","","","","","NaN",""
"","S1","","html-keyboard-response","34","191568","0.0-1.0-38.0","0","0","99305","","null","","","null","4","","","","","","","","","","","","","","","",""
"","ISI","","html-keyboard-response","35","193575","0.0-1.0-39.0","0","0","99305","","null","","","null","4","NaN","","","","","","","","","","","","","","",""
"","S2","","html-keyboard-response","36","193829","0.0-1.0-40.0","0","0","99305","","null","","","null","4","","NaN","","","","","","","","","","","","","",""
"","response","","html-keyboard-response","37","193913","0.0-1.0-41.0","0","0","99305","","82","","","75","4","","","1","4","training","adjacent","CB","3","2","L.jpg","R.jpg","1","0","0","",""
"","feedback","","html-keyboard-response","38","194917","0.0-1.0-42.0-0.0","0","0","99305","","null","","","null","4","","","","","","","","","","","","","","","",""
"","time_out","","html-keyboard-response","39","196920","0.0-1.0-44.0-0.0","0","0","99305","","null","","","null","4","","","","","","","","","","","","","","","",""
"","ITI","","html-keyboard-response","40","197923","0.0-1.0-45.0","0","0","99305","","null","","","null","4","","","","","","","","","","","","","","","NaN",""
"","S1","","html-keyboard-response","41","198178","0.0-1.0-47.0","0","0","99305","","null","","","null","5","","","","","","","","","","","","","","","",""
"","ISI","","html-keyboard-response","42","200181","0.0-1.0-48.0","0","0","99305","","null","","","null","5","NaN","","","","","","","","","","","","","","",""
"","S2","","html-keyboard-response","43","200434","0.0-1.0-49.0","0","0","99305","","null","","","null","5","","NaN","","","","","","","","","","","","","",""
"","response","","html-keyboard-response","44","200604","0.0-1.0-50.0","0","0","99305","","167","","","68","5","","","1","5","training","adjacent","EF","5","6","P.jpg","Q.jpg","0","1","0","",""
"","feedback","","html-keyboard-response","45","201609","0.0-1.0-51.0-0.0","0","0","99305","","null","","","null","5","","","","","","","","","","","","","","","",""
"","time_out","","html-keyboard-response","46","203614","0.0-1.0-53.0-0.0","0","0","99305","","null","","","null","5","","","","","","","","","","","","","","","",""
"","ITI","","html-keyboard-response","47","204618","0.0-1.0-54.0","0","0","99305","","null","","","null","5","","","","","","","","","","","","","","","NaN",""
"","S1","","html-keyboard-response","48","204871","0.0-1.0-56.0","0","0","99305","","null","","","null","6","","","","","","","","","","","","","","","",""
"","ISI","","html-keyboard-response","49","206874","0.0-1.0-57.0","0","0","99305","","null","","","null","6","NaN","","","","","","","","","","","","","","",""
"","S2","","html-keyboard-response","50","207127","0.0-1.0-58.0","0","0","99305","","null","","","null","6","","NaN","","","","","","","","","","","","","",""
"","response","","html-keyboard-response","51","207695","0.0-1.0-59.0","0","0","99305","","565","","","75","6","","","1","6","training","adjacent","FG","6","7","Q.jpg","O.jpg","1","1","1","",""
"","feedback","","html-keyboard-response","52","208700","0.0-1.0-60.0-0.0","0","0","99305","","null","","","null","6","","","","","","","","","","","","","","","",""
"","ITI","","html-keyboard-response","53","209703","0.0-1.0-63.0","0","0","99305","","null","","","null","6","","","","","","","","","","","","","","","NaN",""
"","S1","","html-keyboard-response","54","209958","0.0-1.0-65.0","0","0","99305","","null","","","null","7","","","","","","","","","","","","","","","",""
"","ISI","","html-keyboard-response","55","211961","0.0-1.0-66.0","0","0","99305","","null","","","null","7","NaN","","","","","","","","","","","","","","",""
"","S2","","html-keyboard-response","56","212214","0.0-1.0-67.0","0","0","99305","","null","","","null","7","","NaN","","","","","","","","","","","","","",""
"","response","","html-keyboard-response","57","212721","0.0-1.0-68.0","0","0","99305","","504","","","68","7","","","1","7","training","adjacent","BC","2","3","R.jpg","L.jpg","0","1","0","",""
"","feedback","","html-keyboard-response","58","213725","0.0-1.0-69.0-0.0","0","0","99305","","null","","","null","7","","","","","","","","","","","","","","","",""
"","time_out","","html-keyboard-response","59","215728","0.0-1.0-71.0-0.0","0","0","99305","","null","","","null","7","","","","","","","","","","","","","","","",""
"","ITI","","html-keyboard-response","60","216731","0.0-1.0-72.0","0","0","99305","","null","","","null","7","","","","","","","","","","","","","","","NaN",""
"","S1","","html-keyboard-response","61","216984","0.0-1.0-74.0","0","0","99305","","null","","","null","8","","","","","","","","","","","","","","","",""
"","ISI","","html-keyboard-response","62","218987","0.0-1.0-75.0","0","0","99305","","null","","","null","8","NaN","","","","","","","","","","","","","","",""
"","S2","","html-keyboard-response","63","219241","0.0-1.0-76.0","0","0","99305","","null","","","null","8","","NaN","","","","","","","","","","","","","",""
"","response","","html-keyboard-response","64","219243","0.0-1.0-77.0","0","0","99305","","0","","","75","8","","","1","8","training","adjacent","EF","5","6","P.jpg","Q.jpg","1","1","1","",""
"","feedback","","html-keyboard-response","65","220246","0.0-1.0-78.0-0.0","0","0","99305","","null","","","null","8","","","","","","","","","","","","","","","",""
"","ITI","","html-keyboard-response","66","221249","0.0-1.0-81.0","0","0","99305","","null","","","null","8","","","","","","","","","","","","","","","NaN",""
"","S1","","html-keyboard-response","67","221503","0.0-1.0-83.0","0","0","99305","","null","","","null","9","","","","","","","","","","","","","","","",""
"","ISI","","html-keyboard-response","68","223508","0.0-1.0-84.0","0","0","99305","","null","","","null","9","NaN","","","","","","","","","","","","","","",""
"","S2","","html-keyboard-response","69","223763","0.0-1.0-85.0","0","0","99305","","null","","","null","9","","NaN","","","","","","","","","","","","","",""
"","response","","html-keyboard-response","70","223879","0.0-1.0-86.0","0","0","99305","","113","","","75","9","","","1","9","training","adjacent","GF","7","6","O.jpg","Q.jpg","1","0","0","",""
"","feedback","","html-keyboard-response","71","224881","0.0-1.0-87.0-0.0","0","0","99305","","null","","","null","9","","","","","","","","","","","","","","","",""
"","time_out","","html-keyboard-response","72","226884","0.0-1.0-89.0-0.0","0","0","99305","","null","","","null","9","","","","","","","","","","","","","","","",""
"","ITI","","html-keyboard-response","73","227887","0.0-1.0-90.0","0","0","99305","","null","","","null","9","","","","","","","","","","","","","","","NaN",""
"","S1","","html-keyboard-response","74","228142","0.0-1.0-92.0","0","0","99305","","null","","","null","10","","","","","","","","","","","","","","","",""
"","ISI","","html-keyboard-response","75","230144","0.0-1.0-93.0","0","0","99305","","null","","","null","10","NaN","","","","","","","","","","","","","","",""
"","S2","","html-keyboard-response","76","230398","0.0-1.0-94.0","0","0","99305","","null","","","null","10","","NaN","","","","","","","","","","","","","",""
"","response","","html-keyboard-response","77","230703","0.0-1.0-95.0","0","0","99305","","302","","","68","10","","","1","10","training","adjacent","BC","2","3","R.jpg","L.jpg","0","1","0","",""
"","feedback","","html-keyboard-response","78","231706","0.0-1.0-96.0-0.0","0","0","99305","","null","","","null","10","","","","","","","","","","","","","","","",""
"","time_out","","html-keyboard-response","79","233710","0.0-1.0-98.0-0.0","0","0","99305","","null","","","null","10","","","","","","","","","","","","","","","",""
"","ITI","","html-keyboard-response","80","234714","0.0-1.0-99.0","0","0","99305","","null","","","null","10","","","","","","","","","","","","","","","NaN",""
"","S1","","html-keyboard-response","81","234968","0.0-1.0-101.0","0","0","99305","","null","","","null","11","","","","","","","","","","","","","","","",""
"","ISI","","html-keyboard-response","82","236971","0.0-1.0-102.0","0","0","99305","","null","","","null","11","NaN","","","","","","","","","","","","","","",""
"","S2","","html-keyboard-response","83","237224","0.0-1.0-103.0","0","0","99305","","null","","","null","11","","NaN","","","","","","","","","","","","","",""
"","response","","html-keyboard-response","84","237779","0.0-1.0-104.0","0","0","99305","","552","","","75","11","","","1","11","training","adjacent","DC","4","3","M.jpg","L.jpg","1","0","0","",""
"","feedback","","html-keyboard-response","85","238783","0.0-1.0-105.0-0.0","0","0","99305","","null","","","null","11","","","","","","","","","","","","","","","",""
"","time_out","","html-keyboard-response","86","240787","0.0-1.0-107.0-0.0","0","0","99305","","null","","","null","11","","","","","","","","","","","","","","","",""
"","ITI","","html-keyboard-response","87","241791","0.0-1.0-108.0","0","0","99305","","null","","","null","11","","","","","","","","","","","","","","","NaN",""
"","S1","","html-keyboard-response","88","242044","0.0-1.0-110.0","0","0","99305","","null","","","null","12","","","","","","","","","","","","","","","",""
"","ISI","","html-keyboard-response","89","244048","0.0-1.0-111.0","0","0","99305","","null","","","null","12","NaN","","","","","","","","","","","","","","",""
"","S2","","html-keyboard-response","90","244302","0.0-1.0-112.0","0","0","99305","","null","","","null","12","","NaN","","","","","","","","","","","","","",""
"","response","","html-keyboard-response","91","245380","0.0-1.0-113.0","0","0","99305","","1076","","","68","12","","","1","12","training","adjacent","DE","4","5","M.jpg","P.jpg","0","1","0","",""
"","feedback","","html-keyboard-response","92","246383","0.0-1.0-114.0-0.0","0","0","99305","","null","","","null","12","","","","","","","","","","","","","","","",""
"","time_out","","html-keyboard-response","93","248387","0.0-1.0-116.0-0.0","0","0","99305","","null","","","null","12","","","","","","","","","","","","","","","",""
"","ITI","","html-keyboard-response","94","249392","0.0-1.0-117.0","0","0","99305","","null","","","null","12","","","","","","","","","","","","","","","NaN",""
"","S1","","html-keyboard-response","95","249645","0.0-1.0-119.0","0","0","99305","","null","","","null","13","","","","","","","","","","","","","","","",""
"","ISI","","html-keyboard-response","96","251649","0.0-1.0-120.0","0","0","99305","","null","","","null","13","NaN","","","","","","","","","","","","","","",""
"","S2","","html-keyboard-response","97","251903","0.0-1.0-121.0","0","0","99305","","null","","","null","13","","NaN","","","","","","","","","","","","","",""
"","response","","html-keyboard-response","98","252155","0.0-1.0-122.0","0","0","99305","","248","","","75","13","","","1","13","training","adjacent","BA","2","1","R.jpg","N.jpg","1","0","0","",""
"","feedback","","html-keyboard-response","99","253159","0.0-1.0-123.0-0.0","0","0","99305","","null","","","null","13","","","","","","","","","","","","","","","",""
"","time_out","","html-keyboard-response","100","255165","0.0-1.0-125.0-0.0","0","0","99305","","null","","","null","13","","","","","","","","","","","","","","","",""
"","ITI","","html-keyboard-response","101","256168","0.0-1.0-126.0","0","0","99305","","null","","","null","13","","","","","","","","","","","","","","","NaN",""
"","S1","","html-keyboard-response","102","256422","0.0-1.0-128.0","0","0","99305","","null","","","null","14","","","","","","","","","","","","","","","",""
"","ISI","","html-keyboard-response","103","258426","0.0-1.0-129.0","0","0","99305","","null","","","null","14","NaN","","","","","","","","","","","","","","",""
"","S2","","html-keyboard-response","104","258679","0.0-1.0-130.0","0","0","99305","","null","","","null","14","","NaN","","","","","","","","","","","","","",""
"","response","","html-keyboard-response","105","258947","0.0-1.0-131.0","0","0","99305","","265","","","68","14","","","1","14","training","adjacent","CB","3","2","L.jpg","R.jpg","0","0","1","",""
"","feedback","","html-keyboard-response","106","259951","0.0-1.0-132.0-0.0","0","0","99305","","null","","","null","14","","","","","","","","","","","","","","","",""
"","ITI","","html-keyboard-response","107","260953","0.0-1.0-135.0","0","0","99305","","null","","","null","14","","","","","","","","","","","","","","","NaN",""
"","S1","","html-keyboard-response","108","261208","0.0-1.0-137.0","0","0","99305","","null","","","null","15","","","","","","","","","","","","","","","",""
"","ISI","","html-keyboard-response","109","263213","0.0-1.0-138.0","0","0","99305","","null","","","null","15","NaN","","","","","","","","","","","","","","",""
"","S2","","html-keyboard-response","110","263466","0.0-1.0-139.0","0","0","99305","","null","","","null","15","","NaN","","","","","","","","","","","","","",""
"","response","","html-keyboard-response","111","263606","0.0-1.0-140.0","0","0","99305","","136","","","75","15","","","1","15","training","adjacent","GF","7","6","O.jpg","Q.jpg","1","0","0","",""
"","feedback","","html-keyboard-response","112","264609","0.0-1.0-141.0-0.0","0","0","99305","","null","","","null","15","","","","","","","","","","","","","","","",""
"","time_out","","html-keyboard-response","113","266613","0.0-1.0-143.0-0.0","0","0","99305","","null","","","null","15","","","","","","","","","","","","","","","",""
"","ITI","","html-keyboard-response","114","267615","0.0-1.0-144.0","0","0","99305","","387","","","75","15","","","","","","","","","","","","","","","k",""
"","S1","","html-keyboard-response","115","267869","0.0-1.0-146.0","0","0","99305","","null","","","null","16","","","","","","","","","","","","","","","",""
"","ISI","","html-keyboard-response","116","269871","0.0-1.0-147.0","0","0","99305","","null","","","null","16","NaN","","","","","","","","","","","","","","",""
"","S2","","html-keyboard-response","117","270125","0.0-1.0-148.0","0","0","99305","","null","","","null","16","","NaN","","","","","","","","","","","","","",""
"","response","","html-keyboard-response","118","270899","0.0-1.0-149.0","0","0","99305","","771","","","75","16","","","1","16","training","adjacent","AB","1","2","N.jpg","R.jpg","1","1","1","",""
"","feedback","","html-keyboard-response","119","271902","0.0-1.0-150.0-0.0","0","0","99305","","null","","","null","16","","","","","","","","","","","","","","","",""
"","ITI","","html-keyboard-response","120","272905","0.0-1.0-153.0","0","0","99305","","null","","","null","16","","","","","","","","","","","","","","","NaN",""
"","S1","","html-keyboard-response","121","273159","0.0-1.0-155.0","0","0","99305","","null","","","null","17","","","","","","","","","","","","","","","",""
"","ISI","","html-keyboard-response","122","275164","0.0-1.0-156.0","0","0","99305","","null","","","null","17","NaN","","","","","","","","","","","","","","",""
"","S2","","html-keyboard-response","123","275418","0.0-1.0-157.0","0","0","99305","","null","","","null","17","","NaN","","","","","","","","","","","","","",""
"","response","","html-keyboard-response","124","276455","0.0-1.0-158.0","0","0","99305","","1036","","","68","17","","","1","17","training","adjacent","BA","2","1","R.jpg","N.jpg","0","0","1","",""
"","feedback","","html-keyboard-response","125","277460","0.0-1.0-159.0-0.0","0","0","99305","","null","","","null","17","","","","","","","","","","","","","","","",""
"","ITI","","html-keyboard-response","126","278464","0.0-1.0-162.0","0","0","99305","","null","","","null","17","","","","","","","","","","","","","","","NaN",""
"","S1","","html-keyboard-response","127","278717","0.0-1.0-164.0","0","0","99305","","null","","","null","18","","","","","","","","","","","","","","","",""
"","ISI","","html-keyboard-response","128","280721","0.0-1.0-165.0","0","0","99305","","null","","","null","18","NaN","","","","","","","","","","","","","","",""
"","S2","","html-keyboard-response","129","280975","0.0-1.0-166.0","0","0","99305","","null","","","null","18","","NaN","","","","","","","","","","","","","",""
"","response","","html-keyboard-response","130","281540","0.0-1.0-167.0","0","0","99305","","561","","","75","18","","","1","18","training","adjacent","BA","2","1","R.jpg","N.jpg","1","0","0","",""
"","feedback","","html-keyboard-response","131","282545","0.0-1.0-168.0-0.0","0","0","99305","","null","","","null","18","","","","","","","","","","","","","","","",""
"","time_out","","html-keyboard-response","132","284548","0.0-1.0-170.0-0.0","0","0","99305","","null","","","null","18","","","","","","","","","","","","","","","",""
"","ITI","","html-keyboard-response","133","285552","0.0-1.0-171.0","0","0","99305","","null","","","null","18","","","","","","","","","","","","","","","NaN",""
"","S1","","html-keyboard-response","134","285806","0.0-1.0-173.0","0","0","99305","","null","","","null","19","","","","","","","","","","","","","","","",""
"","ISI","","html-keyboard-response","135","287810","0.0-1.0-174.0","0","0","99305","","null","","","null","19","NaN","","","","","","","","","","","","","","",""
"","S2","","html-keyboard-response","136","288063","0.0-1.0-175.0","0","0","99305","","null","","","null","19","","NaN","","","","","","","","","","","","","",""
"","response","","html-keyboard-response","137","288683","0.0-1.0-176.0","0","0","99305","","617","","","68","19","","","1","19","training","adjacent","CB","3","2","L.jpg","R.jpg","0","0","1","",""
"","feedback","","html-keyboard-response","138","289687","0.0-1.0-177.0-0.0","0","0","99305","","null","","","null","19","","","","","","","","","","","","","","","",""
"","ITI","","html-keyboard-response","139","290691","0.0-1.0-180.0","0","0","99305","","null","","","null","19","","","","","","","","","","","","","","","NaN",""
"","S1","","html-keyboard-response","140","290946","0.0-1.0-182.0","0","0","99305","","null","","","null","20","","","","","","","","","","","","","","","",""
"","ISI","","html-keyboard-response","141","292948","0.0-1.0-183.0","0","0","99305","","null","","","null","20","NaN","","","","","","","","","","","","","","",""
"","S2","","html-keyboard-response","142","293202","0.0-1.0-184.0","0","0","99305","","null","","","null","20","","NaN","","","","","","","","","","","","","",""
"","response","","html-keyboard-response","143","293761","0.0-1.0-185.0","0","0","99305","","556","","","75","20","","","1","20","training","adjacent","DE","4","5","M.jpg","P.jpg","1","1","1","",""
"","feedback","","html-keyboard-response","144","294765","0.0-1.0-186.0-0.0","0","0","99305","","null","","","null","20","","","","","","","","","","","","","","","",""
"","ITI","","html-keyboard-response","145","295770","0.0-1.0-189.0","0","0","99305","","null","","","null","20","","","","","","","","","","","","","","","NaN",""
"","S1","","html-keyboard-response","146","296023","0.0-1.0-191.0","0","0","99305","","null","","","null","21","","","","","","","","","","","","","","","",""
"","ISI","","html-keyboard-response","147","298026","0.0-1.0-192.0","0","0","99305","","null","","","null","21","NaN","","","","","","","","","","","","","","",""
"","S2","","html-keyboard-response","148","298279","0.0-1.0-193.0","0","0","99305","","null","","","null","21","","NaN","","","","","","","","","","","","","",""
"","response","","html-keyboard-response","149","298703","0.0-1.0-194.0","0","0","99305","","420","","","68","21","","","1","21","training","adjacent","BC","2","3","R.jpg","L.jpg","0","1","0","",""
"","feedback","","html-keyboard-response","150","299709","0.0-1.0-195.0-0.0","0","0","99305","","null","","","null","21","","","","","","","","","","","","","","","",""
"","time_out","","html-keyboard-response","151","301714","0.0-1.0-197.0-0.0","0","0","99305","","null","","","null","21","","","","","","","","","","","","","","","",""
"","ITI","","html-keyboard-response","152","302717","0.0-1.0-198.0","0","0","99305","","null","","","null","21","","","","","","","","","","","","","","","NaN",""
"","S1","","html-keyboard-response","153","302970","0.0-1.0-200.0","0","0","99305","","null","","","null","22","","","","","","","","","","","","","","","",""
"","ISI","","html-keyboard-response","154","304974","0.0-1.0-201.0","0","0","99305","","null","","","null","22","NaN","","","","","","","","","","","","","","",""
"","S2","","html-keyboard-response","155","305227","0.0-1.0-202.0","0","0","99305","","null","","","null","22","","NaN","","","","","","","","","","","","","",""
"","response","","html-keyboard-response","156","305675","0.0-1.0-203.0","0","0","99305","","444","","","75","22","","","1","22","training","adjacent","FG","6","7","Q.jpg","O.jpg","1","1","1","",""
"","feedback","","html-keyboard-response","157","306680","0.0-1.0-204.0-0.0","0","0","99305","","null","","","null","22","","","","","","","","","","","","","","","",""
"","ITI","","html-keyboard-response","158","307684","0.0-1.0-207.0","0","0","99305","","null","","","null","22","","","","","","","","","","","","","","","NaN",""
"","S1","","html-keyboard-response","159","307938","0.0-1.0-209.0","0","0","99305","","null","","","null","23","","","","","","","","","","","","","","","",""
"","ISI","","html-keyboard-response","160","309941","0.0-1.0-210.0","0","0","99305","","null","","","null","23","NaN","","","","","","","","","","","","","","",""
"","S2","","html-keyboard-response","161","310195","0.0-1.0-211.0","0","0","99305","","null","","","null","23","","NaN","","","","","","","","","","","","","",""
"","response","","html-keyboard-response","162","310663","0.0-1.0-212.0","0","0","99305","","463","","","68","23","","","1","23","training","adjacent","DC","4","3","M.jpg","L.jpg","0","0","1","",""
"","feedback","","html-keyboard-response","163","311667","0.0-1.0-213.0-0.0","0","0","99305","","null","","","null","23","","","","","","","","","","","","","","","",""
"","ITI","","html-keyboard-response","164","312671","0.0-1.0-216.0","0","0","99305","","null","","","null","23","","","","","","","","","","","","","","","NaN",""
"","S1","","html-keyboard-response","165","312926","0.0-1.0-218.0","0","0","99305","","null","","","null","24","","","","","","","","","","","","","","","",""
"","ISI","","html-keyboard-response","166","314929","0.0-1.0-219.0","0","0","99305","","null","","","null","24","NaN","","","","","","","","","","","","","","",""
"","S2","","html-keyboard-response","167","315183","0.0-1.0-220.0","0","0","99305","","null","","","null","24","","NaN","","","","","","","","","","","","","",""
"","response","","html-keyboard-response","168","315246","0.0-1.0-221.0","0","0","99305","","61","","","68","24","","","1","24","training","adjacent","FG","6","7","Q.jpg","O.jpg","0","1","0","",""
"","feedback","","html-keyboard-response","169","316249","0.0-1.0-222.0-0.0","0","0","99305","","null","","","null","24","","","","","","","","","","","","","","","",""
"","time_out","","html-keyboard-response","170","318253","0.0-1.0-224.0-0.0","0","0","99305","","null","","","null","24","","","","","","","","","","","","","","","",""
"","ITI","","html-keyboard-response","171","319257","0.0-1.0-225.0","0","0","99305","","null","","","null","24","","","","","","","","","","","","","","","NaN",""
"","S1","","html-keyboard-response","172","319511","0.0-1.0-227.0","0","0","99305","","null","","","null","25","","","","","","","","","","","","","","","",""
"","ISI","","html-keyboard-response","173","321516","0.0-1.0-228.0","0","0","99305","","457","","","75","25","k","","","","","","","","","","","","","","",""
"","S2","","html-keyboard-response","174","321770","0.0-1.0-229.0","0","0","99305","","null","","","null","25","","NaN","","","","","","","","","","","","","",""
"","response","","html-keyboard-response","175","321825","0.0-1.0-230.0","0","0","99305","","52","","","75","25","","","1","25","training","adjacent","FE","6","5","Q.jpg","P.jpg","1","0","0","",""
"","feedback","","html-keyboard-response","176","322828","0.0-1.0-231.0-0.0","0","0","99305","","null","","","null","25","","","","","","","","","","","","","","","",""
"","time_out","","html-keyboard-response","177","324832","0.0-1.0-233.0-0.0","0","0","99305","","null","","","null","25","","","","","","","","","","","","","","","",""
"","ITI","","html-keyboard-response","178","325836","0.0-1.0-234.0","0","0","99305","","null","","","null","25","","","","","","","","","","","","","","","NaN",""
"","S1","","html-keyboard-response","179","326089","0.0-1.0-236.0","0","0","99305","","null","","","null","26","","","","","","","","","","","","","","","",""
"","ISI","","html-keyboard-response","180","328093","0.0-1.0-237.0","0","0","99305","","77","","","68","26","d","","","","","","","","","","","","","","",""
"","S2","","html-keyboard-response","181","328347","0.0-1.0-238.0","0","0","99305","","null","","","null","26","","NaN","","","","","","","","","","","","","",""
"","response","","html-keyboard-response","182","328401","0.0-1.0-239.0","0","0","99305","","51","","","68","26","","","1","26","training","adjacent","CD","3","4","L.jpg","M.jpg","0","1","0","",""
"","feedback","","html-keyboard-response","183","329405","0.0-1.0-240.0-0.0","0","0","99305","","null","","","null","26","","","","","","","","","","","","","","","",""
"","time_out","","html-keyboard-response","184","331409","0.0-1.0-242.0-0.0","0","0","99305","","null","","","null","26","","","","","","","","","","","","","","","",""
"","ITI","","html-keyboard-response","185","332412","0.0-1.0-243.0","0","0","99305","","null","","","null","26","","","","","","","","","","","","","","","NaN",""
"","S1","","html-keyboard-response","186","332666","0.0-1.0-245.0","0","0","99305","","null","","","null","27","","","","","","","","","","","","","","","",""
"","ISI","","html-keyboard-response","187","334669","0.0-1.0-246.0","0","0","99305","","91","","","75","27","k","","","","","","","","","","","","","","",""
"","S2","","html-keyboard-response","188","334922","0.0-1.0-247.0","0","0","99305","","null","","","null","27","","NaN","","","","","","","","","","","","","",""
"","response","","html-keyboard-response","189","335019","0.0-1.0-248.0","0","0","99305","","94","","","75","27","","","1","27","training","adjacent","AB","1","2","N.jpg","R.jpg","1","1","1","",""
"","feedback","","html-keyboard-response","190","336021","0.0-1.0-249.0-0.0","0","0","99305","","null","","","null","27","","","","","","","","","","","","","","","",""
"","ITI","","html-keyboard-response","191","337024","0.0-1.0-252.0","0","0","99305","","null","","","null","27","","","","","","","","","","","","","","","NaN",""
"","S1","","html-keyboard-response","192","337277","0.0-1.0-254.0","0","0","99305","","null","","","null","28","","","","","","","","","","","","","","","",""
"","ISI","","html-keyboard-response","193","339280","0.0-1.0-255.0","0","0","99305","","null","","","null","28","NaN","","","","","","","","","","","","","","",""
"","S2","","html-keyboard-response","194","339534","0.0-1.0-256.0","0","0","99305","","null","","","null","28","","NaN","","","","","","","","","","","","","",""
"","response","","html-keyboard-response","195","339965","0.0-1.0-257.0","0","0","99305","","427","","","68","28","","","1","28","training","adjacent","ED","5","4","P.jpg","M.jpg","0","0","1","",""
"","feedback","","html-keyboard-response","196","340969","0.0-1.0-258.0-0.0","0","0","99305","","null","","","null","28","","","","","","","","","","","","","","","",""
"","ITI","","html-keyboard-response","197","341971","0.0-1.0-261.0","0","0","99305","","null","","","null","28","","","","","","","","","","","","","","","NaN",""
"","S1","","html-keyboard-response","198","342223","0.0-1.0-263.0","0","0","99305","","null","","","null","29","","","","","","","","","","","","","","","",""
"","ISI","","html-keyboard-response","199","344227","0.0-1.0-264.0","0","0","99305","","null","","","null","29","NaN","","","","","","","","","","","","","","",""
"","S2","","html-keyboard-response","200","344480","0.0-1.0-265.0","0","0","99305","","null","","","null","29","","NaN","","","","","","","","","","","","","",""
"","response","","html-keyboard-response","201","344933","0.0-1.0-266.0","0","0","99305","","452","","","75","29","","","1","29","training","adjacent","CD","3","4","L.jpg","M.jpg","1","1","1","",""
"","feedback","","html-keyboard-response","202","345936","0.0-1.0-267.0-0.0","0","0","99305","","null","","","null","29","","","","","","","","","","","","","","","",""
"","ITI","","html-keyboard-response","203","346940","0.0-1.0-270.0","0","0","99305","","null","","","null","29","","","","","","","","","","","","","","","NaN",""
"","S1","","html-keyboard-response","204","347193","0.0-1.0-272.0","0","0","99305","","null","","","null","30","","","","","","","","","","","","","","","",""
"","ISI","","html-keyboard-response","205","349196","0.0-1.0-273.0","0","0","99305","","null","","","null","30","NaN","","","","","","","","","","","","","","",""
"","S2","","html-keyboard-response","206","349450","0.0-1.0-274.0","0","0","99305","","null","","","null","30","","NaN","","","","","","","","","","","","","",""
"","response","","html-keyboard-response","207","349947","0.0-1.0-275.0","0","0","99305","","494","","","75","30","","","1","30","training","adjacent","CD","3","4","L.jpg","M.jpg","1","1","1","",""
"","feedback","","html-keyboard-response","208","350950","0.0-1.0-276.0-0.0","0","0","99305","","null","","","null","30","","","","","","","","","","","","","","","",""
"","ITI","","html-keyboard-response","209","351954","0.0-1.0-279.0","0","0","99305","","null","","","null","30","","","","","","","","","","","","","","","NaN",""
"","S1","","html-keyboard-response","210","352207","0.0-1.0-281.0","0","0","99305","","null","","","null","31","","","","","","","","","","","","","","","",""
"","ISI","","html-keyboard-response","211","354210","0.0-1.0-282.0","0","0","99305","","null","","","null","31","NaN","","","","","","","","","","","","","","",""
"","S2","","html-keyboard-response","212","354464","0.0-1.0-283.0","0","0","99305","","null","","","null","31","","NaN","","","","","","","","","","","","","",""
"","response","","html-keyboard-response","213","354799","0.0-1.0-284.0","0","0","99305","","331","","","68","31","","","1","31","training","adjacent","FG","6","7","Q.jpg","O.jpg","0","1","0","",""
"","feedback","","html-keyboard-response","214","355804","0.0-1.0-285.0-0.0","0","0","99305","","null","","","null","31","","","","","","","","","","","","","","","",""
"","time_out","","html-keyboard-response","215","357809","0.0-1.0-287.0-0.0","0","0","99305","","null","","","null","31","","","","","","","","","","","","","","","",""
"","ITI","","html-keyboard-response","216","358813","0.0-1.0-288.0","0","0","99305","","null","","","null","31","","","","","","","","","","","","","","","NaN",""
"","S1","","html-keyboard-response","217","359066","0.0-1.0-290.0","0","0","99305","","null","","","null","32","","","","","","","","","","","","","","","",""
"","ISI","","html-keyboard-response","218","361069","0.0-1.0-291.0","0","0","99305","","108","","","75","32","k","","","","","","","","","","","","","","",""
"","S2","","html-keyboard-response","219","361322","0.0-1.0-292.0","0","0","99305","","null","","","null","32","","NaN","","","","","","","","","","","","","",""
"","response","","html-keyboard-response","220","361449","0.0-1.0-293.0","0","0","99305","","125","","","75","32","","","1","32","training","adjacent","ED","5","4","P.jpg","M.jpg","1","0","0","",""
"","feedback","","html-keyboard-response","221","362453","0.0-1.0-294.0-0.0","0","0","99305","","null","","","null","32","","","","","","","","","","","","","","","",""
"","time_out","","html-keyboard-response","222","364456","0.0-1.0-296.0-0.0","0","0","99305","","null","","","null","32","","","","","","","","","","","","","","","",""
"","ITI","","html-keyboard-response","223","365459","0.0-1.0-297.0","0","0","99305","","323","","","68","32","","","","","","","","","","","","","","","d",""
"","S1","","html-keyboard-response","224","365713","0.0-1.0-299.0","0","0","99305","","null","","","null","33","","","","","","","","","","","","","","","",""
"","ISI","","html-keyboard-response","225","367716","0.0-1.0-300.0","0","0","99305","","null","","","null","33","NaN","","","","","","","","","","","","","","",""
"","S2","","html-keyboard-response","226","367970","0.0-1.0-301.0","0","0","99305","","null","","","null","33","","NaN","","","","","","","","","","","","","",""
"","response","","html-keyboard-response","227","368236","0.0-1.0-302.0","0","0","99305","","262","","","68","33","","","1","33","training","adjacent","ED","5","4","P.jpg","M.jpg","0","0","1","",""
"","feedback","","html-keyboard-response","228","369240","0.0-1.0-303.0-0.0","0","0","99305","","null","","","null","33","","","","","","","","","","","","","","","",""
"","ITI","","html-keyboard-response","229","370242","0.0-1.0-306.0","0","0","99305","","null","","","null","33","","","","","","","","","","","","","","","NaN",""
"","S1","","html-keyboard-response","230","370496","0.0-1.0-308.0","0","0","99305","","null","","","null","34","","","","","","","","","","","","","","","",""
"","ISI","","html-keyboard-response","231","372499","0.0-1.0-309.0","0","0","99305","","null","","","null","34","NaN","","","","","","","","","","","","","","",""
"","S2","","html-keyboard-response","232","372753","0.0-1.0-310.0","0","0","99305","","null","","","null","34","","NaN","","","","","","","","","","","","","",""
"","response","","html-keyboard-response","233","372893","0.0-1.0-311.0","0","0","99305","","137","","","75","34","","","1","34","training","adjacent","GF","7","6","O.jpg","Q.jpg","1","0","0","",""
"","feedback","","html-keyboard-response","234","373896","0.0-1.0-312.0-0.0","0","0","99305","","null","","","null","34","","","","","","","","","","","","","","","",""
"","time_out","","html-keyboard-response","235","375901","0.0-1.0-314.0-0.0","0","0","99305","","null","","","null","34","","","","","","","","","","","","","","","",""
"","ITI","","html-keyboard-response","236","376905","0.0-1.0-315.0","0","0","99305","","null","","","null","34","","","","","","","","","","","","","","","NaN",""
"","S1","","html-keyboard-response","237","377157","0.0-1.0-317.0","0","0","99305","","null","","","null","35","","","","","","","","","","","","","","","",""
"","ISI","","html-keyboard-response","238","379160","0.0-1.0-318.0","0","0","99305","","189","","","68","35","d","","","","","","","","","","","","","","",""
"","S2","","html-keyboard-response","239","379415","0.0-1.0-319.0","0","0","99305","","246","","","68","35","","d","","","","","","","","","","","","","",""
"","response","","html-keyboard-response","240","379939","0.0-1.0-320.0","0","0","99305","","521","","","68","35","","","1","35","training","adjacent","DC","4","3","M.jpg","L.jpg","0","0","1","",""
"","feedback","","html-keyboard-response","241","380942","0.0-1.0-321.0-0.0","0","0","99305","","null","","","null","35","","","","","","","","","","","","","","","",""
"","ITI","","html-keyboard-response","242","381945","0.0-1.0-324.0","0","0","99305","","null","","","null","35","","","","","","","","","","","","","","","NaN",""
"","S1","","html-keyboard-response","243","382198","0.0-1.0-326.0","0","0","99305","","null","","","null","36","","","","","","","","","","","","","","","",""
"","ISI","","html-keyboard-response","244","384201","0.0-1.0-327.0","0","0","99305","","null","","","null","36","NaN","","","","","","","","","","","","","","",""
"","S2","","html-keyboard-response","245","384454","0.0-1.0-328.0","0","0","99305","","null","","","null","36","","NaN","","","","","","","","","","","","","",""
"","response","","html-keyboard-response","246","384950","0.0-1.0-329.0","0","0","99305","","494","","","75","36","","","1","36","training","adjacent","FE","6","5","Q.jpg","P.jpg","1","0","0","",""
"","feedback","","html-keyboard-response","247","385954","0.0-1.0-330.0-0.0","0","0","99305","","null","","","null","36","","","","","","","","","","","","","","","",""
"","time_out","","html-keyboard-response","248","387957","0.0-1.0-332.0-0.0","0","0","99305","","null","","","null","36","","","","","","","","","","","","","","","",""
"","ITI","","html-keyboard-response","249","388960","0.0-1.0-333.0","0","0","99305","","null","","","null","36","","","","","","","","","","","","","","","NaN",""
"","S1","","html-keyboard-response","250","389213","0.0-1.0-335.0","0","0","99305","","null","","","null","37","","","","","","","","","","","","","","","",""
"","ISI","","html-keyboard-response","251","391217","0.0-1.0-336.0","0","0","99305","","null","","","null","37","NaN","","","","","","","","","","","","","","",""
"","S2","","html-keyboard-response","252","391471","0.0-1.0-337.0","0","0","99305","","null","","","null","37","","NaN","","","","","","","","","","","","","",""
"","response","","html-keyboard-response","253","392202","0.0-1.0-338.0","0","0","99305","","727","","","68","37","","","1","37","training","adjacent","BC","2","3","R.jpg","L.jpg","0","1","0","",""
"","feedback","","html-keyboard-response","254","393206","0.0-1.0-339.0-0.0","0","0","99305","","null","","","null","37","","","","","","","","","","","","","","","",""
"","time_out","","html-keyboard-response","255","395209","0.0-1.0-341.0-0.0","0","0","99305","","null","","","null","37","","","","","","","","","","","","","","","",""
"","ITI","","html-keyboard-response","256","396211","0.0-1.0-342.0","0","0","99305","","null","","","null","37","","","","","","","","","","","","","","","NaN",""
"","S1","","html-keyboard-response","257","396464","0.0-1.0-344.0","0","0","99305","","null","","","null","38","","","","","","","","","","","","","","","",""
"","ISI","","html-keyboard-response","258","398467","0.0-1.0-345.0","0","0","99305","","null","","","null","38","NaN","","","","","","","","","","","","","","",""
"","S2","","html-keyboard-response","259","398720","0.0-1.0-346.0","0","0","99305","","null","","","null","38","","NaN","","","","","","","","","","","","","",""
"","response","","html-keyboard-response","260","399220","0.0-1.0-347.0","0","0","99305","","493","","","75","38","","","1","38","training","adjacent","AB","1","2","N.jpg","R.jpg","1","1","1","",""
"","feedback","","html-keyboard-response","261","400223","0.0-1.0-348.0-0.0","0","0","99305","","null","","","null","38","","","","","","","","","","","","","","","",""
"","ITI","","html-keyboard-response","262","401226","0.0-1.0-351.0","0","0","99305","","null","","","null","38","","","","","","","","","","","","","","","NaN",""
"","S1","","html-keyboard-response","263","401479","0.0-1.0-353.0","0","0","99305","","null","","","null","39","","","","","","","","","","","","","","","",""
"","ISI","","html-keyboard-response","264","403483","0.0-1.0-354.0","0","0","99305","","null","","","null","39","NaN","","","","","","","","","","","","","","",""
"","S2","","html-keyboard-response","265","403738","0.0-1.0-355.0","0","0","99305","","null","","","null","39","","NaN","","","","","","","","","","","","","",""
"","response","","html-keyboard-response","266","403822","0.0-1.0-356.0","0","0","99305","","82","","","75","39","","","1","39","training","adjacent","FE","6","5","Q.jpg","P.jpg","1","0","0","",""
"","feedback","","html-keyboard-response","267","404825","0.0-1.0-357.0-0.0","0","0","99305","","null","","","null","39","","","","","","","","","","","","","","","",""
"","time_out","","html-keyboard-response","268","406828","0.0-1.0-359.0-0.0","0","0","99305","","null","","","null","39","","","","","","","","","","","","","","","",""
"","ITI","","html-keyboard-response","269","407832","0.0-1.0-360.0","0","0","99305","","null","","","null","39","","","","","","","","","","","","","","","NaN",""
"","S1","","html-keyboard-response","270","408085","0.0-1.0-362.0","0","0","99305","","null","","","null","40","","","","","","","","","","","","","","","",""
"","ISI","","html-keyboard-response","271","410089","0.0-1.0-363.0","0","0","99305","","null","","","null","40","NaN","","","","","","","","","","","","","","",""
"","S2","","html-keyboard-response","272","410345","0.0-1.0-364.0","0","0","99305","","null","","","null","40","","NaN","","","","","","","","","","","","","",""
"","response","","html-keyboard-response","273","410685","0.0-1.0-365.0","0","0","99305","","337","","","68","40","","","1","40","training","adjacent","DE","4","5","M.jpg","P.jpg","0","1","0","",""
"","feedback","","html-keyboard-response","274","411688","0.0-1.0-366.0-0.0","0","0","99305","","null","","","null","40","","","","","","","","","","","","","","","",""
"","time_out","","html-keyboard-response","275","413693","0.0-1.0-368.0-0.0","0","0","99305","","null","","","null","40","","","","","","","","","","","","","","","",""
"","ITI","","html-keyboard-response","276","414699","0.0-1.0-369.0","0","0","99305","","null","","","null","40","","","","","","","","","","","","","","","NaN",""
"","S1","","html-keyboard-response","277","414952","0.0-1.0-371.0","0","0","99305","","null","","","null","41","","","","","","","","","","","","","","","",""
"","ISI","","html-keyboard-response","278","416955","0.0-1.0-372.0","0","0","99305","","null","","","null","41","NaN","","","","","","","","","","","","","","",""
"","S2","","html-keyboard-response","279","417209","0.0-1.0-373.0","0","0","99305","","null","","","null","41","","NaN","","","","","","","","","","","","","",""
"","response","","html-keyboard-response","280","417805","0.0-1.0-374.0","0","0","99305","","593","","","75","41","","","1","41","training","adjacent","DE","4","5","M.jpg","P.jpg","1","1","1","",""
"","feedback","","html-keyboard-response","281","418808","0.0-1.0-375.0-0.0","0","0","99305","","null","","","null","41","","","","","","","","","","","","","","","",""
"","ITI","","html-keyboard-response","282","419813","0.0-1.0-378.0","0","0","99305","","null","","","null","41","","","","","","","","","","","","","","","NaN",""
"","S1","","html-keyboard-response","283","420067","0.0-1.0-380.0","0","0","99305","","null","","","null","42","","","","","","","","","","","","","","","",""
"","ISI","","html-keyboard-response","284","422071","0.0-1.0-381.0","0","0","99305","","null","","","null","42","NaN","","","","","","","","","","","","","","",""
"","S2","","html-keyboard-response","285","422326","0.0-1.0-382.0","0","0","99305","","null","","","null","42","","NaN","","","","","","","","","","","","","",""
"","response","","html-keyboard-response","286","422452","0.0-1.0-383.0","0","0","99305","","123","","","75","42","","","1","42","training","adjacent","CD","3","4","L.jpg","M.jpg","1","1","1","",""
"","feedback","","html-keyboard-response","287","423456","0.0-1.0-384.0-0.0","0","0","99305","","null","","","null","42","","","","","","","","","","","","","","","",""
"","ITI","","html-keyboard-response","288","424460","0.0-1.0-387.0","0","0","99305","","null","","","null","42","","","","","","","","","","","","","","","NaN",""
"","S1","","html-keyboard-response","289","424717","0.0-1.0-389.0","0","0","99305","","null","","","null","43","","","","","","","","","","","","","","","",""
"","ISI","","html-keyboard-response","290","426720","0.0-1.0-390.0","0","0","99305","","null","","","null","43","NaN","","","","","","","","","","","","","","",""
"","S2","","html-keyboard-response","291","426973","0.0-1.0-391.0","0","0","99305","","null","","","null","43","","NaN","","","","","","","","","","","","","",""
"","response","","html-keyboard-response","292","427116","0.0-1.0-392.0","0","0","99305","","139","","","68","43","","","1","43","training","adjacent","EF","5","6","P.jpg","Q.jpg","0","1","0","",""
"","feedback","","html-keyboard-response","293","428120","0.0-1.0-393.0-0.0","0","0","99305","","null","","","null","43","","","","","","","","","","","","","","","",""
"","time_out","","html-keyboard-response","294","430123","0.0-1.0-395.0-0.0","0","0","99305","","null","","","null","43","","","","","","","","","","","","","","","",""
"","ITI","","html-keyboard-response","295","431126","0.0-1.0-396.0","0","0","99305","","null","","","null","43","","","","","","","","","","","","","","","NaN",""
"","S1","","html-keyboard-response","296","431379","0.0-1.0-398.0","0","0","99305","","null","","","null","44","","","","","","","","","","","","","","","",""
"","ISI","","html-keyboard-response","297","433383","0.0-1.0-399.0","0","0","99305","","85","","","75","44","k","","","","","","","","","","","","","","",""
"","S2","","html-keyboard-response","298","433637","0.0-1.0-400.0","0","0","99305","","null","","","null","44","","NaN","","","","","","","","","","","","","",""
"","response","","html-keyboard-response","299","434606","0.0-1.0-401.0","0","0","99305","","966","","","75","44","","","1","44","training","adjacent","AB","1","2","N.jpg","R.jpg","1","1","1","",""
"","feedback","","html-keyboard-response","300","435609","0.0-1.0-402.0-0.0","0","0","99305","","null","","","null","44","","","","","","","","","","","","","","","",""
"","ITI","","html-keyboard-response","301","436614","0.0-1.0-405.0","0","0","99305","","null","","","null","44","","","","","","","","","","","","","","","NaN",""
"","S1","","html-keyboard-response","302","436867","0.0-1.0-407.0","0","0","99305","","null","","","null","45","","","","","","","","","","","","","","","",""
"","ISI","","html-keyboard-response","303","438870","0.0-1.0-408.0","0","0","99305","","null","","","null","45","NaN","","","","","","","","","","","","","","",""
"","S2","","html-keyboard-response","304","439125","0.0-1.0-409.0","0","0","99305","","null","","","null","45","","NaN","","","","","","","","","","","","","",""
"","response","","html-keyboard-response","305","441127","0.0-1.0-410.0","0","0","99305","","null","","","null","45","","","1","45","training","adjacent","FE","6","5","Q.jpg","P.jpg","NaN","0","0","",""
"","too_slow_prompt","","html-keyboard-response","306","442131","0.0-1.0-412.0-0.0","1","0","99305","","null","","","null","","","","","","","","","","","","","","","","",""
"","time_out","","html-keyboard-response","307","444134","0.0-1.0-413.0-0.0","0","0","99305","","null","","","null","45","","","","","","","","","","","","","","","",""
"","ITI","","html-keyboard-response","308","445138","0.0-1.0-414.0","0","0","99305","","null","","","null","45","","","","","","","","","","","","","","","NaN",""
"","S1","","html-keyboard-response","309","445393","0.0-1.0-416.0","0","0","99305","","null","","","null","46","","","","","","","","","","","","","","","",""
"","ISI","","html-keyboard-response","310","447395","0.0-1.0-417.0","0","0","99305","","null","","","null","46","NaN","","","","","","","","","","","","","","",""
"","S2","","html-keyboard-response","311","447648","0.0-1.0-418.0","0","0","99305","","null","","","null","46","","NaN","","","","","","","","","","","","","",""
"","response","","html-keyboard-response","312","447726","0.0-1.0-419.0","0","0","99305","","75","","","68","46","","","1","46","training","adjacent","GF","7","6","O.jpg","Q.jpg","0","0","1","",""
"","feedback","","html-keyboard-response","313","448731","0.0-1.0-420.0-0.0","0","0","99305","","null","","","null","46","","","","","","","","","","","","","","","",""
"","ITI","","html-keyboard-response","314","449735","0.0-1.0-423.0","0","0","99305","","null","","","null","46","","","","","","","","","","","","","","","NaN",""
"","S1","","html-keyboard-response","315","449989","0.0-1.0-425.0","0","0","99305","","null","","","null","47","","","","","","","","","","","","","","","",""
"","ISI","","html-keyboard-response","316","451992","0.0-1.0-426.0","0","0","99305","","null","","","null","47","NaN","","","","","","","","","","","","","","",""
"","S2","","html-keyboard-response","317","452246","0.0-1.0-427.0","0","0","99305","","null","","","null","47","","NaN","","","","","","","","","","","","","",""
"","response","","html-keyboard-response","318","452524","0.0-1.0-428.0","0","0","99305","","275","","","75","47","","","1","47","training","adjacent","CB","3","2","L.jpg","R.jpg","1","0","0","",""
"","feedback","","html-keyboard-response","319","453528","0.0-1.0-429.0-0.0","0","0","99305","","null","","","null","47","","","","","","","","","","","","","","","",""
"","time_out","","html-keyboard-response","320","455533","0.0-1.0-431.0-0.0","0","0","99305","","null","","","null","47","","","","","","","","","","","","","","","",""
"","ITI","","html-keyboard-response","321","456536","0.0-1.0-432.0","0","0","99305","","null","","","null","47","","","","","","","","","","","","","","","NaN",""
"","block_over","","html-keyboard-response","322","512345","0.0-1.0-433.0-0.0","0","0","99305","","55805","","","32","47","","","","","","","","","","","","","","","",""
"","S1","","html-keyboard-response","323","512599","0.0-1.0-434.0","0","0","99305","","null","","","null","48","","","","","","","","","","","","","","","",""
"","ISI","","html-keyboard-response","324","514602","0.0-1.0-435.0","0","0","99305","","null","","","null","48","NaN","","","","","","","","","","","","","","",""
"","S2","","html-keyboard-response","325","514855","0.0-1.0-436.0","0","0","99305","","null","","","null","48","","NaN","","","","","","","","","","","","","",""
"","response","","html-keyboard-response","326","514932","0.0-1.0-437.0","0","0","99305","","75","","","75","48","","","2","48","training","adjacent","DC","4","3","M.jpg","L.jpg","1","0","0","",""
"","feedback","","html-keyboard-response","327","515935","0.0-1.0-438.0-0.0","0","0","99305","","null","","","null","48","","","","","","","","","","","","","","","",""
"","time_out","","html-keyboard-response","328","517938","0.0-1.0-440.0-0.0","0","0","99305","","null","","","null","48","","","","","","","","","","","","","","","",""
"","ITI","","html-keyboard-response","329","518940","0.0-1.0-441.0","0","0","99305","","737","","","68","48","","","","","","","","","","","","","","","d",""
"","S1","","html-keyboard-response","330","519193","0.0-1.0-443.0","0","0","99305","","null","","","null","49","","","","","","","","","","","","","","","",""
"","ISI","","html-keyboard-response","331","521196","0.0-1.0-444.0","0","0","99305","","74","","","68","49","d","","","","","","","","","","","","","","",""
"","S2","","html-keyboard-response","332","521449","0.0-1.0-445.0","0","0","99305","","null","","","null","49","","NaN","","","","","","","","","","","","","",""
"","response","","html-keyboard-response","333","521514","0.0-1.0-446.0","0","0","99305","","63","","","68","49","","","2","49","training","adjacent","CB","3","2","L.jpg","R.jpg","0","0","1","",""
"","feedback","","html-keyboard-response","334","522518","0.0-1.0-447.0-0.0","0","0","99305","","null","","","null","49","","","","","","","","","","","","","","","",""
"","ITI","","html-keyboard-response","335","523521","0.0-1.0-450.0","0","0","99305","","null","","","null","49","","","","","","","","","","","","","","","NaN",""
"","S1","","html-keyboard-response","336","523774","0.0-1.0-452.0","0","0","99305","","null","","","null","50","","","","","","","","","","","","","","","",""
"","ISI","","html-keyboard-response","337","525777","0.0-1.0-453.0","0","0","99305","","null","","","null","50","NaN","","","","","","","","","","","","","","",""
"","S2","","html-keyboard-response","338","526030","0.0-1.0-454.0","0","0","99305","","null","","","null","50","","NaN","","","","","","","","","","","","","",""
"","response","","html-keyboard-response","339","527011","0.0-1.0-455.0","0","0","99305","","979","","","75","50","","","2","50","training","adjacent","BC","2","3","R.jpg","L.jpg","1","1","1","",""
"","feedback","","html-keyboard-response","340","528014","0.0-1.0-456.0-0.0","0","0","99305","","null","","","null","50","","","","","","","","","","","","","","","",""
"","ITI","","html-keyboard-response","341","529017","0.0-1.0-459.0","0","0","99305","","null","","","null","50","","","","","","","","","","","","","","","NaN",""
"","S1","","html-keyboard-response","342","529270","0.0-1.0-461.0","0","0","99305","","null","","","null","51","","","","","","","","","","","","","","","",""
"","ISI","","html-keyboard-response","343","531273","0.0-1.0-462.0","0","0","99305","","null","","","null","51","NaN","","","","","","","","","","","","","","",""
"","S2","","html-keyboard-response","344","531526","0.0-1.0-463.0","0","0","99305","","null","","","null","51","","NaN","","","","","","","","","","","","","",""
"","response","","html-keyboard-response","345","531809","0.0-1.0-464.0","0","0","99305","","281","","","68","51","","","2","51","training","adjacent","ED","5","4","P.jpg","M.jpg","0","0","1","",""
"","feedback","","html-keyboard-response","346","532813","0.0-1.0-465.0-0.0","0","0","99305","","null","","","null","51","","","","","","","","","","","","","","","",""
"","ITI","","html-keyboard-response","347","533815","0.0-1.0-468.0","0","0","99305","","null","","","null","51","","","","","","","","","","","","","","","NaN",""
"","S1","","html-keyboard-response","348","534068","0.0-1.0-470.0","0","0","99305","","null","","","null","52","","","","","","","","","","","","","","","",""
"","ISI","","html-keyboard-response","349","536071","0.0-1.0-471.0","0","0","99305","","null","","","null","52","NaN","","","","","","","","","","","","","","",""
"","S2","","html-keyboard-response","350","536325","0.0-1.0-472.0","0","0","99305","","34","","","75","52","","k","","","","","","","","","","","","","",""
"","response","","html-keyboard-response","351","536458","0.0-1.0-473.0","0","0","99305","","132","","","75","52","","","2","52","training","adjacent","DC","4","3","M.jpg","L.jpg","1","0","0","",""
"","feedback","","html-keyboard-response","352","537462","0.0-1.0-474.0-0.0","0","0","99305","","null","","","null","52","","","","","","","","","","","","","","","",""
"","time_out","","html-keyboard-response","353","539465","0.0-1.0-476.0-0.0","0","0","99305","","null","","","null","52","","","","","","","","","","","","","","","",""
"","ITI","","html-keyboard-response","354","540468","0.0-1.0-477.0","0","0","99305","","null","","","null","52","","","","","","","","","","","","","","","NaN",""
"","S1","","html-keyboard-response","355","540721","0.0-1.0-479.0","0","0","99305","","null","","","null","53","","","","","","","","","","","","","","","",""
"","ISI","","html-keyboard-response","356","542724","0.0-1.0-480.0","0","0","99305","","null","","","null","53","NaN","","","","","","","","","","","","","","",""
"","S2","","html-keyboard-response","357","542977","0.0-1.0-481.0","0","0","99305","","null","","","null","53","","NaN","","","","","","","","","","","","","",""
"","response","","html-keyboard-response","358","543118","0.0-1.0-482.0","0","0","99305","","139","","","68","53","","","2","53","training","adjacent","FE","6","5","Q.jpg","P.jpg","0","0","1","",""
"","feedback","","html-keyboard-response","359","544122","0.0-1.0-483.0-0.0","0","0","99305","","null","","","null","53","","","","","","","","","","","","","","","",""
"","ITI","","html-keyboard-response","360","545125","0.0-1.0-486.0","0","0","99305","","null","","","null","53","","","","","","","","","","","","","","","NaN",""
"","S1","","html-keyboard-response","361","545378","0.0-1.0-488.0","0","0","99305","","null","","","null","54","","","","","","","","","","","","","","","",""
"","ISI","","html-keyboard-response","362","547381","0.0-1.0-489.0","0","0","99305","","null","","","null","54","NaN","","","","","","","","","","","","","","",""
"","S2","","html-keyboard-response","363","547634","0.0-1.0-490.0","0","0","99305","","null","","","null","54","","NaN","","","","","","","","","","","","","",""
"","response","","html-keyboard-response","364","548350","0.0-1.0-491.0","0","0","99305","","715","","","68","54","","","2","54","training","adjacent","BA","2","1","R.jpg","N.jpg","0","0","1","",""
"","feedback","","html-keyboard-response","365","549353","0.0-1.0-492.0-0.0","0","0","99305","","null","","","null","54","","","","","","","","","","","","","","","",""
"","ITI","","html-keyboard-response","366","550356","0.0-1.0-495.0","0","0","99305","","null","","","null","54","","","","","","","","","","","","","","","NaN",""
"","S1","","html-keyboard-response","367","550609","0.0-1.0-497.0","0","0","99305","","null","","","null","55","","","","","","","","","","","","","","","",""
"","ISI","","html-keyboard-response","368","552611","0.0-1.0-498.0","0","0","99305","","null","","","null","55","NaN","","","","","","","","","","","","","","",""
"","S2","","html-keyboard-response","369","552864","0.0-1.0-499.0","0","0","99305","","null","","","null","55","","NaN","","","","","","","","","","","","","",""
"","response","","html-keyboard-response","370","553302","0.0-1.0-500.0","0","0","99305","","435","","","75","55","","","2","55","training","adjacent","DE","4","5","M.jpg","P.jpg","1","1","1","",""
"","feedback","","html-keyboard-response","371","554305","0.0-1.0-501.0-0.0","0","0","99305","","null","","","null","55","","","","","","","","","","","","","","","",""
"","ITI","","html-keyboard-response","372","555308","0.0-1.0-504.0","0","0","99305","","null","","","null","55","","","","","","","","","","","","","","","NaN",""
"","S1","","html-keyboard-response","373","555561","0.0-1.0-506.0","0","0","99305","","null","","","null","56","","","","","","","","","","","","","","","",""
"","ISI","","html-keyboard-response","374","557563","0.0-1.0-507.0","0","0","99305","","null","","","null","56","NaN","","","","","","","","","","","","","","",""
"","S2","","html-keyboard-response","375","557816","0.0-1.0-508.0","0","0","99305","","null","","","null","56","","NaN","","","","","","","","","","","","","",""
"","response","","html-keyboard-response","376","558176","0.0-1.0-509.0","0","0","99305","","358","","","68","56","","","2","56","training","adjacent","CB","3","2","L.jpg","R.jpg","0","0","1","",""
"","feedback","","html-keyboard-response","377","559179","0.0-1.0-510.0-0.0","0","0","99305","","null","","","null","56","","","","","","","","","","","","","","","",""
"","ITI","","html-keyboard-response","378","560182","0.0-1.0-513.0","0","0","99305","","null","","","null","56","","","","","","","","","","","","","","","NaN",""
"","S1","","html-keyboard-response","379","560435","0.0-1.0-515.0","0","0","99305","","null","","","null","57","","","","","","","","","","","","","","","",""
"","ISI","","html-keyboard-response","380","562438","0.0-1.0-516.0","0","0","99305","","null","","","null","57","NaN","","","","","","","","","","","","","","",""
"","S2","","html-keyboard-response","381","562691","0.0-1.0-517.0","0","0","99305","","null","","","null","57","","NaN","","","","","","","","","","","","","",""
"","response","","html-keyboard-response","382","563102","0.0-1.0-518.0","0","0","99305","","408","","","75","57","","","2","57","training","adjacent","ED","5","4","P.jpg","M.jpg","1","0","0","",""
"","feedback","","html-keyboard-response","383","564105","0.0-1.0-519.0-0.0","0","0","99305","","null","","","null","57","","","","","","","","","","","","","","","",""
"","time_out","","html-keyboard-response","384","566108","0.0-1.0-521.0-0.0","0","0","99305","","null","","","null","57","","","","","","","","","","","","","","","",""
"","ITI","","html-keyboard-response","385","567112","0.0-1.0-522.0","0","0","99305","","null","","","null","57","","","","","","","","","","","","","","","NaN",""
"","S1","","html-keyboard-response","386","567364","0.0-1.0-524.0","0","0","99305","","null","","","null","58","","","","","","","","","","","","","","","",""
"","ISI","","html-keyboard-response","387","569366","0.0-1.0-525.0","0","0","99305","","null","","","null","58","NaN","","","","","","","","","","","","","","",""
"","S2","","html-keyboard-response","388","569619","0.0-1.0-526.0","0","0","99305","","null","","","null","58","","NaN","","","","","","","","","","","","","",""
"","response","","html-keyboard-response","389","569625","0.0-1.0-527.0","0","0","99305","","4","","","75","58","","","2","58","training","adjacent","BA","2","1","R.jpg","N.jpg","1","0","0","",""
"","feedback","","html-keyboard-response","390","570628","0.0-1.0-528.0-0.0","0","0","99305","","null","","","null","58","","","","","","","","","","","","","","","",""
"","time_out","","html-keyboard-response","391","572634","0.0-1.0-530.0-0.0","0","0","99305","","null","","","null","58","","","","","","","","","","","","","","","",""
"","ITI","","html-keyboard-response","392","573637","0.0-1.0-531.0","0","0","99305","","null","","","null","58","","","","","","","","","","","","","","","NaN",""
"","S1","","html-keyboard-response","393","573889","0.0-1.0-533.0","0","0","99305","","null","","","null","59","","","","","","","","","","","","","","","",""
"","ISI","","html-keyboard-response","394","575891","0.0-1.0-534.0","0","0","99305","","124","","","68","59","d","","","","","","","","","","","","","","",""
"","S2","","html-keyboard-response","395","576145","0.0-1.0-535.0","0","0","99305","","null","","","null","59","","NaN","","","","","","","","","","","","","",""
"","response","","html-keyboard-response","396","577871","0.0-1.0-536.0","0","0","99305","","1724","","","68","59","","","2","59","training","adjacent","DC","4","3","M.jpg","L.jpg","0","0","1","",""
"","feedback","","html-keyboard-response","397","578873","0.0-1.0-537.0-0.0","0","0","99305","","null","","","null","59","","","","","","","","","","","","","","","",""
"","ITI","","html-keyboard-response","398","579877","0.0-1.0-540.0","0","0","99305","","null","","","null","59","","","","","","","","","","","","","","","NaN",""
"","S1","","html-keyboard-response","399","580130","0.0-1.0-542.0","0","0","99305","","null","","","null","60","","","","","","","","","","","","","","","",""
"","ISI","","html-keyboard-response","400","582133","0.0-1.0-543.0","0","0","99305","","50","","","75","60","k","","","","","","","","","","","","","","",""
"","S2","","html-keyboard-response","401","582386","0.0-1.0-544.0","0","0","99305","","null","","","null","60","","NaN","","","","","","","","","","","","","",""
"","response","","html-keyboard-response","402","583026","0.0-1.0-545.0","0","0","99305","","638","","","68","60","","","2","60","training","adjacent","CB","3","2","L.jpg","R.jpg","0","0","1","",""
"","feedback","","html-keyboard-response","403","584029","0.0-1.0-546.0-0.0","0","0","99305","","null","","","null","60","","","","","","","","","","","","","","","",""
"","ITI","","html-keyboard-response","404","585032","0.0-1.0-549.0","0","0","99305","","null","","","null","60","","","","","","","","","","","","","","","NaN",""
"","S1","","html-keyboard-response","405","585285","0.0-1.0-551.0","0","0","99305","","null","","","null","61","","","","","","","","","","","","","","","",""
"","ISI","","html-keyboard-response","406","587288","0.0-1.0-552.0","0","0","99305","","null","","","null","61","NaN","","","","","","","","","","","","","","",""
"","S2","","html-keyboard-response","407","587541","0.0-1.0-553.0","0","0","99305","","null","","","null","61","","NaN","","","","","","","","","","","","","",""
"","response","","html-keyboard-response","408","588457","0.0-1.0-554.0","0","0","99305","","913","","","75","61","","","2","61","training","adjacent","BC","2","3","R.jpg","L.jpg","1","1","1","",""
"","feedback","","html-keyboard-response","409","589460","0.0-1.0-555.0-0.0","0","0","99305","","null","","","null","61","","","","","","","","","","","","","","","",""
"","ITI","","html-keyboard-response","410","590463","0.0-1.0-558.0","0","0","99305","","null","","","null","61","","","","","","","","","","","","","","","NaN",""
"","S1","","html-keyboard-response","411","590716","0.0-1.0-560.0","0","0","99305","","null","","","null","62","","","","","","","","","","","","","","","",""
"","ISI","","html-keyboard-response","412","592719","0.0-1.0-561.0","0","0","99305","","null","","","null","62","NaN","","","","","","","","","","","","","","",""
"","S2","","html-keyboard-response","413","592972","0.0-1.0-562.0","0","0","99305","","null","","","null","62","","NaN","","","","","","","","","","","","","",""
"","response","","html-keyboard-response","414","594975","0.0-1.0-563.0","0","0","99305","","null","","","null","62","","","2","62","training","adjacent","ED","5","4","P.jpg","M.jpg","NaN","0","0","",""
"","too_slow_prompt","","html-keyboard-response","415","595978","0.0-1.0-565.0-0.0","1","0","99305","","null","","","null","","","","","","","","","","","","","","","","",""
"","time_out","","html-keyboard-response","416","597981","0.0-1.0-566.0-0.0","0","0","99305","","null","","","null","62","","","","","","","","","","","","","","","",""
"","ITI","","html-keyboard-response","417","598984","0.0-1.0-567.0","0","0","99305","","null","","","null","62","","","","","","","","","","","","","","","NaN",""
"","S1","","html-keyboard-response","418","599237","0.0-1.0-569.0","0","0","99305","","null","","","null","63","","","","","","","","","","","","","","","",""
"","ISI","","html-keyboard-response","419","601240","0.0-1.0-570.0","0","0","99305","","null","","","null","63","NaN","","","","","","","","","","","","","","",""
"","S2","","html-keyboard-response","420","601493","0.0-1.0-571.0","0","0","99305","","null","","","null","63","","NaN","","","","","","","","","","","","","",""
"","response","","html-keyboard-response","421","601602","0.0-1.0-572.0","0","0","99305","","107","","","75","63","","","2","63","training","adjacent","BC","2","3","R.jpg","L.jpg","1","1","1","",""
"","feedback","","html-keyboard-response","422","602605","0.0-1.0-573.0-0.0","0","0","99305","","null","","","null","63","","","","","","","","","","","","","","","",""
"","ITI","","html-keyboard-response","423","603608","0.0-1.0-576.0","0","0","99305","","null","","","null","63","","","","","","","","","","","","","","","NaN",""
"","S1","","html-keyboard-response","424","603861","0.0-1.0-578.0","0","0","99305","","null","","","null","64","","","","","","","","","","","","","","","",""
"","ISI","","html-keyboard-response","425","605864","0.0-1.0-579.0","0","0","99305","","1878","","","68","64","d","","","","","","","","","","","","","","",""
"","S2","","html-keyboard-response","426","606117","0.0-1.0-580.0","0","0","99305","","101","","","68","64","","d","","","","","","","","","","","","","",""
"","response","","html-keyboard-response","427","606161","0.0-1.0-581.0","0","0","99305","","41","","","68","64","","","2","64","training","adjacent","CD","3","4","L.jpg","M.jpg","0","1","0","",""
"","feedback","","html-keyboard-response","428","607164","0.0-1.0-582.0-0.0","0","0","99305","","null","","","null","64","","","","","","","","","","","","","","","",""
"","time_out","","html-keyboard-response","429","609167","0.0-1.0-584.0-0.0","0","0","99305","","null","","","null","64","","","","","","","","","","","","","","","",""
"","ITI","","html-keyboard-response","430","610171","0.0-1.0-585.0","0","0","99305","","null","","","null","64","","","","","","","","","","","","","","","NaN",""
"","S1","","html-keyboard-response","431","610423","0.0-1.0-587.0","0","0","99305","","null","","","null","65","","","","","","","","","","","","","","","",""
"","ISI","","html-keyboard-response","432","612427","0.0-1.0-588.0","0","0","99305","","263","","","75","65","k","","","","","","","","","","","","","","",""
"","S2","","html-keyboard-response","433","612680","0.0-1.0-589.0","0","0","99305","","null","","","null","65","","NaN","","","","","","","","","","","","","",""
"","response","","html-keyboard-response","434","612881","0.0-1.0-590.0","0","0","99305","","199","","","75","65","","","2","65","training","adjacent","BA","2","1","R.jpg","N.jpg","1","0","0","",""
"","feedback","","html-keyboard-response","435","613883","0.0-1.0-591.0-0.0","0","0","99305","","null","","","null","65","","","","","","","","","","","","","","","",""
"","time_out","","html-keyboard-response","436","615885","0.0-1.0-593.0-0.0","0","0","99305","","null","","","null","65","","","","","","","","","","","","","","","",""
"","ITI","","html-keyboard-response","437","616888","0.0-1.0-594.0","0","0","99305","","null","","","null","65","","","","","","","","","","","","","","","NaN",""
"","S1","","html-keyboard-response","438","617141","0.0-1.0-596.0","0","0","99305","","null","","","null","66","","","","","","","","","","","","","","","",""
"","ISI","","html-keyboard-response","439","619143","0.0-1.0-597.0","0","0","99305","","1863","","","68","66","d","","","","","","","","","","","","","","",""
"","S2","","html-keyboard-response","440","619396","0.0-1.0-598.0","0","0","99305","","124","","","68","66","","d","","","","","","","","","","","","","",""
"","response","","html-keyboard-response","441","619453","0.0-1.0-599.0","0","0","99305","","55","","","68","66","","","2","66","training","adjacent","GF","7","6","O.jpg","Q.jpg","0","0","1","",""
"","feedback","","html-keyboard-response","442","620456","0.0-1.0-600.0-0.0","0","0","99305","","null","","","null","66","","","","","","","","","","","","","","","",""
"","ITI","","html-keyboard-response","443","621459","0.0-1.0-603.0","0","0","99305","","null","","","null","66","","","","","","","","","","","","","","","NaN",""
"","S1","","html-keyboard-response","444","621712","0.0-1.0-605.0","0","0","99305","","null","","","null","67","","","","","","","","","","","","","","","",""
"","ISI","","html-keyboard-response","445","623715","0.0-1.0-606.0","0","0","99305","","null","","","null","67","NaN","","","","","","","","","","","","","","",""
"","S2","","html-keyboard-response","446","623968","0.0-1.0-607.0","0","0","99305","","null","","","null","67","","NaN","","","","","","","","","","","","","",""
"","response","","html-keyboard-response","447","624130","0.0-1.0-608.0","0","0","99305","","160","","","68","67","","","2","67","training","adjacent","ED","5","4","P.jpg","M.jpg","0","0","1","",""
"","feedback","","html-keyboard-response","448","625134","0.0-1.0-609.0-0.0","0","0","99305","","null","","","null","67","","","","","","","","","","","","","","","",""
"","ITI","","html-keyboard-response","449","626137","0.0-1.0-612.0","0","0","99305","","null","","","null","67","","","","","","","","","","","","","","","NaN",""
"","S1","","html-keyboard-response","450","626390","0.0-1.0-614.0","0","0","99305","","null","","","null","68","","","","","","","","","","","","","","","",""
"","ISI","","html-keyboard-response","451","628393","0.0-1.0-615.0","0","0","99305","","null","","","null","68","NaN","","","","","","","","","","","","","","",""
"","S2","","html-keyboard-response","452","628646","0.0-1.0-616.0","0","0","99305","","null","","","null","68","","NaN","","","","","","","","","","","","","",""
"","response","","html-keyboard-response","453","629021","0.0-1.0-617.0","0","0","99305","","373","","","75","68","","","2","68","training","adjacent","FG","6","7","Q.jpg","O.jpg","1","1","1","",""
"","feedback","","html-keyboard-response","454","630024","0.0-1.0-618.0-0.0","0","0","99305","","null","","","null","68","","","","","","","","","","","","","","","",""
"","ITI","","html-keyboard-response","455","631027","0.0-1.0-621.0","0","0","99305","","null","","","null","68","","","","","","","","","","","","","","","NaN",""
"","S1","","html-keyboard-response","456","631280","0.0-1.0-623.0","0","0","99305","","null","","","null","69","","","","","","","","","","","","","","","",""
"","ISI","","html-keyboard-response","457","633285","0.0-1.0-624.0","0","0","99305","","1408","","","68","69","d","","","","","","","","","","","","","","",""
"","S2","","html-keyboard-response","458","633538","0.0-1.0-625.0","0","0","99305","","80","","","68","69","","d","","","","","","","","","","","","","",""
"","response","","html-keyboard-response","459","633773","0.0-1.0-626.0","0","0","99305","","233","","","68","69","","","2","69","training","adjacent","CB","3","2","L.jpg","R.jpg","0","0","1","",""
"","feedback","","html-keyboard-response","460","634776","0.0-1.0-627.0-0.0","0","0","99305","","null","","","null","69","","","","","","","","","","","","","","","",""
"","ITI","","html-keyboard-response","461","635779","0.0-1.0-630.0","0","0","99305","","null","","","null","69","","","","","","","","","","","","","","","NaN",""
"","S1","","html-keyboard-response","462","636032","0.0-1.0-632.0","0","0","99305","","null","","","null","70","","","","","","","","","","","","","","","",""
"","ISI","","html-keyboard-response","463","638035","0.0-1.0-633.0","0","0","99305","","null","","","null","70","NaN","","","","","","","","","","","","","","",""
"","S2","","html-keyboard-response","464","638288","0.0-1.0-634.0","0","0","99305","","null","","","null","70","","NaN","","","","","","","","","","","","","",""
"","response","","html-keyboard-response","465","638705","0.0-1.0-635.0","0","0","99305","","415","","","75","70","","","2","70","training","adjacent","AB","1","2","N.jpg","R.jpg","1","1","1","",""
"","feedback","","html-keyboard-response","466","639708","0.0-1.0-636.0-0.0","0","0","99305","","null","","","null","70","","","","","","","","","","","","","","","",""
"","ITI","","html-keyboard-response","467","640711","0.0-1.0-639.0","0","0","99305","","null","","","null","70","","","","","","","","","","","","","","","NaN",""
"","S1","","html-keyboard-response","468","640964","0.0-1.0-641.0","0","0","99305","","null","","","null","71","","","","","","","","","","","","","","","",""
"","ISI","","html-keyboard-response","469","642968","0.0-1.0-642.0","0","0","99305","","null","","","null","71","NaN","","","","","","","","","","","","","","",""
"","S2","","html-keyboard-response","470","643221","0.0-1.0-643.0","0","0","99305","","null","","","null","71","","NaN","","","","","","","","","","","","","",""
"","response","","html-keyboard-response","471","643681","0.0-1.0-644.0","0","0","99305","","459","","","75","71","","","2","71","training","adjacent","AB","1","2","N.jpg","R.jpg","1","1","1","",""
"","feedback","","html-keyboard-response","472","644685","0.0-1.0-645.0-0.0","0","0","99305","","null","","","null","71","","","","","","","","","","","","","","","",""
"","ITI","","html-keyboard-response","473","645688","0.0-1.0-648.0","0","0","99305","","null","","","null","71","","","","","","","","","","","","","","","NaN",""
"","S1","","html-keyboard-response","474","645941","0.0-1.0-650.0","0","0","99305","","null","","","null","72","","","","","","","","","","","","","","","",""
"","ISI","","html-keyboard-response","475","647944","0.0-1.0-651.0","0","0","99305","","null","","","null","72","NaN","","","","","","","","","","","","","","",""
"","S2","","html-keyboard-response","476","648197","0.0-1.0-652.0","0","0","99305","","null","","","null","72","","NaN","","","","","","","","","","","","","",""
"","response","","html-keyboard-response","477","648541","0.0-1.0-653.0","0","0","99305","","342","","","75","72","","","2","72","training","adjacent","AB","1","2","N.jpg","R.jpg","1","1","1","",""
"","feedback","","html-keyboard-response","478","649545","0.0-1.0-654.0-0.0","0","0","99305","","null","","","null","72","","","","","","","","","","","","","","","",""
"","ITI","","html-keyboard-response","479","650548","0.0-1.0-657.0","0","0","99305","","null","","","null","72","","","","","","","","","","","","","","","NaN",""
"","S1","","html-keyboard-response","480","650801","0.0-1.0-659.0","0","0","99305","","null","","","null","73","","","","","","","","","","","","","","","",""
"","ISI","","html-keyboard-response","481","652804","0.0-1.0-660.0","0","0","99305","","null","","","null","73","NaN","","","","","","","","","","","","","","",""
"","S2","","html-keyboard-response","482","653057","0.0-1.0-661.0","0","0","99305","","null","","","null","73","","NaN","","","","","","","","","","","","","",""
"","response","","html-keyboard-response","483","653231","0.0-1.0-662.0","0","0","99305","","172","","","68","73","","","2","73","training","adjacent","DC","4","3","M.jpg","L.jpg","0","0","1","",""
"","feedback","","html-keyboard-response","484","654235","0.0-1.0-663.0-0.0","0","0","99305","","null","","","null","73","","","","","","","","","","","","","","","",""
"","ITI","","html-keyboard-response","485","655238","0.0-1.0-666.0","0","0","99305","","null","","","null","73","","","","","","","","","","","","","","","NaN",""
"","S1","","html-keyboard-response","486","655491","0.0-1.0-668.0","0","0","99305","","null","","","null","74","","","","","","","","","","","","","","","",""
"","ISI","","html-keyboard-response","487","657494","0.0-1.0-669.0","0","0","99305","","190","","","75","74","k","","","","","","","","","","","","","","",""
"","S2","","html-keyboard-response","488","657747","0.0-1.0-670.0","0","0","99305","","222","","","75","74","","k","","","","","","","","","","","","","",""
"","response","","html-keyboard-response","489","658343","0.0-1.0-671.0","0","0","99305","","594","","","75","74","","","2","74","training","adjacent","EF","5","6","P.jpg","Q.jpg","1","1","1","",""
"","feedback","","html-keyboard-response","490","659346","0.0-1.0-672.0-0.0","0","0","99305","","null","","","null","74","","","","","","","","","","","","","","","",""
"","ITI","","html-keyboard-response","491","660349","0.0-1.0-675.0","0","0","99305","","null","","","null","74","","","","","","","","","","","","","","","NaN",""
"","S1","","html-keyboard-response","492","660602","0.0-1.0-677.0","0","0","99305","","null","","","null","75","","","","","","","","","","","","","","","",""
"","ISI","","html-keyboard-response","493","662605","0.0-1.0-678.0","0","0","99305","","252","","","68","75","d","","","","","","","","","","","","","","",""
"","S2","","html-keyboard-response","494","662858","0.0-1.0-679.0","0","0","99305","","92","","","68","75","","d","","","","","","","","","","","","","",""
"","response","","html-keyboard-response","495","662894","0.0-1.0-680.0","0","0","99305","","34","","","68","75","","","2","75","training","adjacent","BC","2","3","R.jpg","L.jpg","0","1","0","",""
"","feedback","","html-keyboard-response","496","663897","0.0-1.0-681.0-0.0","0","0","99305","","null","","","null","75","","","","","","","","","","","","","","","",""
"","time_out","","html-keyboard-response","497","665900","0.0-1.0-683.0-0.0","0","0","99305","","null","","","null","75","","","","","","","","","","","","","","","",""
"","ITI","","html-keyboard-response","498","666903","0.0-1.0-684.0","0","0","99305","","null","","","null","75","","","","","","","","","","","","","","","NaN",""
"","S1","","html-keyboard-response","499","667156","0.0-1.0-686.0","0","0","99305","","null","","","null","76","","","","","","","","","","","","","","","",""
"","ISI","","html-keyboard-response","500","669159","0.0-1.0-687.0","0","0","99305","","null","","","null","76","NaN","","","","","","","","","","","","","","",""
"","S2","","html-keyboard-response","501","669412","0.0-1.0-688.0","0","0","99305","","null","","","null","76","","NaN","","","","","","","","","","","","","",""
"","response","","html-keyboard-response","502","669463","0.0-1.0-689.0","0","0","99305","","48","","","68","76","","","2","76","training","adjacent","FE","6","5","Q.jpg","P.jpg","0","0","1","",""
"","feedback","","html-keyboard-response","503","670466","0.0-1.0-690.0-0.0","0","0","99305","","null","","","null","76","","","","","","","","","","","","","","","",""
"","ITI","","html-keyboard-response","504","671469","0.0-1.0-693.0","0","0","99305","","null","","","null","76","","","","","","","","","","","","","","","NaN",""
"","S1","","html-keyboard-response","505","671722","0.0-1.0-695.0","0","0","99305","","null","","","null","77","","","","","","","","","","","","","","","",""
"","ISI","","html-keyboard-response","506","673725","0.0-1.0-696.0","0","0","99305","","null","","","null","77","NaN","","","","","","","","","","","","","","",""
"","S2","","html-keyboard-response","507","673978","0.0-1.0-697.0","0","0","99305","","null","","","null","77","","NaN","","","","","","","","","","","","","",""
"","response","","html-keyboard-response","508","674051","0.0-1.0-698.0","0","0","99305","","71","","","68","77","","","2","77","training","adjacent","EF","5","6","P.jpg","Q.jpg","0","1","0","",""
"","feedback","","html-keyboard-response","509","675054","0.0-1.0-699.0-0.0","0","0","99305","","null","","","null","77","","","","","","","","","","","","","","","",""
"","time_out","","html-keyboard-response","510","677057","0.0-1.0-701.0-0.0","0","0","99305","","null","","","null","77","","","","","","","","","","","","","","","",""
"","ITI","","html-keyboard-response","511","678060","0.0-1.0-702.0","0","0","99305","","96","","","75","77","","","","","","","","","","","","","","","k",""
"","S1","","html-keyboard-response","512","678313","0.0-1.0-704.0","0","0","99305","","null","","","null","78","","","","","","","","","","","","","","","",""
"","ISI","","html-keyboard-response","513","680317","0.0-1.0-705.0","0","0","99305","","194","","","75","78","k","","","","","","","","","","","","","","",""
"","S2","","html-keyboard-response","514","680570","0.0-1.0-706.0","0","0","99305","","null","","","null","78","","NaN","","","","","","","","","","","","","",""
"","response","","html-keyboard-response","515","680861","0.0-1.0-707.0","0","0","99305","","289","","","68","78","","","2","78","training","adjacent","CD","3","4","L.jpg","M.jpg","0","1","0","",""
"","feedback","","html-keyboard-response","516","681864","0.0-1.0-708.0-0.0","0","0","99305","","null","","","null","78","","","","","","","","","","","","","","","",""
"","time_out","","html-keyboard-response","517","683867","0.0-1.0-710.0-0.0","0","0","99305","","null","","","null","78","","","","","","","","","","","","","","","",""
"","ITI","","html-keyboard-response","518","684870","0.0-1.0-711.0","0","0","99305","","null","","","null","78","","","","","","","","","","","","","","","NaN",""
"","S1","","html-keyboard-response","519","685123","0.0-1.0-713.0","0","0","99305","","null","","","null","79","","","","","","","","","","","","","","","",""
"","ISI","","html-keyboard-response","520","687126","0.0-1.0-714.0","0","0","99305","","441","","","75","79","k","","","","","","","","","","","","","","",""
"","S2","","html-keyboard-response","521","687378","0.0-1.0-715.0","0","0","99305","","239","","","75","79","","k","","","","","","","","","","","","","",""
"","response","","html-keyboard-response","522","687975","0.0-1.0-716.0","0","0","99305","","595","","","75","79","","","2","79","training","adjacent","DE","4","5","M.jpg","P.jpg","1","1","1","",""
"","feedback","","html-keyboard-response","523","688979","0.0-1.0-717.0-0.0","0","0","99305","","null","","","null","79","","","","","","","","","","","","","","","",""
"","ITI","","html-keyboard-response","524","689982","0.0-1.0-720.0","0","0","99305","","null","","","null","79","","","","","","","","","","","","","","","NaN",""
"","S1","","html-keyboard-response","525","690235","0.0-1.0-722.0","0","0","99305","","null","","","null","80","","","","","","","","","","","","","","","",""
"","ISI","","html-keyboard-response","526","692238","0.0-1.0-723.0","0","0","99305","","null","","","null","80","NaN","","","","","","","","","","","","","","",""
"","S2","","html-keyboard-response","527","692491","0.0-1.0-724.0","0","0","99305","","null","","","null","80","","NaN","","","","","","","","","","","","","",""
"","response","","html-keyboard-response","528","693054","0.0-1.0-725.0","0","0","99305","","560","","","75","80","","","2","80","training","adjacent","DE","4","5","M.jpg","P.jpg","1","1","1","",""
"","feedback","","html-keyboard-response","529","694057","0.0-1.0-726.0-0.0","0","0","99305","","null","","","null","80","","","","","","","","","","","","","","","",""
"","ITI","","html-keyboard-response","530","695061","0.0-1.0-729.0","0","0","99305","","null","","","null","80","","","","","","","","","","","","","","","NaN",""
"","S1","","html-keyboard-response","531","695314","0.0-1.0-731.0","0","0","99305","","null","","","null","81","","","","","","","","","","","","","","","",""
"","ISI","","html-keyboard-response","532","697317","0.0-1.0-732.0","0","0","99305","","null","","","null","81","NaN","","","","","","","","","","","","","","",""
"","S2","","html-keyboard-response","533","697570","0.0-1.0-733.0","0","0","99305","","null","","","null","81","","NaN","","","","","","","","","","","","","",""
"","response","","html-keyboard-response","534","697602","0.0-1.0-734.0","0","0","99305","","29","","","68","81","","","2","81","training","adjacent","FG","6","7","Q.jpg","O.jpg","0","1","0","",""
"","feedback","","html-keyboard-response","535","698605","0.0-1.0-735.0-0.0","0","0","99305","","null","","","null","81","","","","","","","","","","","","","","","",""
"","time_out","","html-keyboard-response","536","700608","0.0-1.0-737.0-0.0","0","0","99305","","null","","","null","81","","","","","","","","","","","","","","","",""
"","ITI","","html-keyboard-response","537","701611","0.0-1.0-738.0","0","0","99305","","null","","","null","81","","","","","","","","","","","","","","","NaN",""
"","S1","","html-keyboard-response","538","701864","0.0-1.0-740.0","0","0","99305","","null","","","null","82","","","","","","","","","","","","","","","",""
"","ISI","","html-keyboard-response","539","703867","0.0-1.0-741.0","0","0","99305","","null","","","null","82","NaN","","","","","","","","","","","","","","",""
"","S2","","html-keyboard-response","540","704120","0.0-1.0-742.0","0","0","99305","","153","","","75","82","","k","","","","","","","","","","","","","",""
"","response","","html-keyboard-response","541","704447","0.0-1.0-743.0","0","0","99305","","325","","","75","82","","","2","82","training","adjacent","AB","1","2","N.jpg","R.jpg","1","1","1","",""
"","feedback","","html-keyboard-response","542","705450","0.0-1.0-744.0-0.0","0","0","99305","","null","","","null","82","","","","","","","","","","","","","","","",""
"","ITI","","html-keyboard-response","543","706453","0.0-1.0-747.0","0","0","99305","","null","","","null","82","","","","","","","","","","","","","","","NaN",""
"","S1","","html-keyboard-response","544","706706","0.0-1.0-749.0","0","0","99305","","null","","","null","83","","","","","","","","","","","","","","","",""
"","ISI","","html-keyboard-response","545","708709","0.0-1.0-750.0","0","0","99305","","1759","","","68","83","d","","","","","","","","","","","","","","",""
"","S2","","html-keyboard-response","546","708963","0.0-1.0-751.0","0","0","99305","","193","","","68","83","","d","","","","","","","","","","","","","",""
"","response","","html-keyboard-response","547","709148","0.0-1.0-752.0","0","0","99305","","183","","","68","83","","","2","83","training","adjacent","GF","7","6","O.jpg","Q.jpg","0","0","1","",""
"","feedback","","html-keyboard-response","548","710150","0.0-1.0-753.0-0.0","0","0","99305","","null","","","null","83","","","","","","","","","","","","","","","",""
"","ITI","","html-keyboard-response","549","711154","0.0-1.0-756.0","0","0","99305","","null","","","null","83","","","","","","","","","","","","","","","NaN",""
"","S1","","html-keyboard-response","550","711406","0.0-1.0-758.0","0","0","99305","","null","","","null","84","","","","","","","","","","","","","","","",""
"","ISI","","html-keyboard-response","551","713410","0.0-1.0-759.0","0","0","99305","","1756","","","68","84","d","","","","","","","","","","","","","","",""
"","S2","","html-keyboard-response","552","713663","0.0-1.0-760.0","0","0","99305","","161","","","68","84","","d","","","","","","","","","","","","","",""
"","response","","html-keyboard-response","553","713805","0.0-1.0-761.0","0","0","99305","","139","","","68","84","","","2","84","training","adjacent","GF","7","6","O.jpg","Q.jpg","0","0","1","",""
"","feedback","","html-keyboard-response","554","714808","0.0-1.0-762.0-0.0","0","0","99305","","null","","","null","84","","","","","","","","","","","","","","","",""
"","ITI","","html-keyboard-response","555","715811","0.0-1.0-765.0","0","0","99305","","null","","","null","84","","","","","","","","","","","","","","","NaN",""
"","S1","","html-keyboard-response","556","716065","0.0-1.0-767.0","0","0","99305","","null","","","null","85","","","","","","","","","","","","","","","",""
"","ISI","","html-keyboard-response","557","718068","0.0-1.0-768.0","0","0","99305","","null","","","null","85","NaN","","","","","","","","","","","","","","",""
"","S2","","html-keyboard-response","558","718321","0.0-1.0-769.0","0","0","99305","","null","","","null","85","","NaN","","","","","","","","","","","","","",""
"","response","","html-keyboard-response","559","719352","0.0-1.0-770.0","0","0","99305","","1028","","","75","85","","","2","85","training","adjacent","FE","6","5","Q.jpg","P.jpg","1","0","0","",""
"","feedback","","html-keyboard-response","560","720355","0.0-1.0-771.0-0.0","0","0","99305","","null","","","null","85","","","","","","","","","","","","","","","",""
"","time_out","","html-keyboard-response","561","722358","0.0-1.0-773.0-0.0","0","0","99305","","null","","","null","85","","","","","","","","","","","","","","","",""
"","ITI","","html-keyboard-response","562","723361","0.0-1.0-774.0","0","0","99305","","null","","","null","85","","","","","","","","","","","","","","","NaN",""
"","S1","","html-keyboard-response","563","723614","0.0-1.0-776.0","0","0","99305","","null","","","null","86","","","","","","","","","","","","","","","",""
"","ISI","","html-keyboard-response","564","725617","0.0-1.0-777.0","0","0","99305","","147","","","68","86","d","","","","","","","","","","","","","","",""
"","S2","","html-keyboard-response","565","725870","0.0-1.0-778.0","0","0","99305","","27","","","68","86","","d","","","","","","","","","","","","","",""
"","response","","html-keyboard-response","566","726278","0.0-1.0-779.0","0","0","99305","","406","","","68","86","","","2","86","training","adjacent","EF","5","6","P.jpg","Q.jpg","0","1","0","",""
"","feedback","","html-keyboard-response","567","727282","0.0-1.0-780.0-0.0","0","0","99305","","null","","","null","86","","","","","","","","","","","","","","","",""
"","time_out","","html-keyboard-response","568","729285","0.0-1.0-782.0-0.0","0","0","99305","","null","","","null","86","","","","","","","","","","","","","","","",""
"","ITI","","html-keyboard-response","569","730288","0.0-1.0-783.0","0","0","99305","","372","","","75","86","","","","","","","","","","","","","","","k",""
"","S1","","html-keyboard-response","570","730541","0.0-1.0-785.0","0","0","99305","","null","","","null","87","","","","","","","","","","","","","","","",""
"","ISI","","html-keyboard-response","571","732544","0.0-1.0-786.0","0","0","99305","","265","","","75","87","k","","","","","","","","","","","","","","",""
"","S2","","html-keyboard-response","572","732797","0.0-1.0-787.0","0","0","99305","","63","","","68","87","","d","","","","","","","","","","","","","",""
"","response","","html-keyboard-response","573","732829","0.0-1.0-788.0","0","0","99305","","29","","","68","87","","","2","87","training","adjacent","DE","4","5","M.jpg","P.jpg","0","1","0","",""
"","feedback","","html-keyboard-response","574","733832","0.0-1.0-789.0-0.0","0","0","99305","","null","","","null","87","","","","","","","","","","","","","","","",""
"","time_out","","html-keyboard-response","575","735835","0.0-1.0-791.0-0.0","0","0","99305","","null","","","null","87","","","","","","","","","","","","","","","",""
"","ITI","","html-keyboard-response","576","736838","0.0-1.0-792.0","0","0","99305","","290","","","75","87","","","","","","","","","","","","","","","k",""
"","S1","","html-keyboard-response","577","737091","0.0-1.0-794.0","0","0","99305","","null","","","null","88","","","","","","","","","","","","","","","",""
"","ISI","","html-keyboard-response","578","739094","0.0-1.0-795.0","0","0","99305","","null","","","null","88","NaN","","","","","","","","","","","","","","",""
"","S2","","html-keyboard-response","579","739347","0.0-1.0-796.0","0","0","99305","","null","","","null","88","","NaN","","","","","","","","","","","","","",""
"","response","","html-keyboard-response","580","739569","0.0-1.0-797.0","0","0","99305","","220","","","68","88","","","2","88","training","adjacent","GF","7","6","O.jpg","Q.jpg","0","0","1","",""
"","feedback","","html-keyboard-response","581","740573","0.0-1.0-798.0-0.0","0","0","99305","","null","","","null","88","","","","","","","","","","","","","","","",""
"","ITI","","html-keyboard-response","582","741575","0.0-1.0-801.0","0","0","99305","","null","","","null","88","","","","","","","","","","","","","","","NaN",""
"","S1","","html-keyboard-response","583","741828","0.0-1.0-803.0","0","0","99305","","null","","","null","89","","","","","","","","","","","","","","","",""
"","ISI","","html-keyboard-response","584","743831","0.0-1.0-804.0","0","0","99305","","null","","","null","89","NaN","","","","","","","","","","","","","","",""
