"success","ttype","start_time","trial_type","trial_index","time_elapsed","internal_node_id","warning","missed_checkup","PID","view_history","rt","responses","repeat_instructions","key_press","index","keypress_isi","keypress_S2","block","trial_num","phase","group_type","pair_type","S1_stim","S2_stim","S1_img","S2_img","S1_chosen","S1_higher","accuracy","keypress_iti","total_bonus_tally"
"true","full_screen","d04062023hr1756","fullscreen","0","2766","0.0-0.0","0","0","39274","","","","","","","","","","","","","","","","","","","","","",""
"","instructions","","instructions","1","307440","0.0-1.0-0.0-0.0","0","0","39274","[{""page_index"":0,""viewing_time"":5081},{""page_index"":1,""viewing_time"":18530},{""page_index"":2,""viewing_time"":16704},{""page_index"":3,""viewing_time"":264357}]","304672","","","","","","","","","","","","","","","","","","","",""
"","comprehension_check","","survey-multi-choice","2","339222","0.0-1.0-0.0-1.0","0","0","39274","","31779","{""Q0"":""True"",""Q1"":""D"",""Q2"":""Once the second image appears and while the screen 'MAKE A CHOICE' is shown"",""Q3"":""Green mark"",""Q4"":""either D or K""}","0","","","","","","","","","","","","","","","","","",""
"","start_exp","","html-keyboard-response","3","341275","0.0-1.0-1.0","0","0","39274","","2052","","","32","","","","","","","","","","","","","","","","",""
"","S1","","html-keyboard-response","4","341427","0.0-1.0-2.0","0","0","39274","","null","","","null","0","","","","","","","","","","","","","","","",""
"","ISI","","html-keyboard-response","5","343429","0.0-1.0-3.0","0","0","39274","","null","","","null","0","NaN","","","","","","","","","","","","","","",""
"","S2","","html-keyboard-response","6","343581","0.0-1.0-4.0","0","0","39274","","null","","","null","0","","NaN","","","","","","","","","","","","","",""
"","response","","html-keyboard-response","7","345433","0.0-1.0-5.0-0.0","0","0","39274","","null","","","null","0","","","1","0","training","adjacent","AB","1","2","L.jpg","N.jpg","NaN","1","0","",""
"","too_slow_prompt","","html-keyboard-response","8","346434","0.0-1.0-7.0-0.0","1","0","39274","","null","","","null","","","","","","","","","","","","","","","","",""
"","time_out","","html-keyboard-response","9","348436","0.0-1.0-8.0-0.0","0","0","39274","","null","","","null","0","","","","","","","","","","","","","","","",""
"","ITI","","html-keyboard-response","10","349438","0.0-1.0-9.0","0","0","39274","","null","","","null","0","","","","","","","","","","","","","","","NaN",""
"","S1","","html-keyboard-response","11","349590","0.0-1.0-11.0","0","0","39274","","null","","","null","1","","","","","","","","","","","","","","","",""
"","ISI","","html-keyboard-response","12","351592","0.0-1.0-12.0","0","0","39274","","268","","","75","1","k","","","","","","","","","","","","","","",""
"","S2","","html-keyboard-response","13","351744","0.0-1.0-13.0","0","0","39274","","null","","","null","1","","NaN","","","","","","","","","","","","","",""
"","response","","html-keyboard-response","14","352419","0.0-1.0-14.0-0.0","0","0","39274","","673","","","75","1","","","1","1","training","adjacent","GF","7","6","M.jpg","R.jpg","0","0","1","",""
"","feedback","","html-keyboard-response","15","353421","0.0-1.0-15.0-0.0","0","0","39274","","null","","","null","1","","","","","","","","","","","","","","","",""
"","ITI","","html-keyboard-response","16","354423","0.0-1.0-18.0","0","0","39274","","null","","","null","1","","","","","","","","","","","","","","","NaN",""
"","S1","","html-keyboard-response","17","354582","0.0-1.0-20.0","0","0","39274","","null","","","null","2","","","","","","","","","","","","","","","",""
"","ISI","","html-keyboard-response","18","356584","0.0-1.0-21.0","0","0","39274","","null","","","null","2","NaN","","","","","","","","","","","","","","",""
"","S2","","html-keyboard-response","19","356736","0.0-1.0-22.0","0","0","39274","","null","","","null","2","","NaN","","","","","","","","","","","","","",""
"","response","","html-keyboard-response","20","357515","0.0-1.0-23.0-0.0","0","0","39274","","778","","","68","2","","","1","2","training","adjacent","DE","4","5","P.jpg","O.jpg","1","1","1","",""
"","feedback","","html-keyboard-response","21","358517","0.0-1.0-24.0-0.0","0","0","39274","","null","","","null","2","","","","","","","","","","","","","","","",""
"","ITI","","html-keyboard-response","22","359519","0.0-1.0-27.0","0","0","39274","","null","","","null","2","","","","","","","","","","","","","","","NaN",""
"","S1","","html-keyboard-response","23","359670","0.0-1.0-29.0","0","0","39274","","null","","","null","3","","","","","","","","","","","","","","","",""
"","ISI","","html-keyboard-response","24","361671","0.0-1.0-30.0","0","0","39274","","null","","","null","3","NaN","","","","","","","","","","","","","","",""
"","S2","","html-keyboard-response","25","361823","0.0-1.0-31.0","0","0","39274","","null","","","null","3","","NaN","","","","","","","","","","","","","",""
"","response","","html-keyboard-response","26","363675","0.0-1.0-32.0-0.0","0","0","39274","","null","","","null","3","","","1","3","training","adjacent","BA","2","1","N.jpg","L.jpg","NaN","0","0","",""
"","too_slow_prompt","","html-keyboard-response","27","364677","0.0-1.0-34.0-0.0","1","0","39274","","null","","","null","","","","","","","","","","","","","","","","",""
"","time_out","","html-keyboard-response","28","366679","0.0-1.0-35.0-0.0","0","0","39274","","null","","","null","3","","","","","","","","","","","","","","","",""
"","ITI","","html-keyboard-response","29","367681","0.0-1.0-36.0","0","0","39274","","null","","","null","3","","","","","","","","","","","","","","","NaN",""
"","S1","","html-keyboard-response","30","367832","0.0-1.0-38.0","0","0","39274","","null","","","null","4","","","","","","","","","","","","","","","",""
"","ISI","","html-keyboard-response","31","369834","0.0-1.0-39.0","0","0","39274","","null","","","null","4","NaN","","","","","","","","","","","","","","",""
"","S2","","html-keyboard-response","32","369986","0.0-1.0-40.0","0","0","39274","","null","","","null","4","","NaN","","","","","","","","","","","","","",""
"","response","","html-keyboard-response","33","370323","0.0-1.0-41.0-0.0","0","0","39274","","336","","","75","4","","","1","4","training","adjacent","CB","3","2","Q.jpg","N.jpg","0","0","1","",""
"","feedback","","html-keyboard-response","34","371325","0.0-1.0-42.0-0.0","0","0","39274","","null","","","null","4","","","","","","","","","","","","","","","",""
"","ITI","","html-keyboard-response","35","372327","0.0-1.0-45.0","0","0","39274","","null","","","null","4","","","","","","","","","","","","","","","NaN",""
"","S1","","html-keyboard-response","36","372478","0.0-1.0-47.0","0","0","39274","","null","","","null","5","","","","","","","","","","","","","","","",""
"","ISI","","html-keyboard-response","37","374480","0.0-1.0-48.0","0","0","39274","","null","","","null","5","NaN","","","","","","","","","","","","","","",""
"","S2","","html-keyboard-response","38","374632","0.0-1.0-49.0","0","0","39274","","null","","","null","5","","NaN","","","","","","","","","","","","","",""
"","response","","html-keyboard-response","39","375043","0.0-1.0-50.0-0.0","0","0","39274","","410","","","68","5","","","1","5","training","adjacent","FG","6","7","R.jpg","M.jpg","1","1","1","",""
"","feedback","","html-keyboard-response","40","376045","0.0-1.0-51.0-0.0","0","0","39274","","null","","","null","5","","","","","","","","","","","","","","","",""
"","ITI","","html-keyboard-response","41","377047","0.0-1.0-54.0","0","0","39274","","null","","","null","5","","","","","","","","","","","","","","","NaN",""
"","S1","","html-keyboard-response","42","377198","0.0-1.0-56.0","0","0","39274","","null","","","null","6","","","","","","","","","","","","","","","",""
"","ISI","","html-keyboard-response","43","379200","0.0-1.0-57.0","0","0","39274","","null","","","null","6","NaN","","","","","","","","","","","","","","",""
"","S2","","html-keyboard-response","44","379352","0.0-1.0-58.0","0","0","39274","","null","","","null","6","","NaN","","","","","","","","","","","","","",""
"","response","","html-keyboard-response","45","380051","0.0-1.0-59.0-0.0","0","0","39274","","697","","","75","6","","","1","6","training","adjacent","ED","5","4","O.jpg","P.jpg","0","0","1","",""
"","feedback","","html-keyboard-response","46","381053","0.0-1.0-60.0-0.0","0","0","39274","","null","","","null","6","","","","","","","","","","","","","","","",""
"","ITI","","html-keyboard-response","47","382055","0.0-1.0-63.0","0","0","39274","","null","","","null","6","","","","","","","","","","","","","","","NaN",""
"","S1","","html-keyboard-response","48","382206","0.0-1.0-65.0","0","0","39274","","null","","","null","7","","","","","","","","","","","","","","","",""
"","ISI","","html-keyboard-response","49","384208","0.0-1.0-66.0","0","0","39274","","null","","","null","7","NaN","","","","","","","","","","","","","","",""
"","S2","","html-keyboard-response","50","384360","0.0-1.0-67.0","0","0","39274","","null","","","null","7","","NaN","","","","","","","","","","","","","",""
"","response","","html-keyboard-response","51","384899","0.0-1.0-68.0-0.0","0","0","39274","","538","","","75","7","","","1","7","training","adjacent","DE","4","5","P.jpg","O.jpg","0","1","0","",""
"","feedback","","html-keyboard-response","52","385901","0.0-1.0-69.0-0.0","0","0","39274","","null","","","null","7","","","","","","","","","","","","","","","",""
"","time_out","","html-keyboard-response","53","387903","0.0-1.0-71.0-0.0","0","0","39274","","null","","","null","7","","","","","","","","","","","","","","","",""
"","ITI","","html-keyboard-response","54","388905","0.0-1.0-72.0","0","0","39274","","null","","","null","7","","","","","","","","","","","","","","","NaN",""
"","S1","","html-keyboard-response","55","389056","0.0-1.0-74.0","0","0","39274","","null","","","null","8","","","","","","","","","","","","","","","",""
"","ISI","","html-keyboard-response","56","391058","0.0-1.0-75.0","0","0","39274","","null","","","null","8","NaN","","","","","","","","","","","","","","",""
"","S2","","html-keyboard-response","57","391210","0.0-1.0-76.0","0","0","39274","","null","","","null","8","","NaN","","","","","","","","","","","","","",""
"","response","","html-keyboard-response","58","392251","0.0-1.0-77.0-0.0","0","0","39274","","1041","","","75","8","","","1","8","training","adjacent","ED","5","4","O.jpg","P.jpg","0","0","1","",""
"","feedback","","html-keyboard-response","59","393267","0.0-1.0-78.0-0.0","0","0","39274","","null","","","null","8","","","","","","","","","","","","","","","",""
"","ITI","","html-keyboard-response","60","394269","0.0-1.0-81.0","0","0","39274","","null","","","null","8","","","","","","","","","","","","","","","NaN",""
"","S1","","html-keyboard-response","61","394420","0.0-1.0-83.0","0","0","39274","","null","","","null","9","","","","","","","","","","","","","","","",""
"","ISI","","html-keyboard-response","62","396422","0.0-1.0-84.0","0","0","39274","","null","","","null","9","NaN","","","","","","","","","","","","","","",""
"","S2","","html-keyboard-response","63","396574","0.0-1.0-85.0","0","0","39274","","null","","","null","9","","NaN","","","","","","","","","","","","","",""
"","response","","html-keyboard-response","64","397043","0.0-1.0-86.0-0.0","0","0","39274","","468","","","75","9","","","1","9","training","adjacent","GF","7","6","M.jpg","R.jpg","0","0","1","",""
"","feedback","","html-keyboard-response","65","398045","0.0-1.0-87.0-0.0","0","0","39274","","null","","","null","9","","","","","","","","","","","","","","","",""
"","ITI","","html-keyboard-response","66","399047","0.0-1.0-90.0","0","0","39274","","null","","","null","9","","","","","","","","","","","","","","","NaN",""
"","S1","","html-keyboard-response","67","399198","0.0-1.0-92.0","0","0","39274","","null","","","null","10","","","","","","","","","","","","","","","",""
"","ISI","","html-keyboard-response","68","401200","0.0-1.0-93.0","0","0","39274","","null","","","null","10","NaN","","","","","","","","","","","","","","",""
"","S2","","html-keyboard-response","69","401352","0.0-1.0-94.0","0","0","39274","","null","","","null","10","","NaN","","","","","","","","","","","","","",""
"","response","","html-keyboard-response","70","401747","0.0-1.0-95.0-0.0","0","0","39274","","394","","","68","10","","","1","10","training","adjacent","DC","4","3","P.jpg","Q.jpg","1","0","0","",""
"","feedback","","html-keyboard-response","71","402750","0.0-1.0-96.0-0.0","0","0","39274","","null","","","null","10","","","","","","","","","","","","","","","",""
"","time_out","","html-keyboard-response","72","404751","0.0-1.0-98.0-0.0","0","0","39274","","null","","","null","10","","","","","","","","","","","","","","","",""
"","ITI","","html-keyboard-response","73","405753","0.0-1.0-99.0","0","0","39274","","null","","","null","10","","","","","","","","","","","","","","","NaN",""
"","S1","","html-keyboard-response","74","405912","0.0-1.0-101.0","0","0","39274","","null","","","null","11","","","","","","","","","","","","","","","",""
"","ISI","","html-keyboard-response","75","407914","0.0-1.0-102.0","0","0","39274","","null","","","null","11","NaN","","","","","","","","","","","","","","",""
"","S2","","html-keyboard-response","76","408066","0.0-1.0-103.0","0","0","39274","","null","","","null","11","","NaN","","","","","","","","","","","","","",""
"","response","","html-keyboard-response","77","408443","0.0-1.0-104.0-0.0","0","0","39274","","376","","","75","11","","","1","11","training","adjacent","ED","5","4","O.jpg","P.jpg","0","0","1","",""
"","feedback","","html-keyboard-response","78","409446","0.0-1.0-105.0-0.0","0","0","39274","","null","","","null","11","","","","","","","","","","","","","","","",""
"","ITI","","html-keyboard-response","79","410448","0.0-1.0-108.0","0","0","39274","","null","","","null","11","","","","","","","","","","","","","","","NaN",""
"","S1","","html-keyboard-response","80","410600","0.0-1.0-110.0","0","0","39274","","null","","","null","12","","","","","","","","","","","","","","","",""
"","ISI","","html-keyboard-response","81","412602","0.0-1.0-111.0","0","0","39274","","null","","","null","12","NaN","","","","","","","","","","","","","","",""
"","S2","","html-keyboard-response","82","412754","0.0-1.0-112.0","0","0","39274","","null","","","null","12","","NaN","","","","","","","","","","","","","",""
"","response","","html-keyboard-response","83","412955","0.0-1.0-113.0-0.0","0","0","39274","","201","","","75","12","","","1","12","training","adjacent","FG","6","7","R.jpg","M.jpg","0","1","0","",""
"","feedback","","html-keyboard-response","84","413957","0.0-1.0-114.0-0.0","0","0","39274","","null","","","null","12","","","","","","","","","","","","","","","",""
"","time_out","","html-keyboard-response","85","415959","0.0-1.0-116.0-0.0","0","0","39274","","null","","","null","12","","","","","","","","","","","","","","","",""
"","ITI","","html-keyboard-response","86","416960","0.0-1.0-117.0","0","0","39274","","null","","","null","12","","","","","","","","","","","","","","","NaN",""
"","S1","","html-keyboard-response","87","417112","0.0-1.0-119.0","0","0","39274","","null","","","null","13","","","","","","","","","","","","","","","",""
"","ISI","","html-keyboard-response","88","419113","0.0-1.0-120.0","0","0","39274","","null","","","null","13","NaN","","","","","","","","","","","","","","",""
"","S2","","html-keyboard-response","89","419271","0.0-1.0-121.0","0","0","39274","","null","","","null","13","","NaN","","","","","","","","","","","","","",""
"","response","","html-keyboard-response","90","419540","0.0-1.0-122.0-0.0","0","0","39274","","268","","","68","13","","","1","13","training","adjacent","GF","7","6","M.jpg","R.jpg","1","0","0","",""
"","feedback","","html-keyboard-response","91","420542","0.0-1.0-123.0-0.0","0","0","39274","","null","","","null","13","","","","","","","","","","","","","","","",""
"","time_out","","html-keyboard-response","92","422544","0.0-1.0-125.0-0.0","0","0","39274","","null","","","null","13","","","","","","","","","","","","","","","",""
"","ITI","","html-keyboard-response","93","423546","0.0-1.0-126.0","0","0","39274","","null","","","null","13","","","","","","","","","","","","","","","NaN",""
"","S1","","html-keyboard-response","94","423697","0.0-1.0-128.0","0","0","39274","","null","","","null","14","","","","","","","","","","","","","","","",""
"","ISI","","html-keyboard-response","95","425698","0.0-1.0-129.0","0","0","39274","","null","","","null","14","NaN","","","","","","","","","","","","","","",""
"","S2","","html-keyboard-response","96","425850","0.0-1.0-130.0","0","0","39274","","null","","","null","14","","NaN","","","","","","","","","","","","","",""
"","response","","html-keyboard-response","97","426116","0.0-1.0-131.0-0.0","0","0","39274","","264","","","75","14","","","1","14","training","adjacent","GF","7","6","M.jpg","R.jpg","0","0","1","",""
"","feedback","","html-keyboard-response","98","427118","0.0-1.0-132.0-0.0","0","0","39274","","null","","","null","14","","","","","","","","","","","","","","","",""
"","ITI","","html-keyboard-response","99","428120","0.0-1.0-135.0","0","0","39274","","null","","","null","14","","","","","","","","","","","","","","","NaN",""
"","S1","","html-keyboard-response","100","428271","0.0-1.0-137.0","0","0","39274","","null","","","null","15","","","","","","","","","","","","","","","",""
"","ISI","","html-keyboard-response","101","430273","0.0-1.0-138.0","0","0","39274","","null","","","null","15","NaN","","","","","","","","","","","","","","",""
"","S2","","html-keyboard-response","102","430425","0.0-1.0-139.0","0","0","39274","","null","","","null","15","","NaN","","","","","","","","","","","","","",""
"","response","","html-keyboard-response","103","430891","0.0-1.0-140.0-0.0","0","0","39274","","466","","","68","15","","","1","15","training","adjacent","CD","3","4","Q.jpg","P.jpg","1","1","1","",""
"","feedback","","html-keyboard-response","104","431893","0.0-1.0-141.0-0.0","0","0","39274","","null","","","null","15","","","","","","","","","","","","","","","",""
"","ITI","","html-keyboard-response","105","432895","0.0-1.0-144.0","0","0","39274","","null","","","null","15","","","","","","","","","","","","","","","NaN",""
"","S1","","html-keyboard-response","106","433046","0.0-1.0-146.0","0","0","39274","","null","","","null","16","","","","","","","","","","","","","","","",""
"","ISI","","html-keyboard-response","107","435047","0.0-1.0-147.0","0","0","39274","","null","","","null","16","NaN","","","","","","","","","","","","","","",""
"","S2","","html-keyboard-response","108","435199","0.0-1.0-148.0","0","0","39274","","null","","","null","16","","NaN","","","","","","","","","","","","","",""
"","response","","html-keyboard-response","109","435427","0.0-1.0-149.0-0.0","0","0","39274","","228","","","75","16","","","1","16","training","adjacent","ED","5","4","O.jpg","P.jpg","0","0","1","",""
"","feedback","","html-keyboard-response","110","436429","0.0-1.0-150.0-0.0","0","0","39274","","null","","","null","16","","","","","","","","","","","","","","","",""
"","ITI","","html-keyboard-response","111","437431","0.0-1.0-153.0","0","0","39274","","null","","","null","16","","","","","","","","","","","","","","","NaN",""
"","S1","","html-keyboard-response","112","437582","0.0-1.0-155.0","0","0","39274","","null","","","null","17","","","","","","","","","","","","","","","",""
"","ISI","","html-keyboard-response","113","439584","0.0-1.0-156.0","0","0","39274","","null","","","null","17","NaN","","","","","","","","","","","","","","",""
"","S2","","html-keyboard-response","114","439736","0.0-1.0-157.0","0","0","39274","","null","","","null","17","","NaN","","","","","","","","","","","","","",""
"","response","","html-keyboard-response","115","440204","0.0-1.0-158.0-0.0","0","0","39274","","466","","","75","17","","","1","17","training","adjacent","DC","4","3","P.jpg","Q.jpg","0","0","1","",""
"","feedback","","html-keyboard-response","116","441205","0.0-1.0-159.0-0.0","0","0","39274","","null","","","null","17","","","","","","","","","","","","","","","",""
"","ITI","","html-keyboard-response","117","442207","0.0-1.0-162.0","0","0","39274","","null","","","null","17","","","","","","","","","","","","","","","NaN",""
"","S1","","html-keyboard-response","118","442358","0.0-1.0-164.0","0","0","39274","","null","","","null","18","","","","","","","","","","","","","","","",""
"","ISI","","html-keyboard-response","119","444360","0.0-1.0-165.0","0","0","39274","","null","","","null","18","NaN","","","","","","","","","","","","","","",""
"","S2","","html-keyboard-response","120","444512","0.0-1.0-166.0","0","0","39274","","null","","","null","18","","NaN","","","","","","","","","","","","","",""
"","response","","html-keyboard-response","121","444908","0.0-1.0-167.0-0.0","0","0","39274","","394","","","68","18","","","1","18","training","adjacent","FG","6","7","R.jpg","M.jpg","1","1","1","",""
"","feedback","","html-keyboard-response","122","445910","0.0-1.0-168.0-0.0","0","0","39274","","null","","","null","18","","","","","","","","","","","","","","","",""
"","ITI","","html-keyboard-response","123","446912","0.0-1.0-171.0","0","0","39274","","null","","","null","18","","","","","","","","","","","","","","","NaN",""
"","S1","","html-keyboard-response","124","447064","0.0-1.0-173.0","0","0","39274","","null","","","null","19","","","","","","","","","","","","","","","",""
"","ISI","","html-keyboard-response","125","449066","0.0-1.0-174.0","0","0","39274","","null","","","null","19","NaN","","","","","","","","","","","","","","",""
"","S2","","html-keyboard-response","126","449218","0.0-1.0-175.0","0","0","39274","","null","","","null","19","","NaN","","","","","","","","","","","","","",""
"","response","","html-keyboard-response","127","450035","0.0-1.0-176.0-0.0","0","0","39274","","817","","","68","19","","","1","19","training","adjacent","BA","2","1","N.jpg","L.jpg","1","0","0","",""
"","feedback","","html-keyboard-response","128","451037","0.0-1.0-177.0-0.0","0","0","39274","","null","","","null","19","","","","","","","","","","","","","","","",""
"","time_out","","html-keyboard-response","129","453039","0.0-1.0-179.0-0.0","0","0","39274","","null","","","null","19","","","","","","","","","","","","","","","",""
"","ITI","","html-keyboard-response","130","454041","0.0-1.0-180.0","0","0","39274","","null","","","null","19","","","","","","","","","","","","","","","NaN",""
"","S1","","html-keyboard-response","131","454192","0.0-1.0-182.0","0","0","39274","","null","","","null","20","","","","","","","","","","","","","","","",""
"","ISI","","html-keyboard-response","132","456194","0.0-1.0-183.0","0","0","39274","","null","","","null","20","NaN","","","","","","","","","","","","","","",""
"","S2","","html-keyboard-response","133","456346","0.0-1.0-184.0","0","0","39274","","null","","","null","20","","NaN","","","","","","","","","","","","","",""
"","response","","html-keyboard-response","134","456644","0.0-1.0-185.0-0.0","0","0","39274","","296","","","75","20","","","1","20","training","adjacent","EF","5","6","O.jpg","R.jpg","0","1","0","",""
"","feedback","","html-keyboard-response","135","457645","0.0-1.0-186.0-0.0","0","0","39274","","null","","","null","20","","","","","","","","","","","","","","","",""
"","time_out","","html-keyboard-response","136","459647","0.0-1.0-188.0-0.0","0","0","39274","","null","","","null","20","","","","","","","","","","","","","","","",""
"","ITI","","html-keyboard-response","137","460649","0.0-1.0-189.0","0","0","39274","","null","","","null","20","","","","","","","","","","","","","","","NaN",""
"","S1","","html-keyboard-response","138","460800","0.0-1.0-191.0","0","0","39274","","null","","","null","21","","","","","","","","","","","","","","","",""
"","ISI","","html-keyboard-response","139","462802","0.0-1.0-192.0","0","0","39274","","731","","","68","21","d","","","","","","","","","","","","","","",""
"","S2","","html-keyboard-response","140","462954","0.0-1.0-193.0","0","0","39274","","null","","","null","21","","NaN","","","","","","","","","","","","","",""
"","response","","html-keyboard-response","141","463187","0.0-1.0-194.0-0.0","0","0","39274","","232","","","68","21","","","1","21","training","adjacent","EF","5","6","O.jpg","R.jpg","1","1","1","",""
"","feedback","","html-keyboard-response","142","464189","0.0-1.0-195.0-0.0","0","0","39274","","null","","","null","21","","","","","","","","","","","","","","","",""
"","ITI","","html-keyboard-response","143","465191","0.0-1.0-198.0","0","0","39274","","null","","","null","21","","","","","","","","","","","","","","","NaN",""
"","S1","","html-keyboard-response","144","465342","0.0-1.0-200.0","0","0","39274","","null","","","null","22","","","","","","","","","","","","","","","",""
"","ISI","","html-keyboard-response","145","467344","0.0-1.0-201.0","0","0","39274","","null","","","null","22","NaN","","","","","","","","","","","","","","",""
"","S2","","html-keyboard-response","146","467496","0.0-1.0-202.0","0","0","39274","","null","","","null","22","","NaN","","","","","","","","","","","","","",""
"","response","","html-keyboard-response","147","468804","0.0-1.0-203.0-0.0","0","0","39274","","1306","","","75","22","","","1","22","training","adjacent","FE","6","5","R.jpg","O.jpg","0","0","1","",""
"","feedback","","html-keyboard-response","148","469805","0.0-1.0-204.0-0.0","0","0","39274","","null","","","null","22","","","","","","","","","","","","","","","",""
"","ITI","","html-keyboard-response","149","470807","0.0-1.0-207.0","0","0","39274","","null","","","null","22","","","","","","","","","","","","","","","NaN",""
"","S1","","html-keyboard-response","150","470958","0.0-1.0-209.0","0","0","39274","","null","","","null","23","","","","","","","","","","","","","","","",""
"","ISI","","html-keyboard-response","151","472960","0.0-1.0-210.0","0","0","39274","","484","","","75","23","k","","","","","","","","","","","","","","",""
"","S2","","html-keyboard-response","152","473112","0.0-1.0-211.0","0","0","39274","","null","","","null","23","","NaN","","","","","","","","","","","","","",""
"","response","","html-keyboard-response","153","473436","0.0-1.0-212.0-0.0","0","0","39274","","322","","","75","23","","","1","23","training","adjacent","BA","2","1","N.jpg","L.jpg","0","0","1","",""
"","feedback","","html-keyboard-response","154","474438","0.0-1.0-213.0-0.0","0","0","39274","","null","","","null","23","","","","","","","","","","","","","","","",""
"","ITI","","html-keyboard-response","155","475440","0.0-1.0-216.0","0","0","39274","","null","","","null","23","","","","","","","","","","","","","","","NaN",""
"","S1","","html-keyboard-response","156","475591","0.0-1.0-218.0","0","0","39274","","null","","","null","24","","","","","","","","","","","","","","","",""
"","ISI","","html-keyboard-response","157","477593","0.0-1.0-219.0","0","0","39274","","null","","","null","24","NaN","","","","","","","","","","","","","","",""
"","S2","","html-keyboard-response","158","477745","0.0-1.0-220.0","0","0","39274","","null","","","null","24","","NaN","","","","","","","","","","","","","",""
"","response","","html-keyboard-response","159","478028","0.0-1.0-221.0-0.0","0","0","39274","","282","","","68","24","","","1","24","training","adjacent","BC","2","3","N.jpg","Q.jpg","1","1","1","",""
"","feedback","","html-keyboard-response","160","479030","0.0-1.0-222.0-0.0","0","0","39274","","null","","","null","24","","","","","","","","","","","","","","","",""
"","ITI","","html-keyboard-response","161","480032","0.0-1.0-225.0","0","0","39274","","null","","","null","24","","","","","","","","","","","","","","","NaN",""
"","S1","","html-keyboard-response","162","480183","0.0-1.0-227.0","0","0","39274","","null","","","null","25","","","","","","","","","","","","","","","",""
"","ISI","","html-keyboard-response","163","482185","0.0-1.0-228.0","0","0","39274","","null","","","null","25","NaN","","","","","","","","","","","","","","",""
"","S2","","html-keyboard-response","164","482337","0.0-1.0-229.0","0","0","39274","","null","","","null","25","","NaN","","","","","","","","","","","","","",""
"","response","","html-keyboard-response","165","482540","0.0-1.0-230.0-0.0","0","0","39274","","202","","","68","25","","","1","25","training","adjacent","FE","6","5","R.jpg","O.jpg","1","0","0","",""
"","feedback","","html-keyboard-response","166","483542","0.0-1.0-231.0-0.0","0","0","39274","","null","","","null","25","","","","","","","","","","","","","","","",""
"","time_out","","html-keyboard-response","167","485544","0.0-1.0-233.0-0.0","0","0","39274","","null","","","null","25","","","","","","","","","","","","","","","",""
"","ITI","","html-keyboard-response","168","486546","0.0-1.0-234.0","0","0","39274","","null","","","null","25","","","","","","","","","","","","","","","NaN",""
"","S1","","html-keyboard-response","169","486698","0.0-1.0-236.0","0","0","39274","","null","","","null","26","","","","","","","","","","","","","","","",""
"","ISI","","html-keyboard-response","170","488700","0.0-1.0-237.0","0","0","39274","","null","","","null","26","NaN","","","","","","","","","","","","","","",""
"","S2","","html-keyboard-response","171","488852","0.0-1.0-238.0","0","0","39274","","null","","","null","26","","NaN","","","","","","","","","","","","","",""
"","response","","html-keyboard-response","172","488955","0.0-1.0-239.0-0.0","0","0","39274","","103","","","75","26","","","1","26","training","adjacent","FE","6","5","R.jpg","O.jpg","0","0","1","",""
"","feedback","","html-keyboard-response","173","489957","0.0-1.0-240.0-0.0","0","0","39274","","null","","","null","26","","","","","","","","","","","","","","","",""
"","ITI","","html-keyboard-response","174","490959","0.0-1.0-243.0","0","0","39274","","null","","","null","26","","","","","","","","","","","","","","","NaN",""
"","S1","","html-keyboard-response","175","491110","0.0-1.0-245.0","0","0","39274","","null","","","null","27","","","","","","","","","","","","","","","",""
"","ISI","","html-keyboard-response","176","493112","0.0-1.0-246.0","0","0","39274","","null","","","null","27","NaN","","","","","","","","","","","","","","",""
"","S2","","html-keyboard-response","177","493264","0.0-1.0-247.0","0","0","39274","","null","","","null","27","","NaN","","","","","","","","","","","","","",""
"","response","","html-keyboard-response","178","493796","0.0-1.0-248.0-0.0","0","0","39274","","531","","","75","27","","","1","27","training","adjacent","FG","6","7","R.jpg","M.jpg","0","1","0","",""
"","feedback","","html-keyboard-response","179","494797","0.0-1.0-249.0-0.0","0","0","39274","","null","","","null","27","","","","","","","","","","","","","","","",""
"","time_out","","html-keyboard-response","180","496799","0.0-1.0-251.0-0.0","0","0","39274","","null","","","null","27","","","","","","","","","","","","","","","",""
"","ITI","","html-keyboard-response","181","497801","0.0-1.0-252.0","0","0","39274","","null","","","null","27","","","","","","","","","","","","","","","NaN",""
"","S1","","html-keyboard-response","182","497952","0.0-1.0-254.0","0","0","39274","","null","","","null","28","","","","","","","","","","","","","","","",""
"","ISI","","html-keyboard-response","183","499954","0.0-1.0-255.0","0","0","39274","","null","","","null","28","NaN","","","","","","","","","","","","","","",""
"","S2","","html-keyboard-response","184","500106","0.0-1.0-256.0","0","0","39274","","null","","","null","28","","NaN","","","","","","","","","","","","","",""
"","response","","html-keyboard-response","185","500756","0.0-1.0-257.0-0.0","0","0","39274","","649","","","68","28","","","1","28","training","adjacent","BC","2","3","N.jpg","Q.jpg","1","1","1","",""
"","feedback","","html-keyboard-response","186","501757","0.0-1.0-258.0-0.0","0","0","39274","","null","","","null","28","","","","","","","","","","","","","","","",""
"","ITI","","html-keyboard-response","187","502759","0.0-1.0-261.0","0","0","39274","","null","","","null","28","","","","","","","","","","","","","","","NaN",""
"","S1","","html-keyboard-response","188","502911","0.0-1.0-263.0","0","0","39274","","null","","","null","29","","","","","","","","","","","","","","","",""
"","ISI","","html-keyboard-response","189","504912","0.0-1.0-264.0","0","0","39274","","null","","","null","29","NaN","","","","","","","","","","","","","","",""
"","S2","","html-keyboard-response","190","505064","0.0-1.0-265.0","0","0","39274","","null","","","null","29","","NaN","","","","","","","","","","","","","",""
"","response","","html-keyboard-response","191","505068","0.0-1.0-266.0-0.0","0","0","39274","","2","","","75","29","","","1","29","training","adjacent","CD","3","4","Q.jpg","P.jpg","0","1","0","",""
"","feedback","","html-keyboard-response","192","506069","0.0-1.0-267.0-0.0","0","0","39274","","null","","","null","29","","","","","","","","","","","","","","","",""
"","time_out","","html-keyboard-response","193","508071","0.0-1.0-269.0-0.0","0","0","39274","","null","","","null","29","","","","","","","","","","","","","","","",""
"","ITI","","html-keyboard-response","194","509073","0.0-1.0-270.0","0","0","39274","","null","","","null","29","","","","","","","","","","","","","","","NaN",""
"","S1","","html-keyboard-response","195","509228","0.0-1.0-272.0","0","0","39274","","null","","","null","30","","","","","","","","","","","","","","","",""
"","ISI","","html-keyboard-response","196","511230","0.0-1.0-273.0","0","0","39274","","350","","","68","30","d","","","","","","","","","","","","","","",""
"","S2","","html-keyboard-response","197","511382","0.0-1.0-274.0","0","0","39274","","null","","","null","30","","NaN","","","","","","","","","","","","","",""
"","response","","html-keyboard-response","198","511700","0.0-1.0-275.0-0.0","0","0","39274","","316","","","75","30","","","1","30","training","adjacent","EF","5","6","O.jpg","R.jpg","0","1","0","",""
"","feedback","","html-keyboard-response","199","512701","0.0-1.0-276.0-0.0","0","0","39274","","null","","","null","30","","","","","","","","","","","","","","","",""
"","time_out","","html-keyboard-response","200","514703","0.0-1.0-278.0-0.0","0","0","39274","","null","","","null","30","","","","","","","","","","","","","","","",""
"","ITI","","html-keyboard-response","201","515705","0.0-1.0-279.0","0","0","39274","","null","","","null","30","","","","","","","","","","","","","","","NaN",""
"","S1","","html-keyboard-response","202","515856","0.0-1.0-281.0","0","0","39274","","null","","","null","31","","","","","","","","","","","","","","","",""
"","ISI","","html-keyboard-response","203","517858","0.0-1.0-282.0","0","0","39274","","null","","","null","31","NaN","","","","","","","","","","","","","","",""
"","S2","","html-keyboard-response","204","518010","0.0-1.0-283.0","0","0","39274","","null","","","null","31","","NaN","","","","","","","","","","","","","",""
"","response","","html-keyboard-response","205","518324","0.0-1.0-284.0-0.0","0","0","39274","","312","","","68","31","","","1","31","training","adjacent","DE","4","5","P.jpg","O.jpg","1","1","1","",""
"","feedback","","html-keyboard-response","206","519325","0.0-1.0-285.0-0.0","0","0","39274","","null","","","null","31","","","","","","","","","","","","","","","",""
"","ITI","","html-keyboard-response","207","520327","0.0-1.0-288.0","0","0","39274","","null","","","null","31","","","","","","","","","","","","","","","NaN",""
"","S1","","html-keyboard-response","208","520478","0.0-1.0-290.0","0","0","39274","","null","","","null","32","","","","","","","","","","","","","","","",""
"","ISI","","html-keyboard-response","209","522480","0.0-1.0-291.0","0","0","39274","","null","","","null","32","NaN","","","","","","","","","","","","","","",""
"","S2","","html-keyboard-response","210","522632","0.0-1.0-292.0","0","0","39274","","null","","","null","32","","NaN","","","","","","","","","","","","","",""
"","response","","html-keyboard-response","211","523500","0.0-1.0-293.0-0.0","0","0","39274","","866","","","75","32","","","1","32","training","adjacent","DC","4","3","P.jpg","Q.jpg","0","0","1","",""
"","feedback","","html-keyboard-response","212","524501","0.0-1.0-294.0-0.0","0","0","39274","","null","","","null","32","","","","","","","","","","","","","","","",""
"","ITI","","html-keyboard-response","213","525509","0.0-1.0-297.0","0","0","39274","","null","","","null","32","","","","","","","","","","","","","","","NaN",""
"","S1","","html-keyboard-response","214","525661","0.0-1.0-299.0","0","0","39274","","null","","","null","33","","","","","","","","","","","","","","","",""
"","ISI","","html-keyboard-response","215","527663","0.0-1.0-300.0","0","0","39274","","null","","","null","33","NaN","","","","","","","","","","","","","","",""
"","S2","","html-keyboard-response","216","527815","0.0-1.0-301.0","0","0","39274","","null","","","null","33","","NaN","","","","","","","","","","","","","",""
"","response","","html-keyboard-response","217","528652","0.0-1.0-302.0-0.0","0","0","39274","","835","","","68","33","","","1","33","training","adjacent","EF","5","6","O.jpg","R.jpg","1","1","1","",""
"","feedback","","html-keyboard-response","218","529654","0.0-1.0-303.0-0.0","0","0","39274","","null","","","null","33","","","","","","","","","","","","","","","",""
"","ITI","","html-keyboard-response","219","530656","0.0-1.0-306.0","0","0","39274","","null","","","null","33","","","","","","","","","","","","","","","NaN",""
"","S1","","html-keyboard-response","220","530807","0.0-1.0-308.0","0","0","39274","","null","","","null","34","","","","","","","","","","","","","","","",""
"","ISI","","html-keyboard-response","221","532809","0.0-1.0-309.0","0","0","39274","","null","","","null","34","NaN","","","","","","","","","","","","","","",""
"","S2","","html-keyboard-response","222","532961","0.0-1.0-310.0","0","0","39274","","null","","","null","34","","NaN","","","","","","","","","","","","","",""
"","response","","html-keyboard-response","223","534813","0.0-1.0-311.0-0.0","0","0","39274","","null","","","null","34","","","1","34","training","adjacent","BA","2","1","N.jpg","L.jpg","NaN","0","0","",""
"","too_slow_prompt","","html-keyboard-response","224","535814","0.0-1.0-313.0-0.0","1","0","39274","","null","","","null","","","","","","","","","","","","","","","","",""
"","time_out","","html-keyboard-response","225","537816","0.0-1.0-314.0-0.0","0","0","39274","","null","","","null","34","","","","","","","","","","","","","","","",""
"","ITI","","html-keyboard-response","226","538818","0.0-1.0-315.0","0","0","39274","","null","","","null","34","","","","","","","","","","","","","","","NaN",""
"","S1","","html-keyboard-response","227","538969","0.0-1.0-317.0","0","0","39274","","null","","","null","35","","","","","","","","","","","","","","","",""
"","ISI","","html-keyboard-response","228","540970","0.0-1.0-318.0","0","0","39274","","null","","","null","35","NaN","","","","","","","","","","","","","","",""
"","S2","","html-keyboard-response","229","541122","0.0-1.0-319.0","0","0","39274","","null","","","null","35","","NaN","","","","","","","","","","","","","",""
"","response","","html-keyboard-response","230","542084","0.0-1.0-320.0-0.0","0","0","39274","","960","","","68","35","","","1","35","training","adjacent","AB","1","2","L.jpg","N.jpg","1","1","1","",""
"","feedback","","html-keyboard-response","231","543086","0.0-1.0-321.0-0.0","0","0","39274","","null","","","null","35","","","","","","","","","","","","","","","",""
"","ITI","","html-keyboard-response","232","544088","0.0-1.0-324.0","0","0","39274","","null","","","null","35","","","","","","","","","","","","","","","NaN",""
"","S1","","html-keyboard-response","233","544239","0.0-1.0-326.0","0","0","39274","","null","","","null","36","","","","","","","","","","","","","","","",""
"","ISI","","html-keyboard-response","234","546241","0.0-1.0-327.0","0","0","39274","","null","","","null","36","NaN","","","","","","","","","","","","","","",""
"","S2","","html-keyboard-response","235","546393","0.0-1.0-328.0","0","0","39274","","null","","","null","36","","NaN","","","","","","","","","","","","","",""
"","response","","html-keyboard-response","236","546692","0.0-1.0-329.0-0.0","0","0","39274","","298","","","75","36","","","1","36","training","adjacent","CD","3","4","Q.jpg","P.jpg","0","1","0","",""
"","feedback","","html-keyboard-response","237","547693","0.0-1.0-330.0-0.0","0","0","39274","","null","","","null","36","","","","","","","","","","","","","","","",""
"","time_out","","html-keyboard-response","238","549695","0.0-1.0-332.0-0.0","0","0","39274","","null","","","null","36","","","","","","","","","","","","","","","",""
"","ITI","","html-keyboard-response","239","550697","0.0-1.0-333.0","0","0","39274","","null","","","null","36","","","","","","","","","","","","","","","NaN",""
"","S1","","html-keyboard-response","240","550848","0.0-1.0-335.0","0","0","39274","","null","","","null","37","","","","","","","","","","","","","","","",""
"","ISI","","html-keyboard-response","241","552850","0.0-1.0-336.0","0","0","39274","","507","","","75","37","k","","","","","","","","","","","","","","",""
"","S2","","html-keyboard-response","242","553002","0.0-1.0-337.0","0","0","39274","","null","","","null","37","","NaN","","","","","","","","","","","","","",""
"","response","","html-keyboard-response","243","553124","0.0-1.0-338.0-0.0","0","0","39274","","121","","","75","37","","","1","37","training","adjacent","AB","1","2","L.jpg","N.jpg","0","1","0","",""
"","feedback","","html-keyboard-response","244","554126","0.0-1.0-339.0-0.0","0","0","39274","","null","","","null","37","","","","","","","","","","","","","","","",""
"","time_out","","html-keyboard-response","245","556128","0.0-1.0-341.0-0.0","0","0","39274","","null","","","null","37","","","","","","","","","","","","","","","",""
"","ITI","","html-keyboard-response","246","557130","0.0-1.0-342.0","0","0","39274","","null","","","null","37","","","","","","","","","","","","","","","NaN",""
"","S1","","html-keyboard-response","247","557281","0.0-1.0-344.0","0","0","39274","","null","","","null","38","","","","","","","","","","","","","","","",""
"","ISI","","html-keyboard-response","248","559283","0.0-1.0-345.0","0","0","39274","","null","","","null","38","NaN","","","","","","","","","","","","","","",""
"","S2","","html-keyboard-response","249","559435","0.0-1.0-346.0","0","0","39274","","null","","","null","38","","NaN","","","","","","","","","","","","","",""
"","response","","html-keyboard-response","250","559596","0.0-1.0-347.0-0.0","0","0","39274","","160","","","68","38","","","1","38","training","adjacent","CD","3","4","Q.jpg","P.jpg","1","1","1","",""
"","feedback","","html-keyboard-response","251","560598","0.0-1.0-348.0-0.0","0","0","39274","","null","","","null","38","","","","","","","","","","","","","","","",""
"","ITI","","html-keyboard-response","252","561600","0.0-1.0-351.0","0","0","39274","","null","","","null","38","","","","","","","","","","","","","","","NaN",""
"","S1","","html-keyboard-response","253","561751","0.0-1.0-353.0","0","0","39274","","null","","","null","39","","","","","","","","","","","","","","","",""
"","ISI","","html-keyboard-response","254","563753","0.0-1.0-354.0","0","0","39274","","null","","","null","39","NaN","","","","","","","","","","","","","","",""
"","S2","","html-keyboard-response","255","563920","0.0-1.0-355.0","0","0","39274","","null","","","null","39","","NaN","","","","","","","","","","","","","",""
"","response","","html-keyboard-response","256","563964","0.0-1.0-356.0-0.0","0","0","39274","","43","","","68","39","","","1","39","training","adjacent","DE","4","5","P.jpg","O.jpg","1","1","1","",""
"","feedback","","html-keyboard-response","257","564966","0.0-1.0-357.0-0.0","0","0","39274","","null","","","null","39","","","","","","","","","","","","","","","",""
"","ITI","","html-keyboard-response","258","565968","0.0-1.0-360.0","0","0","39274","","null","","","null","39","","","","","","","","","","","","","","","NaN",""
"","S1","","html-keyboard-response","259","566119","0.0-1.0-362.0","0","0","39274","","null","","","null","40","","","","","","","","","","","","","","","",""
"","ISI","","html-keyboard-response","260","568121","0.0-1.0-363.0","0","0","39274","","null","","","null","40","NaN","","","","","","","","","","","","","","",""
"","S2","","html-keyboard-response","261","568273","0.0-1.0-364.0","0","0","39274","","null","","","null","40","","NaN","","","","","","","","","","","","","",""
"","response","","html-keyboard-response","262","568644","0.0-1.0-365.0-0.0","0","0","39274","","370","","","68","40","","","1","40","training","adjacent","BC","2","3","N.jpg","Q.jpg","1","1","1","",""
"","feedback","","html-keyboard-response","263","569646","0.0-1.0-366.0-0.0","0","0","39274","","null","","","null","40","","","","","","","","","","","","","","","",""
"","ITI","","html-keyboard-response","264","570648","0.0-1.0-369.0","0","0","39274","","null","","","null","40","","","","","","","","","","","","","","","NaN",""
"","S1","","html-keyboard-response","265","570799","0.0-1.0-371.0","0","0","39274","","null","","","null","41","","","","","","","","","","","","","","","",""
"","ISI","","html-keyboard-response","266","572801","0.0-1.0-372.0","0","0","39274","","null","","","null","41","NaN","","","","","","","","","","","","","","",""
"","S2","","html-keyboard-response","267","572953","0.0-1.0-373.0","0","0","39274","","null","","","null","41","","NaN","","","","","","","","","","","","","",""
"","response","","html-keyboard-response","268","573044","0.0-1.0-374.0-0.0","0","0","39274","","89","","","68","41","","","1","41","training","adjacent","BC","2","3","N.jpg","Q.jpg","1","1","1","",""
"","feedback","","html-keyboard-response","269","574045","0.0-1.0-375.0-0.0","0","0","39274","","null","","","null","41","","","","","","","","","","","","","","","",""
"","ITI","","html-keyboard-response","270","575047","0.0-1.0-378.0","0","0","39274","","null","","","null","41","","","","","","","","","","","","","","","NaN",""
"","S1","","html-keyboard-response","271","575199","0.0-1.0-380.0","0","0","39274","","null","","","null","42","","","","","","","","","","","","","","","",""
"","ISI","","html-keyboard-response","272","577201","0.0-1.0-381.0","0","0","39274","","null","","","null","42","NaN","","","","","","","","","","","","","","",""
"","S2","","html-keyboard-response","273","577353","0.0-1.0-382.0","0","0","39274","","null","","","null","42","","NaN","","","","","","","","","","","","","",""
"","response","","html-keyboard-response","274","577476","0.0-1.0-383.0-0.0","0","0","39274","","122","","","68","42","","","1","42","training","adjacent","CB","3","2","Q.jpg","N.jpg","1","0","0","",""
"","feedback","","html-keyboard-response","275","578478","0.0-1.0-384.0-0.0","0","0","39274","","null","","","null","42","","","","","","","","","","","","","","","",""
"","time_out","","html-keyboard-response","276","580480","0.0-1.0-386.0-0.0","0","0","39274","","null","","","null","42","","","","","","","","","","","","","","","",""
"","ITI","","html-keyboard-response","277","581482","0.0-1.0-387.0","0","0","39274","","null","","","null","42","","","","","","","","","","","","","","","NaN",""
"","S1","","html-keyboard-response","278","581633","0.0-1.0-389.0","0","0","39274","","null","","","null","43","","","","","","","","","","","","","","","",""
"","ISI","","html-keyboard-response","279","583635","0.0-1.0-390.0","0","0","39274","","null","","","null","43","NaN","","","","","","","","","","","","","","",""
"","S2","","html-keyboard-response","280","583787","0.0-1.0-391.0","0","0","39274","","null","","","null","43","","NaN","","","","","","","","","","","","","",""
"","response","","html-keyboard-response","281","585639","0.0-1.0-392.0-0.0","0","0","39274","","null","","","null","43","","","1","43","training","adjacent","AB","1","2","L.jpg","N.jpg","NaN","1","0","",""
"","too_slow_prompt","","html-keyboard-response","282","586641","0.0-1.0-394.0-0.0","1","0","39274","","null","","","null","","","","","","","","","","","","","","","","",""
"","time_out","","html-keyboard-response","283","588642","0.0-1.0-395.0-0.0","0","0","39274","","null","","","null","43","","","","","","","","","","","","","","","",""
"","ITI","","html-keyboard-response","284","589651","0.0-1.0-396.0","0","0","39274","","null","","","null","43","","","","","","","","","","","","","","","NaN",""
"","S1","","html-keyboard-response","285","589802","0.0-1.0-398.0","0","0","39274","","null","","","null","44","","","","","","","","","","","","","","","",""
"","ISI","","html-keyboard-response","286","591804","0.0-1.0-399.0","0","0","39274","","null","","","null","44","NaN","","","","","","","","","","","","","","",""
"","S2","","html-keyboard-response","287","591956","0.0-1.0-400.0","0","0","39274","","null","","","null","44","","NaN","","","","","","","","","","","","","",""
"","response","","html-keyboard-response","288","592188","0.0-1.0-401.0-0.0","0","0","39274","","230","","","75","44","","","1","44","training","adjacent","CB","3","2","Q.jpg","N.jpg","0","0","1","",""
"","feedback","","html-keyboard-response","289","593189","0.0-1.0-402.0-0.0","0","0","39274","","null","","","null","44","","","","","","","","","","","","","","","",""
"","ITI","","html-keyboard-response","290","594191","0.0-1.0-405.0","0","0","39274","","null","","","null","44","","","","","","","","","","","","","","","NaN",""
"","S1","","html-keyboard-response","291","594343","0.0-1.0-407.0","0","0","39274","","null","","","null","45","","","","","","","","","","","","","","","",""
"","ISI","","html-keyboard-response","292","596345","0.0-1.0-408.0","0","0","39274","","null","","","null","45","NaN","","","","","","","","","","","","","","",""
"","S2","","html-keyboard-response","293","596497","0.0-1.0-409.0","0","0","39274","","null","","","null","45","","NaN","","","","","","","","","","","","","",""
"","response","","html-keyboard-response","294","597180","0.0-1.0-410.0-0.0","0","0","39274","","681","","","75","45","","","1","45","training","adjacent","FE","6","5","R.jpg","O.jpg","0","0","1","",""
"","feedback","","html-keyboard-response","295","598182","0.0-1.0-411.0-0.0","0","0","39274","","null","","","null","45","","","","","","","","","","","","","","","",""
"","ITI","","html-keyboard-response","296","599184","0.0-1.0-414.0","0","0","39274","","null","","","null","45","","","","","","","","","","","","","","","NaN",""
"","S1","","html-keyboard-response","297","599335","0.0-1.0-416.0","0","0","39274","","null","","","null","46","","","","","","","","","","","","","","","",""
"","ISI","","html-keyboard-response","298","601337","0.0-1.0-417.0","0","0","39274","","null","","","null","46","NaN","","","","","","","","","","","","","","",""
"","S2","","html-keyboard-response","299","601489","0.0-1.0-418.0","0","0","39274","","null","","","null","46","","NaN","","","","","","","","","","","","","",""
"","response","","html-keyboard-response","300","601940","0.0-1.0-419.0-0.0","0","0","39274","","450","","","75","46","","","1","46","training","adjacent","DC","4","3","P.jpg","Q.jpg","0","0","1","",""
"","feedback","","html-keyboard-response","301","602942","0.0-1.0-420.0-0.0","0","0","39274","","null","","","null","46","","","","","","","","","","","","","","","",""
"","ITI","","html-keyboard-response","302","603944","0.0-1.0-423.0","0","0","39274","","null","","","null","46","","","","","","","","","","","","","","","NaN",""
"","S1","","html-keyboard-response","303","604096","0.0-1.0-425.0","0","0","39274","","null","","","null","47","","","","","","","","","","","","","","","",""
"","ISI","","html-keyboard-response","304","606097","0.0-1.0-426.0","0","0","39274","","null","","","null","47","NaN","","","","","","","","","","","","","","",""
"","S2","","html-keyboard-response","305","606249","0.0-1.0-427.0","0","0","39274","","null","","","null","47","","NaN","","","","","","","","","","","","","",""
"","response","","html-keyboard-response","306","606596","0.0-1.0-428.0-0.0","0","0","39274","","345","","","75","47","","","1","47","training","adjacent","CB","3","2","Q.jpg","N.jpg","0","0","1","",""
"","feedback","","html-keyboard-response","307","607598","0.0-1.0-429.0-0.0","0","0","39274","","null","","","null","47","","","","","","","","","","","","","","","",""
"","ITI","","html-keyboard-response","308","608599","0.0-1.0-432.0","0","0","39274","","null","","","null","47","","","","","","","","","","","","","","","NaN",""
"","block_over","","html-keyboard-response","309","614484","0.0-1.0-433.0-0.0","0","0","39274","","5883","","","32","47","","","","","","","","","","","","","","","",""
"","S1","","html-keyboard-response","310","614636","0.0-1.0-434.0","0","0","39274","","null","","","null","48","","","","","","","","","","","","","","","",""
"","ISI","","html-keyboard-response","311","616638","0.0-1.0-435.0","0","0","39274","","null","","","null","48","NaN","","","","","","","","","","","","","","",""
"","S2","","html-keyboard-response","312","616790","0.0-1.0-436.0","0","0","39274","","null","","","null","48","","NaN","","","","","","","","","","","","","",""
"","response","","html-keyboard-response","313","617124","0.0-1.0-437.0-0.0","0","0","39274","","333","","","75","48","","","2","48","training","adjacent","DE","4","5","P.jpg","O.jpg","0","1","0","",""
"","feedback","","html-keyboard-response","314","618126","0.0-1.0-438.0-0.0","0","0","39274","","null","","","null","48","","","","","","","","","","","","","","","",""
"","time_out","","html-keyboard-response","315","620128","0.0-1.0-440.0-0.0","0","0","39274","","null","","","null","48","","","","","","","","","","","","","","","",""
"","ITI","","html-keyboard-response","316","621130","0.0-1.0-441.0","0","0","39274","","null","","","null","48","","","","","","","","","","","","","","","NaN",""
"","S1","","html-keyboard-response","317","621281","0.0-1.0-443.0","0","0","39274","","null","","","null","49","","","","","","","","","","","","","","","",""
"","ISI","","html-keyboard-response","318","623283","0.0-1.0-444.0","0","0","39274","","562","","","68","49","d","","","","","","","","","","","","","","",""
"","S2","","html-keyboard-response","319","623435","0.0-1.0-445.0","0","0","39274","","null","","","null","49","","NaN","","","","","","","","","","","","","",""
"","response","","html-keyboard-response","320","623700","0.0-1.0-446.0-0.0","0","0","39274","","264","","","68","49","","","2","49","training","adjacent","AB","1","2","L.jpg","N.jpg","1","1","1","",""
"","feedback","","html-keyboard-response","321","624702","0.0-1.0-447.0-0.0","0","0","39274","","null","","","null","49","","","","","","","","","","","","","","","",""
"","ITI","","html-keyboard-response","322","625704","0.0-1.0-450.0","0","0","39274","","null","","","null","49","","","","","","","","","","","","","","","NaN",""
"","S1","","html-keyboard-response","323","625855","0.0-1.0-452.0","0","0","39274","","null","","","null","50","","","","","","","","","","","","","","","",""
"","ISI","","html-keyboard-response","324","627857","0.0-1.0-453.0","0","0","39274","","null","","","null","50","NaN","","","","","","","","","","","","","","",""
"","S2","","html-keyboard-response","325","628009","0.0-1.0-454.0","0","0","39274","","null","","","null","50","","NaN","","","","","","","","","","","","","",""
"","response","","html-keyboard-response","326","629724","0.0-1.0-455.0-0.0","0","0","39274","","1713","","","68","50","","","2","50","training","adjacent","BA","2","1","N.jpg","L.jpg","1","0","0","",""
"","feedback","","html-keyboard-response","327","630726","0.0-1.0-456.0-0.0","0","0","39274","","null","","","null","50","","","","","","","","","","","","","","","",""
"","time_out","","html-keyboard-response","328","632728","0.0-1.0-458.0-0.0","0","0","39274","","null","","","null","50","","","","","","","","","","","","","","","",""
"","ITI","","html-keyboard-response","329","633738","0.0-1.0-459.0","0","0","39274","","null","","","null","50","","","","","","","","","","","","","","","NaN",""
"","S1","","html-keyboard-response","330","633890","0.0-1.0-461.0","0","0","39274","","null","","","null","51","","","","","","","","","","","","","","","",""
"","ISI","","html-keyboard-response","331","635893","0.0-1.0-462.0","0","0","39274","","null","","","null","51","NaN","","","","","","","","","","","","","","",""
"","S2","","html-keyboard-response","332","636045","0.0-1.0-463.0","0","0","39274","","null","","","null","51","","NaN","","","","","","","","","","","","","",""
"","response","","html-keyboard-response","333","637564","0.0-1.0-464.0-0.0","0","0","39274","","1518","","","75","51","","","2","51","training","adjacent","DC","4","3","P.jpg","Q.jpg","0","0","1","",""
"","feedback","","html-keyboard-response","334","638566","0.0-1.0-465.0-0.0","0","0","39274","","null","","","null","51","","","","","","","","","","","","","","","",""
"","ITI","","html-keyboard-response","335","639568","0.0-1.0-468.0","0","0","39274","","null","","","null","51","","","","","","","","","","","","","","","NaN",""
"","S1","","html-keyboard-response","336","639720","0.0-1.0-470.0","0","0","39274","","null","","","null","52","","","","","","","","","","","","","","","",""
"","ISI","","html-keyboard-response","337","641722","0.0-1.0-471.0","0","0","39274","","null","","","null","52","NaN","","","","","","","","","","","","","","",""
"","S2","","html-keyboard-response","338","641874","0.0-1.0-472.0","0","0","39274","","null","","","null","52","","NaN","","","","","","","","","","","","","",""
"","response","","html-keyboard-response","339","642228","0.0-1.0-473.0-0.0","0","0","39274","","353","","","68","52","","","2","52","training","adjacent","BA","2","1","N.jpg","L.jpg","1","0","0","",""
"","feedback","","html-keyboard-response","340","643230","0.0-1.0-474.0-0.0","0","0","39274","","null","","","null","52","","","","","","","","","","","","","","","",""
"","time_out","","html-keyboard-response","341","645233","0.0-1.0-476.0-0.0","0","0","39274","","null","","","null","52","","","","","","","","","","","","","","","",""
"","ITI","","html-keyboard-response","342","646235","0.0-1.0-477.0","0","0","39274","","null","","","null","52","","","","","","","","","","","","","","","NaN",""
"","S1","","html-keyboard-response","343","646387","0.0-1.0-479.0","0","0","39274","","null","","","null","53","","","","","","","","","","","","","","","",""
"","ISI","","html-keyboard-response","344","648389","0.0-1.0-480.0","0","0","39274","","null","","","null","53","NaN","","","","","","","","","","","","","","",""
"","S2","","html-keyboard-response","345","648541","0.0-1.0-481.0","0","0","39274","","null","","","null","53","","NaN","","","","","","","","","","","","","",""
"","response","","html-keyboard-response","346","648725","0.0-1.0-482.0-0.0","0","0","39274","","182","","","68","53","","","2","53","training","adjacent","GF","7","6","M.jpg","R.jpg","1","0","0","",""
"","feedback","","html-keyboard-response","347","649728","0.0-1.0-483.0-0.0","0","0","39274","","null","","","null","53","","","","","","","","","","","","","","","",""
"","time_out","","html-keyboard-response","348","651730","0.0-1.0-485.0-0.0","0","0","39274","","null","","","null","53","","","","","","","","","","","","","","","",""
"","ITI","","html-keyboard-response","349","652732","0.0-1.0-486.0","0","0","39274","","null","","","null","53","","","","","","","","","","","","","","","NaN",""
"","S1","","html-keyboard-response","350","652884","0.0-1.0-488.0","0","0","39274","","null","","","null","54","","","","","","","","","","","","","","","",""
"","ISI","","html-keyboard-response","351","654885","0.0-1.0-489.0","0","0","39274","","null","","","null","54","NaN","","","","","","","","","","","","","","",""
"","S2","","html-keyboard-response","352","655038","0.0-1.0-490.0","0","0","39274","","null","","","null","54","","NaN","","","","","","","","","","","","","",""
"","response","","html-keyboard-response","353","655356","0.0-1.0-491.0-0.0","0","0","39274","","318","","","68","54","","","2","54","training","adjacent","CD","3","4","Q.jpg","P.jpg","1","1","1","",""
"","feedback","","html-keyboard-response","354","656359","0.0-1.0-492.0-0.0","0","0","39274","","null","","","null","54","","","","","","","","","","","","","","","",""
"","ITI","","html-keyboard-response","355","657361","0.0-1.0-495.0","0","0","39274","","null","","","null","54","","","","","","","","","","","","","","","NaN",""
"","S1","","html-keyboard-response","356","657512","0.0-1.0-497.0","0","0","39274","","null","","","null","55","","","","","","","","","","","","","","","",""
"","ISI","","html-keyboard-response","357","659513","0.0-1.0-498.0","0","0","39274","","null","","","null","55","NaN","","","","","","","","","","","","","","",""
"","S2","","html-keyboard-response","358","659665","0.0-1.0-499.0","0","0","39274","","null","","","null","55","","NaN","","","","","","","","","","","","","",""
"","response","","html-keyboard-response","359","661517","0.0-1.0-500.0-0.0","0","0","39274","","null","","","null","55","","","2","55","training","adjacent","FE","6","5","R.jpg","O.jpg","NaN","0","0","",""
"","too_slow_prompt","","html-keyboard-response","360","662519","0.0-1.0-502.0-0.0","1","0","39274","","null","","","null","","","","","","","","","","","","","","","","",""
"","time_out","","html-keyboard-response","361","664521","0.0-1.0-503.0-0.0","0","0","39274","","null","","","null","55","","","","","","","","","","","","","","","",""
"","ITI","","html-keyboard-response","362","665523","0.0-1.0-504.0","0","0","39274","","626","","","68","55","","","","","","","","","","","","","","","d",""
"","S1","","html-keyboard-response","363","665675","0.0-1.0-506.0","0","0","39274","","null","","","null","56","","","","","","","","","","","","","","","",""
"","ISI","","html-keyboard-response","364","667677","0.0-1.0-507.0","0","0","39274","","129","","","68","56","d","","","","","","","","","","","","","","",""
"","S2","","html-keyboard-response","365","667829","0.0-1.0-508.0","0","0","39274","","null","","","null","56","","NaN","","","","","","","","","","","","","",""
"","response","","html-keyboard-response","366","667948","0.0-1.0-509.0-0.0","0","0","39274","","118","","","68","56","","","2","56","training","adjacent","BC","2","3","N.jpg","Q.jpg","1","1","1","",""
"","feedback","","html-keyboard-response","367","668950","0.0-1.0-510.0-0.0","0","0","39274","","null","","","null","56","","","","","","","","","","","","","","","",""
"","ITI","","html-keyboard-response","368","669952","0.0-1.0-513.0","0","0","39274","","null","","","null","56","","","","","","","","","","","","","","","NaN",""
"","S1","","html-keyboard-response","369","670103","0.0-1.0-515.0","0","0","39274","","null","","","null","57","","","","","","","","","","","","","","","",""
"","ISI","","html-keyboard-response","370","672104","0.0-1.0-516.0","0","0","39274","","null","","","null","57","NaN","","","","","","","","","","","","","","",""
"","S2","","html-keyboard-response","371","672258","0.0-1.0-517.0","0","0","39274","","null","","","null","57","","NaN","","","","","","","","","","","","","",""
"","response","","html-keyboard-response","372","672557","0.0-1.0-518.0-0.0","0","0","39274","","297","","","68","57","","","2","57","training","adjacent","DE","4","5","P.jpg","O.jpg","1","1","1","",""
"","feedback","","html-keyboard-response","373","673559","0.0-1.0-519.0-0.0","0","0","39274","","null","","","null","57","","","","","","","","","","","","","","","",""
"","ITI","","html-keyboard-response","374","674561","0.0-1.0-522.0","0","0","39274","","null","","","null","57","","","","","","","","","","","","","","","NaN",""
"","S1","","html-keyboard-response","375","674712","0.0-1.0-524.0","0","0","39274","","null","","","null","58","","","","","","","","","","","","","","","",""
"","ISI","","html-keyboard-response","376","676714","0.0-1.0-525.0","0","0","39274","","null","","","null","58","NaN","","","","","","","","","","","","","","",""
"","S2","","html-keyboard-response","377","676866","0.0-1.0-526.0","0","0","39274","","null","","","null","58","","NaN","","","","","","","","","","","","","",""
"","response","","html-keyboard-response","378","677452","0.0-1.0-527.0-0.0","0","0","39274","","585","","","68","58","","","2","58","training","adjacent","FG","6","7","R.jpg","M.jpg","1","1","1","",""
"","feedback","","html-keyboard-response","379","678454","0.0-1.0-528.0-0.0","0","0","39274","","null","","","null","58","","","","","","","","","","","","","","","",""
"","ITI","","html-keyboard-response","380","679457","0.0-1.0-531.0","0","0","39274","","null","","","null","58","","","","","","","","","","","","","","","NaN",""
"","S1","","html-keyboard-response","381","679610","0.0-1.0-533.0","0","0","39274","","null","","","null","59","","","","","","","","","","","","","","","",""
"","ISI","","html-keyboard-response","382","681615","0.0-1.0-534.0","0","0","39274","","null","","","null","59","NaN","","","","","","","","","","","","","","",""
"","S2","","html-keyboard-response","383","681768","0.0-1.0-535.0","0","0","39274","","null","","","null","59","","NaN","","","","","","","","","","","","","",""
"","response","","html-keyboard-response","384","682412","0.0-1.0-536.0-0.0","0","0","39274","","644","","","68","59","","","2","59","training","adjacent","ED","5","4","O.jpg","P.jpg","1","0","0","",""
"","feedback","","html-keyboard-response","385","683415","0.0-1.0-537.0-0.0","0","0","39274","","null","","","null","59","","","","","","","","","","","","","","","",""
"","time_out","","html-keyboard-response","386","685417","0.0-1.0-539.0-0.0","0","0","39274","","null","","","null","59","","","","","","","","","","","","","","","",""
"","ITI","","html-keyboard-response","387","686419","0.0-1.0-540.0","0","0","39274","","null","","","null","59","","","","","","","","","","","","","","","NaN",""
"","S1","","html-keyboard-response","388","686570","0.0-1.0-542.0","0","0","39274","","null","","","null","60","","","","","","","","","","","","","","","",""
"","ISI","","html-keyboard-response","389","688572","0.0-1.0-543.0","0","0","39274","","null","","","null","60","NaN","","","","","","","","","","","","","","",""
"","S2","","html-keyboard-response","390","688725","0.0-1.0-544.0","0","0","39274","","null","","","null","60","","NaN","","","","","","","","","","","","","",""
"","response","","html-keyboard-response","391","689020","0.0-1.0-545.0-0.0","0","0","39274","","294","","","68","60","","","2","60","training","adjacent","AB","1","2","L.jpg","N.jpg","1","1","1","",""
"","feedback","","html-keyboard-response","392","690022","0.0-1.0-546.0-0.0","0","0","39274","","null","","","null","60","","","","","","","","","","","","","","","",""
"","ITI","","html-keyboard-response","393","691025","0.0-1.0-549.0","0","0","39274","","null","","","null","60","","","","","","","","","","","","","","","NaN",""
"","S1","","html-keyboard-response","394","691177","0.0-1.0-551.0","0","0","39274","","null","","","null","61","","","","","","","","","","","","","","","",""
"","ISI","","html-keyboard-response","395","693178","0.0-1.0-552.0","0","0","39274","","null","","","null","61","NaN","","","","","","","","","","","","","","",""
"","S2","","html-keyboard-response","396","693332","0.0-1.0-553.0","0","0","39274","","null","","","null","61","","NaN","","","","","","","","","","","","","",""
"","response","","html-keyboard-response","397","695185","0.0-1.0-554.0-0.0","0","0","39274","","null","","","null","61","","","2","61","training","adjacent","GF","7","6","M.jpg","R.jpg","NaN","0","0","",""
"","too_slow_prompt","","html-keyboard-response","398","696187","0.0-1.0-556.0-0.0","1","0","39274","","null","","","null","","","","","","","","","","","","","","","","",""
"","time_out","","html-keyboard-response","399","698189","0.0-1.0-557.0-0.0","0","0","39274","","null","","","null","61","","","","","","","","","","","","","","","",""
"","ITI","","html-keyboard-response","400","699191","0.0-1.0-558.0","0","0","39274","","null","","","null","61","","","","","","","","","","","","","","","NaN",""
"","S1","","html-keyboard-response","401","699342","0.0-1.0-560.0","0","0","39274","","null","","","null","62","","","","","","","","","","","","","","","",""
"","ISI","","html-keyboard-response","402","701343","0.0-1.0-561.0","0","0","39274","","null","","","null","62","NaN","","","","","","","","","","","","","","",""
"","S2","","html-keyboard-response","403","701496","0.0-1.0-562.0","0","0","39274","","null","","","null","62","","NaN","","","","","","","","","","","","","",""
"","response","","html-keyboard-response","404","701844","0.0-1.0-563.0-0.0","0","0","39274","","348","","","68","62","","","2","62","training","adjacent","ED","5","4","O.jpg","P.jpg","1","0","0","",""
"","feedback","","html-keyboard-response","405","702846","0.0-1.0-564.0-0.0","0","0","39274","","null","","","null","62","","","","","","","","","","","","","","","",""
"","time_out","","html-keyboard-response","406","704848","0.0-1.0-566.0-0.0","0","0","39274","","null","","","null","62","","","","","","","","","","","","","","","",""
"","ITI","","html-keyboard-response","407","705850","0.0-1.0-567.0","0","0","39274","","null","","","null","62","","","","","","","","","","","","","","","NaN",""
"","S1","","html-keyboard-response","408","706001","0.0-1.0-569.0","0","0","39274","","null","","","null","63","","","","","","","","","","","","","","","",""
"","ISI","","html-keyboard-response","409","708003","0.0-1.0-570.0","0","0","39274","","195","","","68","63","d","","","","","","","","","","","","","","",""
"","S2","","html-keyboard-response","410","708155","0.0-1.0-571.0","0","0","39274","","null","","","null","63","","NaN","","","","","","","","","","","","","",""
"","response","","html-keyboard-response","411","708404","0.0-1.0-572.0-0.0","0","0","39274","","249","","","68","63","","","2","63","training","adjacent","DE","4","5","P.jpg","O.jpg","1","1","1","",""
"","feedback","","html-keyboard-response","412","709406","0.0-1.0-573.0-0.0","0","0","39274","","null","","","null","63","","","","","","","","","","","","","","","",""
"","ITI","","html-keyboard-response","413","710409","0.0-1.0-576.0","0","0","39274","","null","","","null","63","","","","","","","","","","","","","","","NaN",""
"","S1","","html-keyboard-response","414","710561","0.0-1.0-578.0","0","0","39274","","null","","","null","64","","","","","","","","","","","","","","","",""
"","ISI","","html-keyboard-response","415","712562","0.0-1.0-579.0","0","0","39274","","null","","","null","64","NaN","","","","","","","","","","","","","","",""
"","S2","","html-keyboard-response","416","712714","0.0-1.0-580.0","0","0","39274","","null","","","null","64","","NaN","","","","","","","","","","","","","",""
"","response","","html-keyboard-response","417","712885","0.0-1.0-581.0-0.0","0","0","39274","","169","","","68","64","","","2","64","training","adjacent","BC","2","3","N.jpg","Q.jpg","1","1","1","",""
"","feedback","","html-keyboard-response","418","713887","0.0-1.0-582.0-0.0","0","0","39274","","null","","","null","64","","","","","","","","","","","","","","","",""
"","ITI","","html-keyboard-response","419","714888","0.0-1.0-585.0","0","0","39274","","null","","","null","64","","","","","","","","","","","","","","","NaN",""
"","S1","","html-keyboard-response","420","715042","0.0-1.0-587.0","0","0","39274","","null","","","null","65","","","","","","","","","","","","","","","",""
"","ISI","","html-keyboard-response","421","717044","0.0-1.0-588.0","0","0","39274","","null","","","null","65","NaN","","","","","","","","","","","","","","",""
"","S2","","html-keyboard-response","422","717197","0.0-1.0-589.0","0","0","39274","","null","","","null","65","","NaN","","","","","","","","","","","","","",""
"","response","","html-keyboard-response","423","717396","0.0-1.0-590.0-0.0","0","0","39274","","199","","","68","65","","","2","65","training","adjacent","BC","2","3","N.jpg","Q.jpg","1","1","1","",""
"","feedback","","html-keyboard-response","424","718398","0.0-1.0-591.0-0.0","0","0","39274","","null","","","null","65","","","","","","","","","","","","","","","",""
"","ITI","","html-keyboard-response","425","719400","0.0-1.0-594.0","0","0","39274","","null","","","null","65","","","","","","","","","","","","","","","NaN",""
"","S1","","html-keyboard-response","426","719552","0.0-1.0-596.0","0","0","39274","","null","","","null","66","","","","","","","","","","","","","","","",""
"","ISI","","html-keyboard-response","427","721553","0.0-1.0-597.0","0","0","39274","","null","","","null","66","NaN","","","","","","","","","","","","","","",""
"","S2","","html-keyboard-response","428","721706","0.0-1.0-598.0","0","0","39274","","null","","","null","66","","NaN","","","","","","","","","","","","","",""
"","response","","html-keyboard-response","429","722444","0.0-1.0-599.0-0.0","0","0","39274","","738","","","68","66","","","2","66","training","adjacent","CB","3","2","Q.jpg","N.jpg","1","0","0","",""
"","feedback","","html-keyboard-response","430","723449","0.0-1.0-600.0-0.0","0","0","39274","","null","","","null","66","","","","","","","","","","","","","","","",""
"","time_out","","html-keyboard-response","431","725451","0.0-1.0-602.0-0.0","0","0","39274","","null","","","null","66","","","","","","","","","","","","","","","",""
"","ITI","","html-keyboard-response","432","726453","0.0-1.0-603.0","0","0","39274","","null","","","null","66","","","","","","","","","","","","","","","NaN",""
"","S1","","html-keyboard-response","433","726604","0.0-1.0-605.0","0","0","39274","","null","","","null","67","","","","","","","","","","","","","","","",""
"","ISI","","html-keyboard-response","434","728606","0.0-1.0-606.0","0","0","39274","","368","","","68","67","d","","","","","","","","","","","","","","",""
"","S2","","html-keyboard-response","435","728760","0.0-1.0-607.0","0","0","39274","","null","","","null","67","","NaN","","","","","","","","","","","","","",""
"","response","","html-keyboard-response","436","729052","0.0-1.0-608.0-0.0","0","0","39274","","291","","","68","67","","","2","67","training","adjacent","AB","1","2","L.jpg","N.jpg","1","1","1","",""
"","feedback","","html-keyboard-response","437","730054","0.0-1.0-609.0-0.0","0","0","39274","","null","","","null","67","","","","","","","","","","","","","","","",""
"","ITI","","html-keyboard-response","438","731056","0.0-1.0-612.0","0","0","39274","","null","","","null","67","","","","","","","","","","","","","","","NaN",""
"","S1","","html-keyboard-response","439","731208","0.0-1.0-614.0","0","0","39274","","null","","","null","68","","","","","","","","","","","","","","","",""
"","ISI","","html-keyboard-response","440","733210","0.0-1.0-615.0","0","0","39274","","null","","","null","68","NaN","","","","","","","","","","","","","","",""
"","S2","","html-keyboard-response","441","733363","0.0-1.0-616.0","0","0","39274","","null","","","null","68","","NaN","","","","","","","","","","","","","",""
"","response","","html-keyboard-response","442","734404","0.0-1.0-617.0-0.0","0","0","39274","","1041","","","68","68","","","2","68","training","adjacent","FE","6","5","R.jpg","O.jpg","1","0","0","",""
"","feedback","","html-keyboard-response","443","735410","0.0-1.0-618.0-0.0","0","0","39274","","null","","","null","68","","","","","","","","","","","","","","","",""
"","time_out","","html-keyboard-response","444","737411","0.0-1.0-620.0-0.0","0","0","39274","","null","","","null","68","","","","","","","","","","","","","","","",""
"","ITI","","html-keyboard-response","445","738413","0.0-1.0-621.0","0","0","39274","","null","","","null","68","","","","","","","","","","","","","","","NaN",""
"","S1","","html-keyboard-response","446","738580","0.0-1.0-623.0","0","0","39274","","null","","","null","69","","","","","","","","","","","","","","","",""
"","ISI","","html-keyboard-response","447","740582","0.0-1.0-624.0","0","0","39274","","1783","","","68","69","d","","","","","","","","","","","","","","",""
"","S2","","html-keyboard-response","448","740734","0.0-1.0-625.0","0","0","39274","","null","","","null","69","","NaN","","","","","","","","","","","","","",""
"","response","","html-keyboard-response","449","740909","0.0-1.0-626.0-0.0","0","0","39274","","173","","","68","69","","","2","69","training","adjacent","CB","3","2","Q.jpg","N.jpg","1","0","0","",""
"","feedback","","html-keyboard-response","450","741911","0.0-1.0-627.0-0.0","0","0","39274","","null","","","null","69","","","","","","","","","","","","","","","",""
"","time_out","","html-keyboard-response","451","743913","0.0-1.0-629.0-0.0","0","0","39274","","null","","","null","69","","","","","","","","","","","","","","","",""
"","ITI","","html-keyboard-response","452","744915","0.0-1.0-630.0","0","0","39274","","null","","","null","69","","","","","","","","","","","","","","","NaN",""
"","S1","","html-keyboard-response","453","745066","0.0-1.0-632.0","0","0","39274","","null","","","null","70","","","","","","","","","","","","","","","",""
"","ISI","","html-keyboard-response","454","747068","0.0-1.0-633.0","0","0","39274","","null","","","null","70","NaN","","","","","","","","","","","","","","",""
"","S2","","html-keyboard-response","455","747220","0.0-1.0-634.0","0","0","39274","","null","","","null","70","","NaN","","","","","","","","","","","","","",""
"","response","","html-keyboard-response","456","748004","0.0-1.0-635.0-0.0","0","0","39274","","784","","","68","70","","","2","70","training","adjacent","EF","5","6","O.jpg","R.jpg","1","1","1","",""
"","feedback","","html-keyboard-response","457","749008","0.0-1.0-636.0-0.0","0","0","39274","","null","","","null","70","","","","","","","","","","","","","","","",""
"","ITI","","html-keyboard-response","458","750010","0.0-1.0-639.0","0","0","39274","","null","","","null","70","","","","","","","","","","","","","","","NaN",""
"","S1","","html-keyboard-response","459","750162","0.0-1.0-641.0","0","0","39274","","null","","","null","71","","","","","","","","","","","","","","","",""
"","ISI","","html-keyboard-response","460","752164","0.0-1.0-642.0","0","0","39274","","null","","","null","71","NaN","","","","","","","","","","","","","","",""
"","S2","","html-keyboard-response","461","752316","0.0-1.0-643.0","0","0","39274","","null","","","null","71","","NaN","","","","","","","","","","","","","",""
"","response","","html-keyboard-response","462","754168","0.0-1.0-644.0-0.0","0","0","39274","","null","","","null","71","","","2","71","training","adjacent","CD","3","4","Q.jpg","P.jpg","NaN","1","0","",""
"","too_slow_prompt","","html-keyboard-response","463","755170","0.0-1.0-646.0-0.0","1","0","39274","","null","","","null","","","","","","","","","","","","","","","","",""
"","time_out","","html-keyboard-response","464","757171","0.0-1.0-647.0-0.0","0","0","39274","","null","","","null","71","","","","","","","","","","","","","","","",""
"","ITI","","html-keyboard-response","465","758174","0.0-1.0-648.0","0","0","39274","","248","","","68","71","","","","","","","","","","","","","","","d",""
"","S1","","html-keyboard-response","466","758325","0.0-1.0-650.0","0","0","39274","","null","","","null","72","","","","","","","","","","","","","","","",""
"","ISI","","html-keyboard-response","467","760327","0.0-1.0-651.0","0","0","39274","","null","","","null","72","NaN","","","","","","","","","","","","","","",""
"","S2","","html-keyboard-response","468","760479","0.0-1.0-652.0","0","0","39274","","null","","","null","72","","NaN","","","","","","","","","","","","","",""
"","response","","html-keyboard-response","469","762331","0.0-1.0-653.0-0.0","0","0","39274","","null","","","null","72","","","2","72","training","adjacent","EF","5","6","O.jpg","R.jpg","NaN","1","0","",""
"","too_slow_prompt","","html-keyboard-response","470","763333","0.0-1.0-655.0-0.0","1","0","39274","","null","","","null","","","","","","","","","","","","","","","","",""
"","time_out","","html-keyboard-response","471","765335","0.0-1.0-656.0-0.0","0","0","39274","","null","","","null","72","","","","","","","","","","","","","","","",""
"","ITI","","html-keyboard-response","472","766337","0.0-1.0-657.0","0","0","39274","","null","","","null","72","","","","","","","","","","","","","","","NaN",""
"","S1","","html-keyboard-response","473","766489","0.0-1.0-659.0","0","0","39274","","null","","","null","73","","","","","","","","","","","","","","","",""
"","ISI","","html-keyboard-response","474","768492","0.0-1.0-660.0","0","0","39274","","null","","","null","73","NaN","","","","","","","","","","","","","","",""
"","S2","","html-keyboard-response","475","768644","0.0-1.0-661.0","0","0","39274","","null","","","null","73","","NaN","","","","","","","","","","","","","",""
"","response","","html-keyboard-response","476","768893","0.0-1.0-662.0-0.0","0","0","39274","","247","","","68","73","","","2","73","training","adjacent","DC","4","3","P.jpg","Q.jpg","1","0","0","",""
"","feedback","","html-keyboard-response","477","769895","0.0-1.0-663.0-0.0","0","0","39274","","null","","","null","73","","","","","","","","","","","","","","","",""
"","time_out","","html-keyboard-response","478","771897","0.0-1.0-665.0-0.0","0","0","39274","","null","","","null","73","","","","","","","","","","","","","","","",""
"","ITI","","html-keyboard-response","479","772899","0.0-1.0-666.0","0","0","39274","","null","","","null","73","","","","","","","","","","","","","","","NaN",""
"","S1","","html-keyboard-response","480","773051","0.0-1.0-668.0","0","0","39274","","null","","","null","74","","","","","","","","","","","","","","","",""
"","ISI","","html-keyboard-response","481","775053","0.0-1.0-669.0","0","0","39274","","353","","","68","74","d","","","","","","","","","","","","","","",""
"","S2","","html-keyboard-response","482","775205","0.0-1.0-670.0","0","0","39274","","null","","","null","74","","NaN","","","","","","","","","","","","","",""
"","response","","html-keyboard-response","483","775380","0.0-1.0-671.0-0.0","0","0","39274","","175","","","68","74","","","2","74","training","adjacent","BA","2","1","N.jpg","L.jpg","1","0","0","",""
"","feedback","","html-keyboard-response","484","776397","0.0-1.0-672.0-0.0","0","0","39274","","null","","","null","74","","","","","","","","","","","","","","","",""
"","time_out","","html-keyboard-response","485","778399","0.0-1.0-674.0-0.0","0","0","39274","","null","","","null","74","","","","","","","","","","","","","","","",""
"","ITI","","html-keyboard-response","486","779401","0.0-1.0-675.0","0","0","39274","","null","","","null","74","","","","","","","","","","","","","","","NaN",""
"","S1","","html-keyboard-response","487","779553","0.0-1.0-677.0","0","0","39274","","null","","","null","75","","","","","","","","","","","","","","","",""
"","ISI","","html-keyboard-response","488","781554","0.0-1.0-678.0","0","0","39274","","267","","","68","75","d","","","","","","","","","","","","","","",""
"","S2","","html-keyboard-response","489","781708","0.0-1.0-679.0","0","0","39274","","null","","","null","75","","NaN","","","","","","","","","","","","","",""
"","response","","html-keyboard-response","490","781820","0.0-1.0-680.0-0.0","0","0","39274","","111","","","68","75","","","2","75","training","adjacent","ED","5","4","O.jpg","P.jpg","1","0","0","",""
"","feedback","","html-keyboard-response","491","782823","0.0-1.0-681.0-0.0","0","0","39274","","null","","","null","75","","","","","","","","","","","","","","","",""
"","time_out","","html-keyboard-response","492","784824","0.0-1.0-683.0-0.0","0","0","39274","","null","","","null","75","","","","","","","","","","","","","","","",""
"","ITI","","html-keyboard-response","493","785828","0.0-1.0-684.0","0","0","39274","","null","","","null","75","","","","","","","","","","","","","","","NaN",""
"","S1","","html-keyboard-response","494","785979","0.0-1.0-686.0","0","0","39274","","null","","","null","76","","","","","","","","","","","","","","","",""
"","ISI","","html-keyboard-response","495","787981","0.0-1.0-687.0","0","0","39274","","200","","","68","76","d","","","","","","","","","","","","","","",""
"","S2","","html-keyboard-response","496","788133","0.0-1.0-688.0","0","0","39274","","null","","","null","76","","NaN","","","","","","","","","","","","","",""
"","response","","html-keyboard-response","497","788285","0.0-1.0-689.0-0.0","0","0","39274","","151","","","68","76","","","2","76","training","adjacent","FG","6","7","R.jpg","M.jpg","1","1","1","",""
"","feedback","","html-keyboard-response","498","789287","0.0-1.0-690.0-0.0","0","0","39274","","null","","","null","76","","","","","","","","","","","","","","","",""
"","ITI","","html-keyboard-response","499","790289","0.0-1.0-693.0","0","0","39274","","null","","","null","76","","","","","","","","","","","","","","","NaN",""
"","S1","","html-keyboard-response","500","790441","0.0-1.0-695.0","0","0","39274","","null","","","null","77","","","","","","","","","","","","","","","",""
"","ISI","","html-keyboard-response","501","792443","0.0-1.0-696.0","0","0","39274","","null","","","null","77","NaN","","","","","","","","","","","","","","",""
"","S2","","html-keyboard-response","502","792611","0.0-1.0-697.0","0","0","39274","","null","","","null","77","","NaN","","","","","","","","","","","","","",""
"","response","","html-keyboard-response","503","793077","0.0-1.0-698.0-0.0","0","0","39274","","465","","","68","77","","","2","77","training","adjacent","ED","5","4","O.jpg","P.jpg","1","0","0","",""
"","feedback","","html-keyboard-response","504","794079","0.0-1.0-699.0-0.0","0","0","39274","","null","","","null","77","","","","","","","","","","","","","","","",""
"","time_out","","html-keyboard-response","505","796081","0.0-1.0-701.0-0.0","0","0","39274","","null","","","null","77","","","","","","","","","","","","","","","",""
"","ITI","","html-keyboard-response","506","797083","0.0-1.0-702.0","0","0","39274","","null","","","null","77","","","","","","","","","","","","","","","NaN",""
"","S1","","html-keyboard-response","507","797235","0.0-1.0-704.0","0","0","39274","","null","","","null","78","","","","","","","","","","","","","","","",""
"","ISI","","html-keyboard-response","508","799237","0.0-1.0-705.0","0","0","39274","","1913","","","68","78","d","","","","","","","","","","","","","","",""
"","S2","","html-keyboard-response","509","799389","0.0-1.0-706.0","0","0","39274","","null","","","null","78","","NaN","","","","","","","","","","","","","",""
"","response","","html-keyboard-response","510","800421","0.0-1.0-707.0-0.0","0","0","39274","","1031","","","68","78","","","2","78","training","adjacent","CB","3","2","Q.jpg","N.jpg","1","0","0","",""
"","feedback","","html-keyboard-response","511","801423","0.0-1.0-708.0-0.0","0","0","39274","","null","","","null","78","","","","","","","","","","","","","","","",""
"","time_out","","html-keyboard-response","512","803425","0.0-1.0-710.0-0.0","0","0","39274","","null","","","null","78","","","","","","","","","","","","","","","",""
"","ITI","","html-keyboard-response","513","804427","0.0-1.0-711.0","0","0","39274","","null","","","null","78","","","","","","","","","","","","","","","NaN",""
"","S1","","html-keyboard-response","514","804579","0.0-1.0-713.0","0","0","39274","","null","","","null","79","","","","","","","","","","","","","","","",""
"","ISI","","html-keyboard-response","515","806581","0.0-1.0-714.0","0","0","39274","","257","","","68","79","d","","","","","","","","","","","","","","",""
"","S2","","html-keyboard-response","516","806733","0.0-1.0-715.0","0","0","39274","","null","","","null","79","","NaN","","","","","","","","","","","","","",""
"","response","","html-keyboard-response","517","807117","0.0-1.0-716.0-0.0","0","0","39274","","383","","","68","79","","","2","79","training","adjacent","DE","4","5","P.jpg","O.jpg","1","1","1","",""
"","feedback","","html-keyboard-response","518","808120","0.0-1.0-717.0-0.0","0","0","39274","","null","","","null","79","","","","","","","","","","","","","","","",""
"","ITI","","html-keyboard-response","519","809121","0.0-1.0-720.0","0","0","39274","","null","","","null","79","","","","","","","","","","","","","","","NaN",""
"","S1","","html-keyboard-response","520","809274","0.0-1.0-722.0","0","0","39274","","null","","","null","80","","","","","","","","","","","","","","","",""
"","ISI","","html-keyboard-response","521","811276","0.0-1.0-723.0","0","0","39274","","618","","","68","80","d","","","","","","","","","","","","","","",""
"","S2","","html-keyboard-response","522","811428","0.0-1.0-724.0","0","0","39274","","null","","","null","80","","NaN","","","","","","","","","","","","","",""
"","response","","html-keyboard-response","523","812117","0.0-1.0-725.0-0.0","0","0","39274","","688","","","68","80","","","2","80","training","adjacent","FE","6","5","R.jpg","O.jpg","1","0","0","",""
"","feedback","","html-keyboard-response","524","813119","0.0-1.0-726.0-0.0","0","0","39274","","null","","","null","80","","","","","","","","","","","","","","","",""
"","time_out","","html-keyboard-response","525","815120","0.0-1.0-728.0-0.0","0","0","39274","","null","","","null","80","","","","","","","","","","","","","","","",""
"","ITI","","html-keyboard-response","526","816124","0.0-1.0-729.0","0","0","39274","","null","","","null","80","","","","","","","","","","","","","","","NaN",""
"","S1","","html-keyboard-response","527","816276","0.0-1.0-731.0","0","0","39274","","null","","","null","81","","","","","","","","","","","","","","","",""
"","ISI","","html-keyboard-response","528","818278","0.0-1.0-732.0","0","0","39274","","null","","","null","81","NaN","","","","","","","","","","","","","","",""
"","S2","","html-keyboard-response","529","818430","0.0-1.0-733.0","0","0","39274","","null","","","null","81","","NaN","","","","","","","","","","","","","",""
"","response","","html-keyboard-response","530","818949","0.0-1.0-734.0-0.0","0","0","39274","","517","","","75","81","","","2","81","training","adjacent","BA","2","1","N.jpg","L.jpg","0","0","1","",""
"","feedback","","html-keyboard-response","531","819950","0.0-1.0-735.0-0.0","0","0","39274","","null","","","null","81","","","","","","","","","","","","","","","",""
"","ITI","","html-keyboard-response","532","820952","0.0-1.0-738.0","0","0","39274","","null","","","null","81","","","","","","","","","","","","","","","NaN",""
"","S1","","html-keyboard-response","533","821104","0.0-1.0-740.0","0","0","39274","","null","","","null","82","","","","","","","","","","","","","","","",""
"","ISI","","html-keyboard-response","534","823108","0.0-1.0-741.0","0","0","39274","","null","","","null","82","NaN","","","","","","","","","","","","","","",""
"","S2","","html-keyboard-response","535","823260","0.0-1.0-742.0","0","0","39274","","null","","","null","82","","NaN","","","","","","","","","","","","","",""
"","response","","html-keyboard-response","536","823645","0.0-1.0-743.0-0.0","0","0","39274","","384","","","75","82","","","2","82","training","adjacent","EF","5","6","O.jpg","R.jpg","0","1","0","",""
"","feedback","","html-keyboard-response","537","824652","0.0-1.0-744.0-0.0","0","0","39274","","null","","","null","82","","","","","","","","","","","","","","","",""
"","time_out","","html-keyboard-response","538","826653","0.0-1.0-746.0-0.0","0","0","39274","","null","","","null","82","","","","","","","","","","","","","","","",""
"","ITI","","html-keyboard-response","539","827660","0.0-1.0-747.0","0","0","39274","","null","","","null","82","","","","","","","","","","","","","","","NaN",""
"","S1","","html-keyboard-response","540","827812","0.0-1.0-749.0","0","0","39274","","null","","","null","83","","","","","","","","","","","","","","","",""
"","ISI","","html-keyboard-response","541","829814","0.0-1.0-750.0","0","0","39274","","null","","","null","83","NaN","","","","","","","","","","","","","","",""
"","S2","","html-keyboard-response","542","829967","0.0-1.0-751.0","0","0","39274","","null","","","null","83","","NaN","","","","","","","","","","","","","",""
"","response","","html-keyboard-response","543","830197","0.0-1.0-752.0-0.0","0","0","39274","","229","","","75","83","","","2","83","training","adjacent","CB","3","2","Q.jpg","N.jpg","0","0","1","",""
"","feedback","","html-keyboard-response","544","831199","0.0-1.0-753.0-0.0","0","0","39274","","null","","","null","83","","","","","","","","","","","","","","","",""
"","ITI","","html-keyboard-response","545","832200","0.0-1.0-756.0","0","0","39274","","null","","","null","83","","","","","","","","","","","","","","","NaN",""
"","S1","","html-keyboard-response","546","832352","0.0-1.0-758.0","0","0","39274","","null","","","null","84","","","","","","","","","","","","","","","",""
"","ISI","","html-keyboard-response","547","834354","0.0-1.0-759.0","0","0","39274","","null","","","null","84","NaN","","","","","","","","","","","","","","",""
"","S2","","html-keyboard-response","548","834507","0.0-1.0-760.0","0","0","39274","","null","","","null","84","","NaN","","","","","","","","","","","","","",""
"","response","","html-keyboard-response","549","835205","0.0-1.0-761.0-0.0","0","0","39274","","697","","","75","84","","","2","84","training","adjacent","DC","4","3","P.jpg","Q.jpg","0","0","1","",""
"","feedback","","html-keyboard-response","550","836208","0.0-1.0-762.0-0.0","0","0","39274","","null","","","null","84","","","","","","","","","","","","","","","",""
"","ITI","","html-keyboard-response","551","837211","0.0-1.0-765.0","0","0","39274","","null","","","null","84","","","","","","","","","","","","","","","NaN",""
"","S1","","html-keyboard-response","552","837363","0.0-1.0-767.0","0","0","39274","","null","","","null","85","","","","","","","","","","","","","","","",""
"","ISI","","html-keyboard-response","553","839364","0.0-1.0-768.0","0","0","39274","","null","","","null","85","NaN","","","","","","","","","","","","","","",""
"","S2","","html-keyboard-response","554","839517","0.0-1.0-769.0","0","0","39274","","null","","","null","85","","NaN","","","","","","","","","","","","","",""
"","response","","html-keyboard-response","555","839781","0.0-1.0-770.0-0.0","0","0","39274","","263","","","75","85","","","2","85","training","adjacent","EF","5","6","O.jpg","R.jpg","0","1","0","",""
"","feedback","","html-keyboard-response","556","840783","0.0-1.0-771.0-0.0","0","0","39274","","null","","","null","85","","","","","","","","","","","","","","","",""
"","time_out","","html-keyboard-response","557","842785","0.0-1.0-773.0-0.0","0","0","39274","","null","","","null","85","","","","","","","","","","","","","","","",""
"","ITI","","html-keyboard-response","558","843787","0.0-1.0-774.0","0","0","39274","","null","","","null","85","","","","","","","","","","","","","","","NaN",""
"","S1","","html-keyboard-response","559","843940","0.0-1.0-776.0","0","0","39274","","null","","","null","86","","","","","","","","","","","","","","","",""
"","ISI","","html-keyboard-response","560","845942","0.0-1.0-777.0","0","0","39274","","null","","","null","86","NaN","","","","","","","","","","","","","","",""
"","S2","","html-keyboard-response","561","846094","0.0-1.0-778.0","0","0","39274","","null","","","null","86","","NaN","","","","","","","","","","","","","",""
"","response","","html-keyboard-response","562","846278","0.0-1.0-779.0-0.0","0","0","39274","","182","","","75","86","","","2","86","training","adjacent","DC","4","3","P.jpg","Q.jpg","0","0","1","",""
"","feedback","","html-keyboard-response","563","847291","0.0-1.0-780.0-0.0","0","0","39274","","null","","","null","86","","","","","","","","","","","","","","","",""
"","ITI","","html-keyboard-response","564","848293","0.0-1.0-783.0","0","0","39274","","null","","","null","86","","","","","","","","","","","","","","","NaN",""
"","S1","","html-keyboard-response","565","848450","0.0-1.0-785.0","0","0","39274","","null","","","null","87","","","","","","","","","","","","","","","",""
"","ISI","","html-keyboard-response","566","850453","0.0-1.0-786.0","0","0","39274","","null","","","null","87","NaN","","","","","","","","","","","","","","",""
"","S2","","html-keyboard-response","567","850605","0.0-1.0-787.0","0","0","39274","","null","","","null","87","","NaN","","","","","","","","","","","","","",""
"","response","","html-keyboard-response","568","851701","0.0-1.0-788.0-0.0","0","0","39274","","1094","","","75","87","","","2","87","training","adjacent","GF","7","6","M.jpg","R.jpg","0","0","1","",""
"","feedback","","html-keyboard-response","569","852703","0.0-1.0-789.0-0.0","0","0","39274","","null","","","null","87","","","","","","","","","","","","","","","",""
"","ITI","","html-keyboard-response","570","853704","0.0-1.0-792.0","0","0","39274","","null","","","null","87","","","","","","","","","","","","","","","NaN",""
"","S1","","html-keyboard-response","571","853857","0.0-1.0-794.0","0","0","39274","","null","","","null","88","","","","","","","","","","","","","","","",""
"","ISI","","html-keyboard-response","572","855858","0.0-1.0-795.0","0","0","39274","","null","","","null","88","NaN","","","","","","","","","","","","","","",""
"","S2","","html-keyboard-response","573","856011","0.0-1.0-796.0","0","0","39274","","null","","","null","88","","NaN","","","","","","","","","","","","","",""
"","response","","html-keyboard-response","574","856758","0.0-1.0-797.0-0.0","0","0","39274","","746","","","75","88","","","2","88","training","adjacent","BC","2","3","N.jpg","Q.jpg","0","1","0","",""
"","feedback","","html-keyboard-response","575","857760","0.0-1.0-798.0-0.0","0","0","39274","","null","","","null","88","","","","","","","","","","","","","","","",""
"","time_out","","html-keyboard-response","576","859762","0.0-1.0-800.0-0.0","0","0","39274","","null","","","null","88","","","","","","","","","","","","","","","",""
"","ITI","","html-keyboard-response","577","860769","0.0-1.0-801.0","0","0","39274","","null","","","null","88","","","","","","","","","","","","","","","NaN",""
"","S1","","html-keyboard-response","578","860921","0.0-1.0-803.0","0","0","39274","","null","","","null","89","","","","","","","","","","","","","","","",""
"","ISI","","html-keyboard-response","579","862923","0.0-1.0-804.0","0","0","39274","","null","","","null","89","NaN","","","","","","","","","","","","","","",""
"","S2","","html-keyboard-response","580","863089","0.0-1.0-805.0","0","0","39274","","null","","","null","89","","NaN","","","","","","","","","","","","","",""
"","response","","html-keyboard-response","581","863797","0.0-1.0-806.0-0.0","0","0","39274","","706","","","75","89","","","2","89","training","adjacent","CD","3","4","Q.jpg","P.jpg","0","1","0","",""
"","feedback","","html-keyboard-response","582","864799","0.0-1.0-807.0-0.0","0","0","39274","","null","","","null","89","","","","","","","","","","","","","","","",""
