"success","ttype","start_time","trial_type","trial_index","time_elapsed","internal_node_id","warning","missed_checkup","PID","view_history","rt","responses","repeat_instructions","key_press","index","keypress_isi","keypress_S2","block","trial_num","phase","group_type","pair_type","S1_stim","S2_stim","S1_img","S2_img","S1_chosen","S1_higher","accuracy","keypress_iti","total_bonus_tally"
"true","full_screen","d07282022hr1835","fullscreen","0","14218","0.0-0.0","0","0","96828","","","","","","","","","","","","","","","","","","","","","",""
"","instructions","","instructions","1","33059","0.0-1.0-0.0-0.0","0","0","96828","[{""page_index"":0,""viewing_time"":3404},{""page_index"":1,""viewing_time"":8146},{""page_index"":2,""viewing_time"":6064},{""page_index"":3,""viewing_time"":1225}]","18839","","","","","","","","","","","","","","","","","","","",""
"","comprehension_check","","survey-multi-choice","2","50181","0.0-1.0-0.0-1.0","0","0","96828","","17120","{""Q0"":""True"",""Q1"":""True"",""Q2"":""While the images are shown"",""Q3"":""Green mark"",""Q4"":""either D or K""}","1","","","","","","","","","","","","","","","","","",""
"","missed_instruction_checkup","","html-keyboard-response","3","52019","0.0-1.0-0.0-2.0-0.0","0","1","96828","","1836","","","32","","","","","","","","","","","","","","","","",""
"","instructions","","instructions","4","74601","0.0-1.0-0.1-0.1","0","0","96828","[{""page_index"":0,""viewing_time"":5122},{""page_index"":1,""viewing_time"":7841},{""page_index"":2,""viewing_time"":8306},{""page_index"":3,""viewing_time"":1312}]","22581","","","","","","","","","","","","","","","","","","","",""
"","comprehension_check","","survey-multi-choice","5","97420","0.0-1.0-0.1-1.1","0","0","96828","","22817","{""Q0"":""True"",""Q1"":""True"",""Q2"":""When you see the prompt 'MAKE A CHOICE' after the second image was presented"",""Q3"":""Green mark"",""Q4"":""either D or K""}","0","","","","","","","","","","","","","","","","","",""
"","start_exp","","html-keyboard-response","6","99611","0.0-1.0-1.0","0","0","96828","","2189","","","32","","","","","","","","","","","","","","","","",""
"","S1","","html-keyboard-response","7","99867","0.0-1.0-2.0","0","0","96828","","null","","","null","0","","","","","","","","","","","","","","","",""
"","ISI","","html-keyboard-response","8","101868","0.0-1.0-3.0","0","0","96828","","null","","","null","0","NaN","","","","","","","","","","","","","","",""
"","S2","","html-keyboard-response","9","102121","0.0-1.0-4.0","0","0","96828","","null","","","null","0","","NaN","","","","","","","","","","","","","",""
"","response","","html-keyboard-response","10","102835","0.0-1.0-5.0","0","0","96828","","713","","","75","0","","","1","0","training","adjacent","CB","3","2","L.jpg","O.jpg","0","0","1","",""
"","feedback","","html-keyboard-response","11","103837","0.0-1.0-6.0-0.0","0","0","96828","","null","","","null","0","","","","","","","","","","","","","","","",""
"","ITI","","html-keyboard-response","12","104848","0.0-1.0-9.0","0","0","96828","","null","","","null","0","","","","","","","","","","","","","","","NaN",""
"","S1","","html-keyboard-response","13","105100","0.0-1.0-11.0","0","0","96828","","null","","","null","1","","","","","","","","","","","","","","","",""
"","ISI","","html-keyboard-response","14","107101","0.0-1.0-12.0","0","0","96828","","null","","","null","1","NaN","","","","","","","","","","","","","","",""
"","S2","","html-keyboard-response","15","107353","0.0-1.0-13.0","0","0","96828","","null","","","null","1","","NaN","","","","","","","","","","","","","",""
"","response","","html-keyboard-response","16","107771","0.0-1.0-14.0","0","0","96828","","417","","","68","1","","","1","1","training","adjacent","BC","2","3","O.jpg","L.jpg","1","1","1","",""
"","feedback","","html-keyboard-response","17","108780","0.0-1.0-15.0-0.0","0","0","96828","","null","","","null","1","","","","","","","","","","","","","","","",""
"","ITI","","html-keyboard-response","18","109781","0.0-1.0-18.0","0","0","96828","","null","","","null","1","","","","","","","","","","","","","","","NaN",""
"","S1","","html-keyboard-response","19","110032","0.0-1.0-20.0","0","0","96828","","null","","","null","2","","","","","","","","","","","","","","","",""
"","ISI","","html-keyboard-response","20","112034","0.0-1.0-21.0","0","0","96828","","null","","","null","2","NaN","","","","","","","","","","","","","","",""
"","S2","","html-keyboard-response","21","112285","0.0-1.0-22.0","0","0","96828","","null","","","null","2","","NaN","","","","","","","","","","","","","",""
"","response","","html-keyboard-response","22","112795","0.0-1.0-23.0","0","0","96828","","508","","","75","2","","","1","2","training","adjacent","DE","4","5","R.jpg","N.jpg","0","1","0","",""
"","feedback","","html-keyboard-response","23","113797","0.0-1.0-24.0-0.0","0","0","96828","","null","","","null","2","","","","","","","","","","","","","","","",""
"","time_out","","html-keyboard-response","24","115799","0.0-1.0-26.0-0.0","0","0","96828","","null","","","null","2","","","","","","","","","","","","","","","",""
"","ITI","","html-keyboard-response","25","116801","0.0-1.0-27.0","0","0","96828","","null","","","null","2","","","","","","","","","","","","","","","NaN",""
"","S1","","html-keyboard-response","26","117063","0.0-1.0-29.0","0","0","96828","","null","","","null","3","","","","","","","","","","","","","","","",""
"","ISI","","html-keyboard-response","27","119064","0.0-1.0-30.0","0","0","96828","","null","","","null","3","NaN","","","","","","","","","","","","","","",""
"","S2","","html-keyboard-response","28","119316","0.0-1.0-31.0","0","0","96828","","null","","","null","3","","NaN","","","","","","","","","","","","","",""
"","response","","html-keyboard-response","29","119611","0.0-1.0-32.0","0","0","96828","","294","","","75","3","","","1","3","training","adjacent","CD","3","4","L.jpg","R.jpg","0","1","0","",""
"","feedback","","html-keyboard-response","30","120613","0.0-1.0-33.0-0.0","0","0","96828","","null","","","null","3","","","","","","","","","","","","","","","",""
"","time_out","","html-keyboard-response","31","122614","0.0-1.0-35.0-0.0","0","0","96828","","null","","","null","3","","","","","","","","","","","","","","","",""
"","ITI","","html-keyboard-response","32","123616","0.0-1.0-36.0","0","0","96828","","null","","","null","3","","","","","","","","","","","","","","","NaN",""
"","S1","","html-keyboard-response","33","123867","0.0-1.0-38.0","0","0","96828","","null","","","null","4","","","","","","","","","","","","","","","",""
"","ISI","","html-keyboard-response","34","125869","0.0-1.0-39.0","0","0","96828","","null","","","null","4","NaN","","","","","","","","","","","","","","",""
"","S2","","html-keyboard-response","35","126121","0.0-1.0-40.0","0","0","96828","","null","","","null","4","","NaN","","","","","","","","","","","","","",""
"","response","","html-keyboard-response","36","126602","0.0-1.0-41.0","0","0","96828","","480","","","68","4","","","1","4","training","adjacent","EF","5","6","N.jpg","M.jpg","1","1","1","",""
"","feedback","","html-keyboard-response","37","127604","0.0-1.0-42.0-0.0","0","0","96828","","null","","","null","4","","","","","","","","","","","","","","","",""
"","ITI","","html-keyboard-response","38","128606","0.0-1.0-45.0","0","0","96828","","null","","","null","4","","","","","","","","","","","","","","","NaN",""
"","S1","","html-keyboard-response","39","128858","0.0-1.0-47.0","0","0","96828","","null","","","null","5","","","","","","","","","","","","","","","",""
"","ISI","","html-keyboard-response","40","130860","0.0-1.0-48.0","0","0","96828","","null","","","null","5","NaN","","","","","","","","","","","","","","",""
"","S2","","html-keyboard-response","41","131112","0.0-1.0-49.0","0","0","96828","","null","","","null","5","","NaN","","","","","","","","","","","","","",""
"","response","","html-keyboard-response","42","131411","0.0-1.0-50.0","0","0","96828","","298","","","68","5","","","1","5","training","adjacent","CB","3","2","L.jpg","O.jpg","1","0","0","",""
"","feedback","","html-keyboard-response","43","132427","0.0-1.0-51.0-0.0","0","0","96828","","null","","","null","5","","","","","","","","","","","","","","","",""
"","time_out","","html-keyboard-response","44","134429","0.0-1.0-53.0-0.0","0","0","96828","","null","","","null","5","","","","","","","","","","","","","","","",""
"","ITI","","html-keyboard-response","45","135430","0.0-1.0-54.0","0","0","96828","","null","","","null","5","","","","","","","","","","","","","","","NaN",""
"","S1","","html-keyboard-response","46","135682","0.0-1.0-56.0","0","0","96828","","null","","","null","6","","","","","","","","","","","","","","","",""
"","ISI","","html-keyboard-response","47","137684","0.0-1.0-57.0","0","0","96828","","null","","","null","6","NaN","","","","","","","","","","","","","","",""
"","S2","","html-keyboard-response","48","137936","0.0-1.0-58.0","0","0","96828","","null","","","null","6","","NaN","","","","","","","","","","","","","",""
"","response","","html-keyboard-response","49","138338","0.0-1.0-59.0","0","0","96828","","402","","","75","6","","","1","6","training","adjacent","FE","6","5","M.jpg","N.jpg","0","0","1","",""
"","feedback","","html-keyboard-response","50","139341","0.0-1.0-60.0-0.0","0","0","96828","","null","","","null","6","","","","","","","","","","","","","","","",""
"","ITI","","html-keyboard-response","51","140343","0.0-1.0-63.0","0","0","96828","","null","","","null","6","","","","","","","","","","","","","","","NaN",""
"","S1","","html-keyboard-response","52","140595","0.0-1.0-65.0","0","0","96828","","null","","","null","7","","","","","","","","","","","","","","","",""
"","ISI","","html-keyboard-response","53","142597","0.0-1.0-66.0","0","0","96828","","null","","","null","7","NaN","","","","","","","","","","","","","","",""
"","S2","","html-keyboard-response","54","142849","0.0-1.0-67.0","0","0","96828","","null","","","null","7","","NaN","","","","","","","","","","","","","",""
"","response","","html-keyboard-response","55","143299","0.0-1.0-68.0","0","0","96828","","449","","","75","7","","","1","7","training","adjacent","BC","2","3","O.jpg","L.jpg","0","1","0","",""
"","feedback","","html-keyboard-response","56","144301","0.0-1.0-69.0-0.0","0","0","96828","","null","","","null","7","","","","","","","","","","","","","","","",""
"","time_out","","html-keyboard-response","57","146303","0.0-1.0-71.0-0.0","0","0","96828","","null","","","null","7","","","","","","","","","","","","","","","",""
"","ITI","","html-keyboard-response","58","147305","0.0-1.0-72.0","0","0","96828","","null","","","null","7","","","","","","","","","","","","","","","NaN",""
"","S1","","html-keyboard-response","59","147558","0.0-1.0-74.0","0","0","96828","","null","","","null","8","","","","","","","","","","","","","","","",""
"","ISI","","html-keyboard-response","60","149559","0.0-1.0-75.0","0","0","96828","","null","","","null","8","NaN","","","","","","","","","","","","","","",""
"","S2","","html-keyboard-response","61","149811","0.0-1.0-76.0","0","0","96828","","null","","","null","8","","NaN","","","","","","","","","","","","","",""
"","response","","html-keyboard-response","62","150123","0.0-1.0-77.0","0","0","96828","","311","","","75","8","","","1","8","training","adjacent","CB","3","2","L.jpg","O.jpg","0","0","1","",""
"","feedback","","html-keyboard-response","63","151124","0.0-1.0-78.0-0.0","0","0","96828","","null","","","null","8","","","","","","","","","","","","","","","",""
"","ITI","","html-keyboard-response","64","152125","0.0-1.0-81.0","0","0","96828","","null","","","null","8","","","","","","","","","","","","","","","NaN",""
"","S1","","html-keyboard-response","65","152377","0.0-1.0-83.0","0","0","96828","","null","","","null","9","","","","","","","","","","","","","","","",""
"","ISI","","html-keyboard-response","66","154379","0.0-1.0-84.0","0","0","96828","","null","","","null","9","NaN","","","","","","","","","","","","","","",""
"","S2","","html-keyboard-response","67","154630","0.0-1.0-85.0","0","0","96828","","null","","","null","9","","NaN","","","","","","","","","","","","","",""
"","response","","html-keyboard-response","68","154891","0.0-1.0-86.0","0","0","96828","","259","","","75","9","","","1","9","training","adjacent","DE","4","5","R.jpg","N.jpg","0","1","0","",""
"","feedback","","html-keyboard-response","69","155893","0.0-1.0-87.0-0.0","0","0","96828","","null","","","null","9","","","","","","","","","","","","","","","",""
"","time_out","","html-keyboard-response","70","157894","0.0-1.0-89.0-0.0","0","0","96828","","null","","","null","9","","","","","","","","","","","","","","","",""
"","ITI","","html-keyboard-response","71","158895","0.0-1.0-90.0","0","0","96828","","null","","","null","9","","","","","","","","","","","","","","","NaN",""
"","S1","","html-keyboard-response","72","159147","0.0-1.0-92.0","0","0","96828","","null","","","null","10","","","","","","","","","","","","","","","",""
"","ISI","","html-keyboard-response","73","161149","0.0-1.0-93.0","0","0","96828","","null","","","null","10","NaN","","","","","","","","","","","","","","",""
"","S2","","html-keyboard-response","74","161401","0.0-1.0-94.0","0","0","96828","","null","","","null","10","","NaN","","","","","","","","","","","","","",""
"","response","","html-keyboard-response","75","161674","0.0-1.0-95.0","0","0","96828","","273","","","68","10","","","1","10","training","adjacent","BA","2","1","O.jpg","Q.jpg","1","0","0","",""
"","feedback","","html-keyboard-response","76","162676","0.0-1.0-96.0-0.0","0","0","96828","","null","","","null","10","","","","","","","","","","","","","","","",""
"","time_out","","html-keyboard-response","77","164678","0.0-1.0-98.0-0.0","0","0","96828","","null","","","null","10","","","","","","","","","","","","","","","",""
"","ITI","","html-keyboard-response","78","165679","0.0-1.0-99.0","0","0","96828","","null","","","null","10","","","","","","","","","","","","","","","NaN",""
"","S1","","html-keyboard-response","79","165933","0.0-1.0-101.0","0","0","96828","","null","","","null","11","","","","","","","","","","","","","","","",""
"","ISI","","html-keyboard-response","80","167934","0.0-1.0-102.0","0","0","96828","","null","","","null","11","NaN","","","","","","","","","","","","","","",""
"","S2","","html-keyboard-response","81","168186","0.0-1.0-103.0","0","0","96828","","null","","","null","11","","NaN","","","","","","","","","","","","","",""
"","response","","html-keyboard-response","82","168466","0.0-1.0-104.0","0","0","96828","","280","","","75","11","","","1","11","training","adjacent","AB","1","2","Q.jpg","O.jpg","0","1","0","",""
"","feedback","","html-keyboard-response","83","169468","0.0-1.0-105.0-0.0","0","0","96828","","null","","","null","11","","","","","","","","","","","","","","","",""
"","time_out","","html-keyboard-response","84","171470","0.0-1.0-107.0-0.0","0","0","96828","","null","","","null","11","","","","","","","","","","","","","","","",""
"","ITI","","html-keyboard-response","85","172472","0.0-1.0-108.0","0","0","96828","","null","","","null","11","","","","","","","","","","","","","","","NaN",""
"","S1","","html-keyboard-response","86","172724","0.0-1.0-110.0","0","0","96828","","null","","","null","12","","","","","","","","","","","","","","","",""
"","ISI","","html-keyboard-response","87","174725","0.0-1.0-111.0","0","0","96828","","null","","","null","12","NaN","","","","","","","","","","","","","","",""
"","S2","","html-keyboard-response","88","174977","0.0-1.0-112.0","0","0","96828","","null","","","null","12","","NaN","","","","","","","","","","","","","",""
"","response","","html-keyboard-response","89","175370","0.0-1.0-113.0","0","0","96828","","392","","","68","12","","","1","12","training","adjacent","DE","4","5","R.jpg","N.jpg","1","1","1","",""
"","feedback","","html-keyboard-response","90","176372","0.0-1.0-114.0-0.0","0","0","96828","","null","","","null","12","","","","","","","","","","","","","","","",""
"","ITI","","html-keyboard-response","91","177375","0.0-1.0-117.0","0","0","96828","","null","","","null","12","","","","","","","","","","","","","","","NaN",""
"","S1","","html-keyboard-response","92","177627","0.0-1.0-119.0","0","0","96828","","null","","","null","13","","","","","","","","","","","","","","","",""
"","ISI","","html-keyboard-response","93","179628","0.0-1.0-120.0","0","0","96828","","null","","","null","13","NaN","","","","","","","","","","","","","","",""
"","S2","","html-keyboard-response","94","179880","0.0-1.0-121.0","0","0","96828","","null","","","null","13","","NaN","","","","","","","","","","","","","",""
"","response","","html-keyboard-response","95","180130","0.0-1.0-122.0","0","0","96828","","248","","","75","13","","","1","13","training","adjacent","BA","2","1","O.jpg","Q.jpg","0","0","1","",""
"","feedback","","html-keyboard-response","96","181132","0.0-1.0-123.0-0.0","0","0","96828","","null","","","null","13","","","","","","","","","","","","","","","",""
"","ITI","","html-keyboard-response","97","182133","0.0-1.0-126.0","0","0","96828","","null","","","null","13","","","","","","","","","","","","","","","NaN",""
"","S1","","html-keyboard-response","98","182385","0.0-1.0-128.0","0","0","96828","","null","","","null","14","","","","","","","","","","","","","","","",""
"","ISI","","html-keyboard-response","99","184387","0.0-1.0-129.0","0","0","96828","","null","","","null","14","NaN","","","","","","","","","","","","","","",""
"","S2","","html-keyboard-response","100","184639","0.0-1.0-130.0","0","0","96828","","null","","","null","14","","NaN","","","","","","","","","","","","","",""
"","response","","html-keyboard-response","101","184859","0.0-1.0-131.0","0","0","96828","","219","","","75","14","","","1","14","training","adjacent","CD","3","4","L.jpg","R.jpg","0","1","0","",""
"","feedback","","html-keyboard-response","102","185860","0.0-1.0-132.0-0.0","0","0","96828","","null","","","null","14","","","","","","","","","","","","","","","",""
"","time_out","","html-keyboard-response","103","187863","0.0-1.0-134.0-0.0","0","0","96828","","null","","","null","14","","","","","","","","","","","","","","","",""
"","ITI","","html-keyboard-response","104","188864","0.0-1.0-135.0","0","0","96828","","null","","","null","14","","","","","","","","","","","","","","","NaN",""
"","S1","","html-keyboard-response","105","189117","0.0-1.0-137.0","0","0","96828","","null","","","null","15","","","","","","","","","","","","","","","",""
"","ISI","","html-keyboard-response","106","191119","0.0-1.0-138.0","0","0","96828","","null","","","null","15","NaN","","","","","","","","","","","","","","",""
"","S2","","html-keyboard-response","107","191370","0.0-1.0-139.0","0","0","96828","","null","","","null","15","","NaN","","","","","","","","","","","","","",""
"","response","","html-keyboard-response","108","191706","0.0-1.0-140.0","0","0","96828","","335","","","68","15","","","1","15","training","adjacent","DC","4","3","R.jpg","L.jpg","1","0","0","",""
"","feedback","","html-keyboard-response","109","192708","0.0-1.0-141.0-0.0","0","0","96828","","null","","","null","15","","","","","","","","","","","","","","","",""
"","time_out","","html-keyboard-response","110","194716","0.0-1.0-143.0-0.0","0","0","96828","","null","","","null","15","","","","","","","","","","","","","","","",""
"","ITI","","html-keyboard-response","111","195718","0.0-1.0-144.0","0","0","96828","","null","","","null","15","","","","","","","","","","","","","","","NaN",""
"","S1","","html-keyboard-response","112","195971","0.0-1.0-146.0","0","0","96828","","null","","","null","16","","","","","","","","","","","","","","","",""
"","ISI","","html-keyboard-response","113","197972","0.0-1.0-147.0","0","0","96828","","null","","","null","16","NaN","","","","","","","","","","","","","","",""
"","S2","","html-keyboard-response","114","198224","0.0-1.0-148.0","0","0","96828","","null","","","null","16","","NaN","","","","","","","","","","","","","",""
"","response","","html-keyboard-response","115","198225","0.0-1.0-149.0","0","0","96828","","0","","","68","16","","","1","16","training","adjacent","GF","7","6","P.jpg","M.jpg","1","0","0","",""
"","feedback","","html-keyboard-response","116","199227","0.0-1.0-150.0-0.0","0","0","96828","","null","","","null","16","","","","","","","","","","","","","","","",""
"","time_out","","html-keyboard-response","117","201228","0.0-1.0-152.0-0.0","0","0","96828","","null","","","null","16","","","","","","","","","","","","","","","",""
"","ITI","","html-keyboard-response","118","202230","0.0-1.0-153.0","0","0","96828","","null","","","null","16","","","","","","","","","","","","","","","NaN",""
"","S1","","html-keyboard-response","119","202491","0.0-1.0-155.0","0","0","96828","","null","","","null","17","","","","","","","","","","","","","","","",""
"","ISI","","html-keyboard-response","120","204493","0.0-1.0-156.0","0","0","96828","","null","","","null","17","NaN","","","","","","","","","","","","","","",""
"","S2","","html-keyboard-response","121","204745","0.0-1.0-157.0","0","0","96828","","null","","","null","17","","NaN","","","","","","","","","","","","","",""
"","response","","html-keyboard-response","122","205010","0.0-1.0-158.0","0","0","96828","","265","","","68","17","","","1","17","training","adjacent","DC","4","3","R.jpg","L.jpg","1","0","0","",""
"","feedback","","html-keyboard-response","123","206012","0.0-1.0-159.0-0.0","0","0","96828","","null","","","null","17","","","","","","","","","","","","","","","",""
"","time_out","","html-keyboard-response","124","208017","0.0-1.0-161.0-0.0","0","0","96828","","null","","","null","17","","","","","","","","","","","","","","","",""
"","ITI","","html-keyboard-response","125","209019","0.0-1.0-162.0","0","0","96828","","null","","","null","17","","","","","","","","","","","","","","","NaN",""
"","S1","","html-keyboard-response","126","209271","0.0-1.0-164.0","0","0","96828","","null","","","null","18","","","","","","","","","","","","","","","",""
"","ISI","","html-keyboard-response","127","211272","0.0-1.0-165.0","0","0","96828","","null","","","null","18","NaN","","","","","","","","","","","","","","",""
"","S2","","html-keyboard-response","128","211524","0.0-1.0-166.0","0","0","96828","","null","","","null","18","","NaN","","","","","","","","","","","","","",""
"","response","","html-keyboard-response","129","211770","0.0-1.0-167.0","0","0","96828","","245","","","68","18","","","1","18","training","adjacent","AB","1","2","Q.jpg","O.jpg","1","1","1","",""
"","feedback","","html-keyboard-response","130","212771","0.0-1.0-168.0-0.0","0","0","96828","","null","","","null","18","","","","","","","","","","","","","","","",""
"","ITI","","html-keyboard-response","131","213773","0.0-1.0-171.0","0","0","96828","","null","","","null","18","","","","","","","","","","","","","","","NaN",""
"","S1","","html-keyboard-response","132","214025","0.0-1.0-173.0","0","0","96828","","null","","","null","19","","","","","","","","","","","","","","","",""
"","ISI","","html-keyboard-response","133","216027","0.0-1.0-174.0","0","0","96828","","null","","","null","19","NaN","","","","","","","","","","","","","","",""
"","S2","","html-keyboard-response","134","216280","0.0-1.0-175.0","0","0","96828","","null","","","null","19","","NaN","","","","","","","","","","","","","",""
"","response","","html-keyboard-response","135","216554","0.0-1.0-176.0","0","0","96828","","274","","","68","19","","","1","19","training","adjacent","DC","4","3","R.jpg","L.jpg","1","0","0","",""
"","feedback","","html-keyboard-response","136","217556","0.0-1.0-177.0-0.0","0","0","96828","","null","","","null","19","","","","","","","","","","","","","","","",""
"","time_out","","html-keyboard-response","137","219559","0.0-1.0-179.0-0.0","0","0","96828","","null","","","null","19","","","","","","","","","","","","","","","",""
"","ITI","","html-keyboard-response","138","220561","0.0-1.0-180.0","0","0","96828","","null","","","null","19","","","","","","","","","","","","","","","NaN",""
"","S1","","html-keyboard-response","139","220813","0.0-1.0-182.0","0","0","96828","","null","","","null","20","","","","","","","","","","","","","","","",""
"","ISI","","html-keyboard-response","140","222814","0.0-1.0-183.0","0","0","96828","","null","","","null","20","NaN","","","","","","","","","","","","","","",""
"","S2","","html-keyboard-response","141","223066","0.0-1.0-184.0","0","0","96828","","null","","","null","20","","NaN","","","","","","","","","","","","","",""
"","response","","html-keyboard-response","142","223123","0.0-1.0-185.0","0","0","96828","","56","","","68","20","","","1","20","training","adjacent","BA","2","1","O.jpg","Q.jpg","1","0","0","",""
"","feedback","","html-keyboard-response","143","224124","0.0-1.0-186.0-0.0","0","0","96828","","null","","","null","20","","","","","","","","","","","","","","","",""
"","time_out","","html-keyboard-response","144","226126","0.0-1.0-188.0-0.0","0","0","96828","","null","","","null","20","","","","","","","","","","","","","","","",""
"","ITI","","html-keyboard-response","145","227128","0.0-1.0-189.0","0","0","96828","","null","","","null","20","","","","","","","","","","","","","","","NaN",""
"","S1","","html-keyboard-response","146","227379","0.0-1.0-191.0","0","0","96828","","null","","","null","21","","","","","","","","","","","","","","","",""
"","ISI","","html-keyboard-response","147","229382","0.0-1.0-192.0","0","0","96828","","null","","","null","21","NaN","","","","","","","","","","","","","","",""
"","S2","","html-keyboard-response","148","229633","0.0-1.0-193.0","0","0","96828","","null","","","null","21","","NaN","","","","","","","","","","","","","",""
"","response","","html-keyboard-response","149","229939","0.0-1.0-194.0","0","0","96828","","304","","","75","21","","","1","21","training","adjacent","FE","6","5","M.jpg","N.jpg","0","0","1","",""
"","feedback","","html-keyboard-response","150","230941","0.0-1.0-195.0-0.0","0","0","96828","","null","","","null","21","","","","","","","","","","","","","","","",""
"","ITI","","html-keyboard-response","151","231942","0.0-1.0-198.0","0","0","96828","","null","","","null","21","","","","","","","","","","","","","","","NaN",""
"","S1","","html-keyboard-response","152","232194","0.0-1.0-200.0","0","0","96828","","null","","","null","22","","","","","","","","","","","","","","","",""
"","ISI","","html-keyboard-response","153","234203","0.0-1.0-201.0","0","0","96828","","null","","","null","22","NaN","","","","","","","","","","","","","","",""
"","S2","","html-keyboard-response","154","234455","0.0-1.0-202.0","0","0","96828","","null","","","null","22","","NaN","","","","","","","","","","","","","",""
"","response","","html-keyboard-response","155","234731","0.0-1.0-203.0","0","0","96828","","275","","","68","22","","","1","22","training","adjacent","AB","1","2","Q.jpg","O.jpg","1","1","1","",""
"","feedback","","html-keyboard-response","156","235732","0.0-1.0-204.0-0.0","0","0","96828","","null","","","null","22","","","","","","","","","","","","","","","",""
"","ITI","","html-keyboard-response","157","236734","0.0-1.0-207.0","0","0","96828","","null","","","null","22","","","","","","","","","","","","","","","NaN",""
"","S1","","html-keyboard-response","158","236985","0.0-1.0-209.0","0","0","96828","","null","","","null","23","","","","","","","","","","","","","","","",""
"","ISI","","html-keyboard-response","159","238987","0.0-1.0-210.0","0","0","96828","","null","","","null","23","NaN","","","","","","","","","","","","","","",""
"","S2","","html-keyboard-response","160","239239","0.0-1.0-211.0","0","0","96828","","null","","","null","23","","NaN","","","","","","","","","","","","","",""
"","response","","html-keyboard-response","161","239523","0.0-1.0-212.0","0","0","96828","","283","","","68","23","","","1","23","training","adjacent","AB","1","2","Q.jpg","O.jpg","1","1","1","",""
"","feedback","","html-keyboard-response","162","240524","0.0-1.0-213.0-0.0","0","0","96828","","null","","","null","23","","","","","","","","","","","","","","","",""
"","ITI","","html-keyboard-response","163","241527","0.0-1.0-216.0","0","0","96828","","null","","","null","23","","","","","","","","","","","","","","","NaN",""
"","S1","","html-keyboard-response","164","241779","0.0-1.0-218.0","0","0","96828","","null","","","null","24","","","","","","","","","","","","","","","",""
"","ISI","","html-keyboard-response","165","243781","0.0-1.0-219.0","0","0","96828","","null","","","null","24","NaN","","","","","","","","","","","","","","",""
"","S2","","html-keyboard-response","166","244033","0.0-1.0-220.0","0","0","96828","","null","","","null","24","","NaN","","","","","","","","","","","","","",""
"","response","","html-keyboard-response","167","244403","0.0-1.0-221.0","0","0","96828","","369","","","75","24","","","1","24","training","adjacent","FE","6","5","M.jpg","N.jpg","0","0","1","",""
"","feedback","","html-keyboard-response","168","245404","0.0-1.0-222.0-0.0","0","0","96828","","null","","","null","24","","","","","","","","","","","","","","","",""
"","ITI","","html-keyboard-response","169","246406","0.0-1.0-225.0","0","0","96828","","null","","","null","24","","","","","","","","","","","","","","","NaN",""
"","S1","","html-keyboard-response","170","246657","0.0-1.0-227.0","0","0","96828","","null","","","null","25","","","","","","","","","","","","","","","",""
"","ISI","","html-keyboard-response","171","248659","0.0-1.0-228.0","0","0","96828","","null","","","null","25","NaN","","","","","","","","","","","","","","",""
"","S2","","html-keyboard-response","172","248912","0.0-1.0-229.0","0","0","96828","","null","","","null","25","","NaN","","","","","","","","","","","","","",""
"","response","","html-keyboard-response","173","249195","0.0-1.0-230.0","0","0","96828","","282","","","68","25","","","1","25","training","adjacent","ED","5","4","N.jpg","R.jpg","1","0","0","",""
"","feedback","","html-keyboard-response","174","250196","0.0-1.0-231.0-0.0","0","0","96828","","null","","","null","25","","","","","","","","","","","","","","","",""
"","time_out","","html-keyboard-response","175","252198","0.0-1.0-233.0-0.0","0","0","96828","","null","","","null","25","","","","","","","","","","","","","","","",""
"","ITI","","html-keyboard-response","176","253200","0.0-1.0-234.0","0","0","96828","","null","","","null","25","","","","","","","","","","","","","","","NaN",""
"","S1","","html-keyboard-response","177","253459","0.0-1.0-236.0","0","0","96828","","null","","","null","26","","","","","","","","","","","","","","","",""
"","ISI","","html-keyboard-response","178","255461","0.0-1.0-237.0","0","0","96828","","null","","","null","26","NaN","","","","","","","","","","","","","","",""
"","S2","","html-keyboard-response","179","255713","0.0-1.0-238.0","0","0","96828","","null","","","null","26","","NaN","","","","","","","","","","","","","",""
"","response","","html-keyboard-response","180","255987","0.0-1.0-239.0","0","0","96828","","273","","","75","26","","","1","26","training","adjacent","FG","6","7","M.jpg","P.jpg","0","1","0","",""
"","feedback","","html-keyboard-response","181","256989","0.0-1.0-240.0-0.0","0","0","96828","","null","","","null","26","","","","","","","","","","","","","","","",""
"","time_out","","html-keyboard-response","182","258991","0.0-1.0-242.0-0.0","0","0","96828","","null","","","null","26","","","","","","","","","","","","","","","",""
"","ITI","","html-keyboard-response","183","259993","0.0-1.0-243.0","0","0","96828","","null","","","null","26","","","","","","","","","","","","","","","NaN",""
"","S1","","html-keyboard-response","184","260245","0.0-1.0-245.0","0","0","96828","","null","","","null","27","","","","","","","","","","","","","","","",""
"","ISI","","html-keyboard-response","185","262246","0.0-1.0-246.0","0","0","96828","","null","","","null","27","NaN","","","","","","","","","","","","","","",""
"","S2","","html-keyboard-response","186","262498","0.0-1.0-247.0","0","0","96828","","null","","","null","27","","NaN","","","","","","","","","","","","","",""
"","response","","html-keyboard-response","187","262827","0.0-1.0-248.0","0","0","96828","","328","","","68","27","","","1","27","training","adjacent","BC","2","3","O.jpg","L.jpg","1","1","1","",""
"","feedback","","html-keyboard-response","188","263828","0.0-1.0-249.0-0.0","0","0","96828","","null","","","null","27","","","","","","","","","","","","","","","",""
"","ITI","","html-keyboard-response","189","264830","0.0-1.0-252.0","0","0","96828","","null","","","null","27","","","","","","","","","","","","","","","NaN",""
"","S1","","html-keyboard-response","190","265082","0.0-1.0-254.0","0","0","96828","","null","","","null","28","","","","","","","","","","","","","","","",""
"","ISI","","html-keyboard-response","191","267084","0.0-1.0-255.0","0","0","96828","","null","","","null","28","NaN","","","","","","","","","","","","","","",""
"","S2","","html-keyboard-response","192","267335","0.0-1.0-256.0","0","0","96828","","null","","","null","28","","NaN","","","","","","","","","","","","","",""
"","response","","html-keyboard-response","193","267699","0.0-1.0-257.0","0","0","96828","","362","","","68","28","","","1","28","training","adjacent","GF","7","6","P.jpg","M.jpg","1","0","0","",""
"","feedback","","html-keyboard-response","194","268701","0.0-1.0-258.0-0.0","0","0","96828","","null","","","null","28","","","","","","","","","","","","","","","",""
"","time_out","","html-keyboard-response","195","270702","0.0-1.0-260.0-0.0","0","0","96828","","null","","","null","28","","","","","","","","","","","","","","","",""
"","ITI","","html-keyboard-response","196","271704","0.0-1.0-261.0","0","0","96828","","null","","","null","28","","","","","","","","","","","","","","","NaN",""
"","S1","","html-keyboard-response","197","271956","0.0-1.0-263.0","0","0","96828","","null","","","null","29","","","","","","","","","","","","","","","",""
"","ISI","","html-keyboard-response","198","273958","0.0-1.0-264.0","0","0","96828","","null","","","null","29","NaN","","","","","","","","","","","","","","",""
"","S2","","html-keyboard-response","199","274210","0.0-1.0-265.0","0","0","96828","","null","","","null","29","","NaN","","","","","","","","","","","","","",""
"","response","","html-keyboard-response","200","274635","0.0-1.0-266.0","0","0","96828","","424","","","75","29","","","1","29","training","adjacent","EF","5","6","N.jpg","M.jpg","0","1","0","",""
"","feedback","","html-keyboard-response","201","275636","0.0-1.0-267.0-0.0","0","0","96828","","null","","","null","29","","","","","","","","","","","","","","","",""
"","time_out","","html-keyboard-response","202","277638","0.0-1.0-269.0-0.0","0","0","96828","","null","","","null","29","","","","","","","","","","","","","","","",""
"","ITI","","html-keyboard-response","203","278640","0.0-1.0-270.0","0","0","96828","","null","","","null","29","","","","","","","","","","","","","","","NaN",""
"","S1","","html-keyboard-response","204","278892","0.0-1.0-272.0","0","0","96828","","null","","","null","30","","","","","","","","","","","","","","","",""
"","ISI","","html-keyboard-response","205","280893","0.0-1.0-273.0","0","0","96828","","null","","","null","30","NaN","","","","","","","","","","","","","","",""
"","S2","","html-keyboard-response","206","281145","0.0-1.0-274.0","0","0","96828","","null","","","null","30","","NaN","","","","","","","","","","","","","",""
"","response","","html-keyboard-response","207","281562","0.0-1.0-275.0","0","0","96828","","416","","","75","30","","","1","30","training","adjacent","GF","7","6","P.jpg","M.jpg","0","0","1","",""
"","feedback","","html-keyboard-response","208","282563","0.0-1.0-276.0-0.0","0","0","96828","","null","","","null","30","","","","","","","","","","","","","","","",""
"","ITI","","html-keyboard-response","209","283565","0.0-1.0-279.0","0","0","96828","","null","","","null","30","","","","","","","","","","","","","","","NaN",""
"","S1","","html-keyboard-response","210","283817","0.0-1.0-281.0","0","0","96828","","null","","","null","31","","","","","","","","","","","","","","","",""
"","ISI","","html-keyboard-response","211","285818","0.0-1.0-282.0","0","0","96828","","null","","","null","31","NaN","","","","","","","","","","","","","","",""
"","S2","","html-keyboard-response","212","286070","0.0-1.0-283.0","0","0","96828","","null","","","null","31","","NaN","","","","","","","","","","","","","",""
"","response","","html-keyboard-response","213","286370","0.0-1.0-284.0","0","0","96828","","300","","","68","31","","","1","31","training","adjacent","ED","5","4","N.jpg","R.jpg","1","0","0","",""
"","feedback","","html-keyboard-response","214","287372","0.0-1.0-285.0-0.0","0","0","96828","","null","","","null","31","","","","","","","","","","","","","","","",""
"","time_out","","html-keyboard-response","215","289374","0.0-1.0-287.0-0.0","0","0","96828","","null","","","null","31","","","","","","","","","","","","","","","",""
"","ITI","","html-keyboard-response","216","290376","0.0-1.0-288.0","0","0","96828","","null","","","null","31","","","","","","","","","","","","","","","NaN",""
"","S1","","html-keyboard-response","217","290628","0.0-1.0-290.0","0","0","96828","","null","","","null","32","","","","","","","","","","","","","","","",""
"","ISI","","html-keyboard-response","218","292629","0.0-1.0-291.0","0","0","96828","","null","","","null","32","NaN","","","","","","","","","","","","","","",""
"","S2","","html-keyboard-response","219","292881","0.0-1.0-292.0","0","0","96828","","null","","","null","32","","NaN","","","","","","","","","","","","","",""
"","response","","html-keyboard-response","220","293162","0.0-1.0-293.0","0","0","96828","","280","","","68","32","","","1","32","training","adjacent","CD","3","4","L.jpg","R.jpg","1","1","1","",""
"","feedback","","html-keyboard-response","221","294163","0.0-1.0-294.0-0.0","0","0","96828","","null","","","null","32","","","","","","","","","","","","","","","",""
"","ITI","","html-keyboard-response","222","295165","0.0-1.0-297.0","0","0","96828","","null","","","null","32","","","","","","","","","","","","","","","NaN",""
"","S1","","html-keyboard-response","223","295417","0.0-1.0-299.0","0","0","96828","","null","","","null","33","","","","","","","","","","","","","","","",""
"","ISI","","html-keyboard-response","224","297418","0.0-1.0-300.0","0","0","96828","","null","","","null","33","NaN","","","","","","","","","","","","","","",""
"","S2","","html-keyboard-response","225","297670","0.0-1.0-301.0","0","0","96828","","null","","","null","33","","NaN","","","","","","","","","","","","","",""
"","response","","html-keyboard-response","226","297994","0.0-1.0-302.0","0","0","96828","","323","","","75","33","","","1","33","training","adjacent","BA","2","1","O.jpg","Q.jpg","0","0","1","",""
"","feedback","","html-keyboard-response","227","298996","0.0-1.0-303.0-0.0","0","0","96828","","null","","","null","33","","","","","","","","","","","","","","","",""
"","ITI","","html-keyboard-response","228","299998","0.0-1.0-306.0","0","0","96828","","null","","","null","33","","","","","","","","","","","","","","","NaN",""
"","S1","","html-keyboard-response","229","300250","0.0-1.0-308.0","0","0","96828","","null","","","null","34","","","","","","","","","","","","","","","",""
"","ISI","","html-keyboard-response","230","302252","0.0-1.0-309.0","0","0","96828","","null","","","null","34","NaN","","","","","","","","","","","","","","",""
"","S2","","html-keyboard-response","231","302518","0.0-1.0-310.0","0","0","96828","","null","","","null","34","","NaN","","","","","","","","","","","","","",""
"","response","","html-keyboard-response","232","302946","0.0-1.0-311.0","0","0","96828","","426","","","75","34","","","1","34","training","adjacent","FG","6","7","M.jpg","P.jpg","0","1","0","",""
"","feedback","","html-keyboard-response","233","303950","0.0-1.0-312.0-0.0","0","0","96828","","null","","","null","34","","","","","","","","","","","","","","","",""
"","time_out","","html-keyboard-response","234","305953","0.0-1.0-314.0-0.0","0","0","96828","","null","","","null","34","","","","","","","","","","","","","","","",""
"","ITI","","html-keyboard-response","235","306954","0.0-1.0-315.0","0","0","96828","","null","","","null","34","","","","","","","","","","","","","","","NaN",""
"","S1","","html-keyboard-response","236","307207","0.0-1.0-317.0","0","0","96828","","null","","","null","35","","","","","","","","","","","","","","","",""
"","ISI","","html-keyboard-response","237","309209","0.0-1.0-318.0","0","0","96828","","null","","","null","35","NaN","","","","","","","","","","","","","","",""
"","S2","","html-keyboard-response","238","309468","0.0-1.0-319.0","0","0","96828","","null","","","null","35","","NaN","","","","","","","","","","","","","",""
"","response","","html-keyboard-response","239","309770","0.0-1.0-320.0","0","0","96828","","301","","","75","35","","","1","35","training","adjacent","BC","2","3","O.jpg","L.jpg","0","1","0","",""
"","feedback","","html-keyboard-response","240","310772","0.0-1.0-321.0-0.0","0","0","96828","","null","","","null","35","","","","","","","","","","","","","","","",""
"","time_out","","html-keyboard-response","241","312774","0.0-1.0-323.0-0.0","0","0","96828","","null","","","null","35","","","","","","","","","","","","","","","",""
"","ITI","","html-keyboard-response","242","313776","0.0-1.0-324.0","0","0","96828","","null","","","null","35","","","","","","","","","","","","","","","NaN",""
"","S1","","html-keyboard-response","243","314028","0.0-1.0-326.0","0","0","96828","","null","","","null","36","","","","","","","","","","","","","","","",""
"","ISI","","html-keyboard-response","244","316029","0.0-1.0-327.0","0","0","96828","","null","","","null","36","NaN","","","","","","","","","","","","","","",""
"","S2","","html-keyboard-response","245","316287","0.0-1.0-328.0","0","0","96828","","null","","","null","36","","NaN","","","","","","","","","","","","","",""
"","response","","html-keyboard-response","246","316594","0.0-1.0-329.0","0","0","96828","","306","","","75","36","","","1","36","training","adjacent","ED","5","4","N.jpg","R.jpg","0","0","1","",""
"","feedback","","html-keyboard-response","247","317595","0.0-1.0-330.0-0.0","0","0","96828","","null","","","null","36","","","","","","","","","","","","","","","",""
"","ITI","","html-keyboard-response","248","318597","0.0-1.0-333.0","0","0","96828","","null","","","null","36","","","","","","","","","","","","","","","NaN",""
"","S1","","html-keyboard-response","249","318850","0.0-1.0-335.0","0","0","96828","","null","","","null","37","","","","","","","","","","","","","","","",""
"","ISI","","html-keyboard-response","250","320852","0.0-1.0-336.0","0","0","96828","","null","","","null","37","NaN","","","","","","","","","","","","","","",""
"","S2","","html-keyboard-response","251","321104","0.0-1.0-337.0","0","0","96828","","null","","","null","37","","NaN","","","","","","","","","","","","","",""
"","response","","html-keyboard-response","252","321482","0.0-1.0-338.0","0","0","96828","","377","","","68","37","","","1","37","training","adjacent","FG","6","7","M.jpg","P.jpg","1","1","1","",""
"","feedback","","html-keyboard-response","253","322484","0.0-1.0-339.0-0.0","0","0","96828","","null","","","null","37","","","","","","","","","","","","","","","",""
"","ITI","","html-keyboard-response","254","323485","0.0-1.0-342.0","0","0","96828","","null","","","null","37","","","","","","","","","","","","","","","NaN",""
"","S1","","html-keyboard-response","255","323738","0.0-1.0-344.0","0","0","96828","","null","","","null","38","","","","","","","","","","","","","","","",""
"","ISI","","html-keyboard-response","256","325740","0.0-1.0-345.0","0","0","96828","","null","","","null","38","NaN","","","","","","","","","","","","","","",""
"","S2","","html-keyboard-response","257","325992","0.0-1.0-346.0","0","0","96828","","null","","","null","38","","NaN","","","","","","","","","","","","","",""
"","response","","html-keyboard-response","258","326322","0.0-1.0-347.0","0","0","96828","","329","","","75","38","","","1","38","training","adjacent","CB","3","2","L.jpg","O.jpg","0","0","1","",""
"","feedback","","html-keyboard-response","259","327323","0.0-1.0-348.0-0.0","0","0","96828","","null","","","null","38","","","","","","","","","","","","","","","",""
"","ITI","","html-keyboard-response","260","328326","0.0-1.0-351.0","0","0","96828","","null","","","null","38","","","","","","","","","","","","","","","NaN",""
"","S1","","html-keyboard-response","261","328578","0.0-1.0-353.0","0","0","96828","","null","","","null","39","","","","","","","","","","","","","","","",""
"","ISI","","html-keyboard-response","262","330581","0.0-1.0-354.0","0","0","96828","","null","","","null","39","NaN","","","","","","","","","","","","","","",""
"","S2","","html-keyboard-response","263","330847","0.0-1.0-355.0","0","0","96828","","null","","","null","39","","NaN","","","","","","","","","","","","","",""
"","response","","html-keyboard-response","264","331258","0.0-1.0-356.0","0","0","96828","","410","","","68","39","","","1","39","training","adjacent","EF","5","6","N.jpg","M.jpg","1","1","1","",""
"","feedback","","html-keyboard-response","265","332260","0.0-1.0-357.0-0.0","0","0","96828","","null","","","null","39","","","","","","","","","","","","","","","",""
"","ITI","","html-keyboard-response","266","333261","0.0-1.0-360.0","0","0","96828","","null","","","null","39","","","","","","","","","","","","","","","NaN",""
"","block_over","","html-keyboard-response","267","459378","0.0-1.0-361.0-0.0","0","0","96828","","126115","","","32","39","","","","","","","","","","","","","","","",""
"","S1","","html-keyboard-response","268","459630","0.0-1.0-362.0","0","0","96828","","null","","","null","40","","","","","","","","","","","","","","","",""
"","ISI","","html-keyboard-response","269","461632","0.0-1.0-363.0","0","0","96828","","null","","","null","40","NaN","","","","","","","","","","","","","","",""
"","S2","","html-keyboard-response","270","461883","0.0-1.0-364.0","0","0","96828","","null","","","null","40","","NaN","","","","","","","","","","","","","",""
"","response","","html-keyboard-response","271","462218","0.0-1.0-365.0","0","0","96828","","334","","","75","40","","","2","40","training","adjacent","CD","3","4","L.jpg","R.jpg","0","1","0","",""
"","feedback","","html-keyboard-response","272","463220","0.0-1.0-366.0-0.0","0","0","96828","","null","","","null","40","","","","","","","","","","","","","","","",""
"","time_out","","html-keyboard-response","273","465222","0.0-1.0-368.0-0.0","0","0","96828","","null","","","null","40","","","","","","","","","","","","","","","",""
"","ITI","","html-keyboard-response","274","466223","0.0-1.0-369.0","0","0","96828","","null","","","null","40","","","","","","","","","","","","","","","NaN",""
"","S1","","html-keyboard-response","275","466476","0.0-1.0-371.0","0","0","96828","","null","","","null","41","","","","","","","","","","","","","","","",""
"","ISI","","html-keyboard-response","276","468478","0.0-1.0-372.0","0","0","96828","","null","","","null","41","NaN","","","","","","","","","","","","","","",""
"","S2","","html-keyboard-response","277","468730","0.0-1.0-373.0","0","0","96828","","null","","","null","41","","NaN","","","","","","","","","","","","","",""
"","response","","html-keyboard-response","278","469066","0.0-1.0-374.0","0","0","96828","","335","","","75","41","","","2","41","training","adjacent","EF","5","6","N.jpg","M.jpg","0","1","0","",""
"","feedback","","html-keyboard-response","279","470067","0.0-1.0-375.0-0.0","0","0","96828","","null","","","null","41","","","","","","","","","","","","","","","",""
"","time_out","","html-keyboard-response","280","472070","0.0-1.0-377.0-0.0","0","0","96828","","null","","","null","41","","","","","","","","","","","","","","","",""
"","ITI","","html-keyboard-response","281","473071","0.0-1.0-378.0","0","0","96828","","null","","","null","41","","","","","","","","","","","","","","","NaN",""
"","S1","","html-keyboard-response","282","473323","0.0-1.0-380.0","0","0","96828","","null","","","null","42","","","","","","","","","","","","","","","",""
"","ISI","","html-keyboard-response","283","475324","0.0-1.0-381.0","0","0","96828","","null","","","null","42","NaN","","","","","","","","","","","","","","",""
"","S2","","html-keyboard-response","284","475575","0.0-1.0-382.0","0","0","96828","","null","","","null","42","","NaN","","","","","","","","","","","","","",""
"","response","","html-keyboard-response","285","475961","0.0-1.0-383.0","0","0","96828","","385","","","68","42","","","2","42","training","adjacent","DC","4","3","R.jpg","L.jpg","1","0","0","",""
"","feedback","","html-keyboard-response","286","476963","0.0-1.0-384.0-0.0","0","0","96828","","null","","","null","42","","","","","","","","","","","","","","","",""
"","time_out","","html-keyboard-response","287","478965","0.0-1.0-386.0-0.0","0","0","96828","","null","","","null","42","","","","","","","","","","","","","","","",""
"","ITI","","html-keyboard-response","288","479967","0.0-1.0-387.0","0","0","96828","","null","","","null","42","","","","","","","","","","","","","","","NaN",""
"","S1","","html-keyboard-response","289","480219","0.0-1.0-389.0","0","0","96828","","null","","","null","43","","","","","","","","","","","","","","","",""
"","ISI","","html-keyboard-response","290","482220","0.0-1.0-390.0","0","0","96828","","null","","","null","43","NaN","","","","","","","","","","","","","","",""
"","S2","","html-keyboard-response","291","482472","0.0-1.0-391.0","0","0","96828","","null","","","null","43","","NaN","","","","","","","","","","","","","",""
"","response","","html-keyboard-response","292","482706","0.0-1.0-392.0","0","0","96828","","233","","","68","43","","","2","43","training","adjacent","AB","1","2","Q.jpg","O.jpg","1","1","1","",""
"","feedback","","html-keyboard-response","293","483708","0.0-1.0-393.0-0.0","0","0","96828","","null","","","null","43","","","","","","","","","","","","","","","",""
"","ITI","","html-keyboard-response","294","484710","0.0-1.0-396.0","0","0","96828","","null","","","null","43","","","","","","","","","","","","","","","NaN",""
"","S1","","html-keyboard-response","295","484970","0.0-1.0-398.0","0","0","96828","","null","","","null","44","","","","","","","","","","","","","","","",""
"","ISI","","html-keyboard-response","296","486972","0.0-1.0-399.0","0","0","96828","","null","","","null","44","NaN","","","","","","","","","","","","","","",""
"","S2","","html-keyboard-response","297","487225","0.0-1.0-400.0","0","0","96828","","null","","","null","44","","NaN","","","","","","","","","","","","","",""
"","response","","html-keyboard-response","298","488186","0.0-1.0-401.0","0","0","96828","","960","","","68","44","","","2","44","training","adjacent","ED","5","4","N.jpg","R.jpg","1","0","0","",""
"","feedback","","html-keyboard-response","299","489189","0.0-1.0-402.0-0.0","0","0","96828","","null","","","null","44","","","","","","","","","","","","","","","",""
"","time_out","","html-keyboard-response","300","491190","0.0-1.0-404.0-0.0","0","0","96828","","null","","","null","44","","","","","","","","","","","","","","","",""
"","ITI","","html-keyboard-response","301","492191","0.0-1.0-405.0","0","0","96828","","null","","","null","44","","","","","","","","","","","","","","","NaN",""
"","S1","","html-keyboard-response","302","492443","0.0-1.0-407.0","0","0","96828","","null","","","null","45","","","","","","","","","","","","","","","",""
"","ISI","","html-keyboard-response","303","494445","0.0-1.0-408.0","0","0","96828","","null","","","null","45","NaN","","","","","","","","","","","","","","",""
"","S2","","html-keyboard-response","304","494696","0.0-1.0-409.0","0","0","96828","","null","","","null","45","","NaN","","","","","","","","","","","","","",""
"","response","","html-keyboard-response","305","494978","0.0-1.0-410.0","0","0","96828","","281","","","75","45","","","2","45","training","adjacent","BA","2","1","O.jpg","Q.jpg","0","0","1","",""
"","feedback","","html-keyboard-response","306","495980","0.0-1.0-411.0-0.0","0","0","96828","","null","","","null","45","","","","","","","","","","","","","","","",""
"","ITI","","html-keyboard-response","307","496983","0.0-1.0-414.0","0","0","96828","","null","","","null","45","","","","","","","","","","","","","","","NaN",""
"","S1","","html-keyboard-response","308","497234","0.0-1.0-416.0","0","0","96828","","null","","","null","46","","","","","","","","","","","","","","","",""
"","ISI","","html-keyboard-response","309","499236","0.0-1.0-417.0","0","0","96828","","null","","","null","46","NaN","","","","","","","","","","","","","","",""
"","S2","","html-keyboard-response","310","499488","0.0-1.0-418.0","0","0","96828","","null","","","null","46","","NaN","","","","","","","","","","","","","",""
"","response","","html-keyboard-response","311","499778","0.0-1.0-419.0","0","0","96828","","289","","","68","46","","","2","46","training","adjacent","CB","3","2","L.jpg","O.jpg","1","0","0","",""
"","feedback","","html-keyboard-response","312","500780","0.0-1.0-420.0-0.0","0","0","96828","","null","","","null","46","","","","","","","","","","","","","","","",""
"","time_out","","html-keyboard-response","313","502781","0.0-1.0-422.0-0.0","0","0","96828","","null","","","null","46","","","","","","","","","","","","","","","",""
"","ITI","","html-keyboard-response","314","503783","0.0-1.0-423.0","0","0","96828","","null","","","null","46","","","","","","","","","","","","","","","NaN",""
"","S1","","html-keyboard-response","315","504035","0.0-1.0-425.0","0","0","96828","","null","","","null","47","","","","","","","","","","","","","","","",""
"","ISI","","html-keyboard-response","316","506036","0.0-1.0-426.0","0","0","96828","","null","","","null","47","NaN","","","","","","","","","","","","","","",""
"","S2","","html-keyboard-response","317","506287","0.0-1.0-427.0","0","0","96828","","null","","","null","47","","NaN","","","","","","","","","","","","","",""
"","response","","html-keyboard-response","318","506601","0.0-1.0-428.0","0","0","96828","","314","","","75","47","","","2","47","training","adjacent","DE","4","5","R.jpg","N.jpg","0","1","0","",""
"","feedback","","html-keyboard-response","319","507603","0.0-1.0-429.0-0.0","0","0","96828","","null","","","null","47","","","","","","","","","","","","","","","",""
"","time_out","","html-keyboard-response","320","509604","0.0-1.0-431.0-0.0","0","0","96828","","null","","","null","47","","","","","","","","","","","","","","","",""
"","ITI","","html-keyboard-response","321","510605","0.0-1.0-432.0","0","0","96828","","null","","","null","47","","","","","","","","","","","","","","","NaN",""
"","S1","","html-keyboard-response","322","510857","0.0-1.0-434.0","0","0","96828","","null","","","null","48","","","","","","","","","","","","","","","",""
"","ISI","","html-keyboard-response","323","512859","0.0-1.0-435.0","0","0","96828","","null","","","null","48","NaN","","","","","","","","","","","","","","",""
"","S2","","html-keyboard-response","324","513111","0.0-1.0-436.0","0","0","96828","","null","","","null","48","","NaN","","","","","","","","","","","","","",""
"","response","","html-keyboard-response","325","513442","0.0-1.0-437.0","0","0","96828","","330","","","68","48","","","2","48","training","adjacent","FG","6","7","M.jpg","P.jpg","1","1","1","",""
"","feedback","","html-keyboard-response","326","514443","0.0-1.0-438.0-0.0","0","0","96828","","null","","","null","48","","","","","","","","","","","","","","","",""
"","ITI","","html-keyboard-response","327","515445","0.0-1.0-441.0","0","0","96828","","null","","","null","48","","","","","","","","","","","","","","","NaN",""
"","S1","","html-keyboard-response","328","515696","0.0-1.0-443.0","0","0","96828","","null","","","null","49","","","","","","","","","","","","","","","",""
"","ISI","","html-keyboard-response","329","517698","0.0-1.0-444.0","0","0","96828","","null","","","null","49","NaN","","","","","","","","","","","","","","",""
"","S2","","html-keyboard-response","330","517950","0.0-1.0-445.0","0","0","96828","","null","","","null","49","","NaN","","","","","","","","","","","","","",""
"","response","","html-keyboard-response","331","518201","0.0-1.0-446.0","0","0","96828","","251","","","68","49","","","2","49","training","adjacent","FE","6","5","M.jpg","N.jpg","1","0","0","",""
"","feedback","","html-keyboard-response","332","519212","0.0-1.0-447.0-0.0","0","0","96828","","null","","","null","49","","","","","","","","","","","","","","","",""
"","time_out","","html-keyboard-response","333","521214","0.0-1.0-449.0-0.0","0","0","96828","","null","","","null","49","","","","","","","","","","","","","","","",""
"","ITI","","html-keyboard-response","334","522215","0.0-1.0-450.0","0","0","96828","","null","","","null","49","","","","","","","","","","","","","","","NaN",""
"","S1","","html-keyboard-response","335","522468","0.0-1.0-452.0","0","0","96828","","null","","","null","50","","","","","","","","","","","","","","","",""
"","ISI","","html-keyboard-response","336","524470","0.0-1.0-453.0","0","0","96828","","null","","","null","50","NaN","","","","","","","","","","","","","","",""
"","S2","","html-keyboard-response","337","524722","0.0-1.0-454.0","0","0","96828","","null","","","null","50","","NaN","","","","","","","","","","","","","",""
"","response","","html-keyboard-response","338","525066","0.0-1.0-455.0","0","0","96828","","343","","","68","50","","","2","50","training","adjacent","FG","6","7","M.jpg","P.jpg","1","1","1","",""
"","feedback","","html-keyboard-response","339","526067","0.0-1.0-456.0-0.0","0","0","96828","","null","","","null","50","","","","","","","","","","","","","","","",""
"","ITI","","html-keyboard-response","340","527070","0.0-1.0-459.0","0","0","96828","","null","","","null","50","","","","","","","","","","","","","","","NaN",""
"","S1","","html-keyboard-response","341","527324","0.0-1.0-461.0","0","0","96828","","null","","","null","51","","","","","","","","","","","","","","","",""
"","ISI","","html-keyboard-response","342","529325","0.0-1.0-462.0","0","0","96828","","null","","","null","51","NaN","","","","","","","","","","","","","","",""
"","S2","","html-keyboard-response","343","529577","0.0-1.0-463.0","0","0","96828","","null","","","null","51","","NaN","","","","","","","","","","","","","",""
"","response","","html-keyboard-response","344","529834","0.0-1.0-464.0","0","0","96828","","255","","","75","51","","","2","51","training","adjacent","GF","7","6","P.jpg","M.jpg","0","0","1","",""
"","feedback","","html-keyboard-response","345","530836","0.0-1.0-465.0-0.0","0","0","96828","","null","","","null","51","","","","","","","","","","","","","","","",""
"","ITI","","html-keyboard-response","346","531838","0.0-1.0-468.0","0","0","96828","","null","","","null","51","","","","","","","","","","","","","","","NaN",""
"","S1","","html-keyboard-response","347","532090","0.0-1.0-470.0","0","0","96828","","null","","","null","52","","","","","","","","","","","","","","","",""
"","ISI","","html-keyboard-response","348","534092","0.0-1.0-471.0","0","0","96828","","null","","","null","52","NaN","","","","","","","","","","","","","","",""
"","S2","","html-keyboard-response","349","534344","0.0-1.0-472.0","0","0","96828","","null","","","null","52","","NaN","","","","","","","","","","","","","",""
"","response","","html-keyboard-response","350","534690","0.0-1.0-473.0","0","0","96828","","345","","","68","52","","","2","52","training","adjacent","ED","5","4","N.jpg","R.jpg","1","0","0","",""
"","feedback","","html-keyboard-response","351","535691","0.0-1.0-474.0-0.0","0","0","96828","","null","","","null","52","","","","","","","","","","","","","","","",""
"","time_out","","html-keyboard-response","352","537693","0.0-1.0-476.0-0.0","0","0","96828","","null","","","null","52","","","","","","","","","","","","","","","",""
"","ITI","","html-keyboard-response","353","538696","0.0-1.0-477.0","0","0","96828","","null","","","null","52","","","","","","","","","","","","","","","NaN",""
"","S1","","html-keyboard-response","354","538947","0.0-1.0-479.0","0","0","96828","","null","","","null","53","","","","","","","","","","","","","","","",""
"","ISI","","html-keyboard-response","355","540949","0.0-1.0-480.0","0","0","96828","","null","","","null","53","NaN","","","","","","","","","","","","","","",""
"","S2","","html-keyboard-response","356","541201","0.0-1.0-481.0","0","0","96828","","null","","","null","53","","NaN","","","","","","","","","","","","","",""
"","response","","html-keyboard-response","357","541506","0.0-1.0-482.0","0","0","96828","","304","","","68","53","","","2","53","training","adjacent","DE","4","5","R.jpg","N.jpg","1","1","1","",""
"","feedback","","html-keyboard-response","358","542508","0.0-1.0-483.0-0.0","0","0","96828","","null","","","null","53","","","","","","","","","","","","","","","",""
"","ITI","","html-keyboard-response","359","543510","0.0-1.0-486.0","0","0","96828","","null","","","null","53","","","","","","","","","","","","","","","NaN",""
"","S1","","html-keyboard-response","360","543762","0.0-1.0-488.0","0","0","96828","","null","","","null","54","","","","","","","","","","","","","","","",""
"","ISI","","html-keyboard-response","361","545764","0.0-1.0-489.0","0","0","96828","","null","","","null","54","NaN","","","","","","","","","","","","","","",""
"","S2","","html-keyboard-response","362","546016","0.0-1.0-490.0","0","0","96828","","null","","","null","54","","NaN","","","","","","","","","","","","","",""
"","response","","html-keyboard-response","363","546426","0.0-1.0-491.0","0","0","96828","","409","","","68","54","","","2","54","training","adjacent","EF","5","6","N.jpg","M.jpg","1","1","1","",""
"","feedback","","html-keyboard-response","364","547427","0.0-1.0-492.0-0.0","0","0","96828","","null","","","null","54","","","","","","","","","","","","","","","",""
"","ITI","","html-keyboard-response","365","548429","0.0-1.0-495.0","0","0","96828","","null","","","null","54","","","","","","","","","","","","","","","NaN",""
"","S1","","html-keyboard-response","366","548681","0.0-1.0-497.0","0","0","96828","","null","","","null","55","","","","","","","","","","","","","","","",""
"","ISI","","html-keyboard-response","367","550683","0.0-1.0-498.0","0","0","96828","","null","","","null","55","NaN","","","","","","","","","","","","","","",""
"","S2","","html-keyboard-response","368","550935","0.0-1.0-499.0","0","0","96828","","null","","","null","55","","NaN","","","","","","","","","","","","","",""
"","response","","html-keyboard-response","369","551242","0.0-1.0-500.0","0","0","96828","","305","","","75","55","","","2","55","training","adjacent","CD","3","4","L.jpg","R.jpg","0","1","0","",""
"","feedback","","html-keyboard-response","370","552259","0.0-1.0-501.0-0.0","0","0","96828","","null","","","null","55","","","","","","","","","","","","","","","",""
"","time_out","","html-keyboard-response","371","554261","0.0-1.0-503.0-0.0","0","0","96828","","null","","","null","55","","","","","","","","","","","","","","","",""
"","ITI","","html-keyboard-response","372","555263","0.0-1.0-504.0","0","0","96828","","null","","","null","55","","","","","","","","","","","","","","","NaN",""
"","S1","","html-keyboard-response","373","555528","0.0-1.0-506.0","0","0","96828","","null","","","null","56","","","","","","","","","","","","","","","",""
"","ISI","","html-keyboard-response","374","557530","0.0-1.0-507.0","0","0","96828","","null","","","null","56","NaN","","","","","","","","","","","","","","",""
"","S2","","html-keyboard-response","375","557788","0.0-1.0-508.0","0","0","96828","","null","","","null","56","","NaN","","","","","","","","","","","","","",""
"","response","","html-keyboard-response","376","558202","0.0-1.0-509.0","0","0","96828","","413","","","75","56","","","2","56","training","adjacent","FE","6","5","M.jpg","N.jpg","0","0","1","",""
"","feedback","","html-keyboard-response","377","559203","0.0-1.0-510.0-0.0","0","0","96828","","null","","","null","56","","","","","","","","","","","","","","","",""
"","ITI","","html-keyboard-response","378","560205","0.0-1.0-513.0","0","0","96828","","null","","","null","56","","","","","","","","","","","","","","","NaN",""
"","S1","","html-keyboard-response","379","560457","0.0-1.0-515.0","0","0","96828","","null","","","null","57","","","","","","","","","","","","","","","",""
"","ISI","","html-keyboard-response","380","562459","0.0-1.0-516.0","0","0","96828","","null","","","null","57","NaN","","","","","","","","","","","","","","",""
"","S2","","html-keyboard-response","381","562710","0.0-1.0-517.0","0","0","96828","","null","","","null","57","","NaN","","","","","","","","","","","","","",""
"","response","","html-keyboard-response","382","562970","0.0-1.0-518.0","0","0","96828","","258","","","68","57","","","2","57","training","adjacent","DE","4","5","R.jpg","N.jpg","1","1","1","",""
"","feedback","","html-keyboard-response","383","563972","0.0-1.0-519.0-0.0","0","0","96828","","null","","","null","57","","","","","","","","","","","","","","","",""
"","ITI","","html-keyboard-response","384","564974","0.0-1.0-522.0","0","0","96828","","null","","","null","57","","","","","","","","","","","","","","","NaN",""
"","S1","","html-keyboard-response","385","565226","0.0-1.0-524.0","0","0","96828","","null","","","null","58","","","","","","","","","","","","","","","",""
"","ISI","","html-keyboard-response","386","567227","0.0-1.0-525.0","0","0","96828","","null","","","null","58","NaN","","","","","","","","","","","","","","",""
"","S2","","html-keyboard-response","387","567480","0.0-1.0-526.0","0","0","96828","","null","","","null","58","","NaN","","","","","","","","","","","","","",""
"","response","","html-keyboard-response","388","567866","0.0-1.0-527.0","0","0","96828","","385","","","68","58","","","2","58","training","adjacent","BC","2","3","O.jpg","L.jpg","1","1","1","",""
"","feedback","","html-keyboard-response","389","568868","0.0-1.0-528.0-0.0","0","0","96828","","null","","","null","58","","","","","","","","","","","","","","","",""
"","ITI","","html-keyboard-response","390","569870","0.0-1.0-531.0","0","0","96828","","null","","","null","58","","","","","","","","","","","","","","","NaN",""
"","S1","","html-keyboard-response","391","570122","0.0-1.0-533.0","0","0","96828","","null","","","null","59","","","","","","","","","","","","","","","",""
"","ISI","","html-keyboard-response","392","572123","0.0-1.0-534.0","0","0","96828","","null","","","null","59","NaN","","","","","","","","","","","","","","",""
"","S2","","html-keyboard-response","393","572375","0.0-1.0-535.0","0","0","96828","","null","","","null","59","","NaN","","","","","","","","","","","","","",""
"","response","","html-keyboard-response","394","572730","0.0-1.0-536.0","0","0","96828","","353","","","75","59","","","2","59","training","adjacent","ED","5","4","N.jpg","R.jpg","0","0","1","",""
"","feedback","","html-keyboard-response","395","573731","0.0-1.0-537.0-0.0","0","0","96828","","null","","","null","59","","","","","","","","","","","","","","","",""
"","ITI","","html-keyboard-response","396","574734","0.0-1.0-540.0","0","0","96828","","null","","","null","59","","","","","","","","","","","","","","","NaN",""
"","S1","","html-keyboard-response","397","574986","0.0-1.0-542.0","0","0","96828","","null","","","null","60","","","","","","","","","","","","","","","",""
"","ISI","","html-keyboard-response","398","576987","0.0-1.0-543.0","0","0","96828","","null","","","null","60","NaN","","","","","","","","","","","","","","",""
"","S2","","html-keyboard-response","399","577239","0.0-1.0-544.0","0","0","96828","","null","","","null","60","","NaN","","","","","","","","","","","","","",""
"","response","","html-keyboard-response","400","577610","0.0-1.0-545.0","0","0","96828","","370","","","68","60","","","2","60","training","adjacent","DE","4","5","R.jpg","N.jpg","1","1","1","",""
"","feedback","","html-keyboard-response","401","578611","0.0-1.0-546.0-0.0","0","0","96828","","null","","","null","60","","","","","","","","","","","","","","","",""
"","ITI","","html-keyboard-response","402","579613","0.0-1.0-549.0","0","0","96828","","null","","","null","60","","","","","","","","","","","","","","","NaN",""
"","S1","","html-keyboard-response","403","579864","0.0-1.0-551.0","0","0","96828","","null","","","null","61","","","","","","","","","","","","","","","",""
"","ISI","","html-keyboard-response","404","581866","0.0-1.0-552.0","0","0","96828","","null","","","null","61","NaN","","","","","","","","","","","","","","",""
"","S2","","html-keyboard-response","405","582118","0.0-1.0-553.0","0","0","96828","","null","","","null","61","","NaN","","","","","","","","","","","","","",""
"","response","","html-keyboard-response","406","582441","0.0-1.0-554.0","0","0","96828","","323","","","75","61","","","2","61","training","adjacent","CB","3","2","L.jpg","O.jpg","0","0","1","",""
"","feedback","","html-keyboard-response","407","583443","0.0-1.0-555.0-0.0","0","0","96828","","null","","","null","61","","","","","","","","","","","","","","","",""
"","ITI","","html-keyboard-response","408","584444","0.0-1.0-558.0","0","0","96828","","null","","","null","61","","","","","","","","","","","","","","","NaN",""
"","S1","","html-keyboard-response","409","584696","0.0-1.0-560.0","0","0","96828","","null","","","null","62","","","","","","","","","","","","","","","",""
"","ISI","","html-keyboard-response","410","586698","0.0-1.0-561.0","0","0","96828","","null","","","null","62","NaN","","","","","","","","","","","","","","",""
"","S2","","html-keyboard-response","411","586950","0.0-1.0-562.0","0","0","96828","","null","","","null","62","","NaN","","","","","","","","","","","","","",""
"","response","","html-keyboard-response","412","587321","0.0-1.0-563.0","0","0","96828","","370","","","75","62","","","2","62","training","adjacent","ED","5","4","N.jpg","R.jpg","0","0","1","",""
"","feedback","","html-keyboard-response","413","588324","0.0-1.0-564.0-0.0","0","0","96828","","null","","","null","62","","","","","","","","","","","","","","","",""
"","ITI","","html-keyboard-response","414","589327","0.0-1.0-567.0","0","0","96828","","null","","","null","62","","","","","","","","","","","","","","","NaN",""
"","S1","","html-keyboard-response","415","589578","0.0-1.0-569.0","0","0","96828","","null","","","null","63","","","","","","","","","","","","","","","",""
"","ISI","","html-keyboard-response","416","591581","0.0-1.0-570.0","0","0","96828","","null","","","null","63","NaN","","","","","","","","","","","","","","",""
"","S2","","html-keyboard-response","417","591832","0.0-1.0-571.0","0","0","96828","","null","","","null","63","","NaN","","","","","","","","","","","","","",""
"","response","","html-keyboard-response","418","592066","0.0-1.0-572.0","0","0","96828","","233","","","75","63","","","2","63","training","adjacent","CD","3","4","L.jpg","R.jpg","0","1","0","",""
"","feedback","","html-keyboard-response","419","593068","0.0-1.0-573.0-0.0","0","0","96828","","null","","","null","63","","","","","","","","","","","","","","","",""
"","time_out","","html-keyboard-response","420","595075","0.0-1.0-575.0-0.0","0","0","96828","","null","","","null","63","","","","","","","","","","","","","","","",""
"","ITI","","html-keyboard-response","421","596076","0.0-1.0-576.0","0","0","96828","","null","","","null","63","","","","","","","","","","","","","","","NaN",""
"","S1","","html-keyboard-response","422","596328","0.0-1.0-578.0","0","0","96828","","null","","","null","64","","","","","","","","","","","","","","","",""
"","ISI","","html-keyboard-response","423","598330","0.0-1.0-579.0","0","0","96828","","null","","","null","64","NaN","","","","","","","","","","","","","","",""
"","S2","","html-keyboard-response","424","598597","0.0-1.0-580.0","0","0","96828","","null","","","null","64","","NaN","","","","","","","","","","","","","",""
"","response","","html-keyboard-response","425","598977","0.0-1.0-581.0","0","0","96828","","380","","","75","64","","","2","64","training","adjacent","FE","6","5","M.jpg","N.jpg","0","0","1","",""
"","feedback","","html-keyboard-response","426","599979","0.0-1.0-582.0-0.0","0","0","96828","","null","","","null","64","","","","","","","","","","","","","","","",""
"","ITI","","html-keyboard-response","427","600980","0.0-1.0-585.0","0","0","96828","","null","","","null","64","","","","","","","","","","","","","","","NaN",""
"","S1","","html-keyboard-response","428","601233","0.0-1.0-587.0","0","0","96828","","null","","","null","65","","","","","","","","","","","","","","","",""
"","ISI","","html-keyboard-response","429","603247","0.0-1.0-588.0","0","0","96828","","null","","","null","65","NaN","","","","","","","","","","","","","","",""
"","S2","","html-keyboard-response","430","603499","0.0-1.0-589.0","0","0","96828","","null","","","null","65","","NaN","","","","","","","","","","","","","",""
"","response","","html-keyboard-response","431","603817","0.0-1.0-590.0","0","0","96828","","317","","","75","65","","","2","65","training","adjacent","BA","2","1","O.jpg","Q.jpg","0","0","1","",""
"","feedback","","html-keyboard-response","432","604819","0.0-1.0-591.0-0.0","0","0","96828","","null","","","null","65","","","","","","","","","","","","","","","",""
"","ITI","","html-keyboard-response","433","605820","0.0-1.0-594.0","0","0","96828","","null","","","null","65","","","","","","","","","","","","","","","NaN",""
"","S1","","html-keyboard-response","434","606073","0.0-1.0-596.0","0","0","96828","","null","","","null","66","","","","","","","","","","","","","","","",""
"","ISI","","html-keyboard-response","435","608074","0.0-1.0-597.0","0","0","96828","","null","","","null","66","NaN","","","","","","","","","","","","","","",""
"","S2","","html-keyboard-response","436","608325","0.0-1.0-598.0","0","0","96828","","null","","","null","66","","NaN","","","","","","","","","","","","","",""
"","response","","html-keyboard-response","437","608641","0.0-1.0-599.0","0","0","96828","","315","","","68","66","","","2","66","training","adjacent","AB","1","2","Q.jpg","O.jpg","1","1","1","",""
"","feedback","","html-keyboard-response","438","609642","0.0-1.0-600.0-0.0","0","0","96828","","null","","","null","66","","","","","","","","","","","","","","","",""
"","ITI","","html-keyboard-response","439","610644","0.0-1.0-603.0","0","0","96828","","null","","","null","66","","","","","","","","","","","","","","","NaN",""
"","S1","","html-keyboard-response","440","610897","0.0-1.0-605.0","0","0","96828","","null","","","null","67","","","","","","","","","","","","","","","",""
"","ISI","","html-keyboard-response","441","612898","0.0-1.0-606.0","0","0","96828","","null","","","null","67","NaN","","","","","","","","","","","","","","",""
"","S2","","html-keyboard-response","442","613151","0.0-1.0-607.0","0","0","96828","","null","","","null","67","","NaN","","","","","","","","","","","","","",""
"","response","","html-keyboard-response","443","613561","0.0-1.0-608.0","0","0","96828","","409","","","68","67","","","2","67","training","adjacent","CD","3","4","L.jpg","R.jpg","1","1","1","",""
"","feedback","","html-keyboard-response","444","614563","0.0-1.0-609.0-0.0","0","0","96828","","null","","","null","67","","","","","","","","","","","","","","","",""
"","ITI","","html-keyboard-response","445","615565","0.0-1.0-612.0","0","0","96828","","null","","","null","67","","","","","","","","","","","","","","","NaN",""
"","S1","","html-keyboard-response","446","615817","0.0-1.0-614.0","0","0","96828","","null","","","null","68","","","","","","","","","","","","","","","",""
"","ISI","","html-keyboard-response","447","617820","0.0-1.0-615.0","0","0","96828","","null","","","null","68","NaN","","","","","","","","","","","","","","",""
"","S2","","html-keyboard-response","448","618071","0.0-1.0-616.0","0","0","96828","","null","","","null","68","","NaN","","","","","","","","","","","","","",""
"","response","","html-keyboard-response","449","618458","0.0-1.0-617.0","0","0","96828","","385","","","68","68","","","2","68","training","adjacent","EF","5","6","N.jpg","M.jpg","1","1","1","",""
"","feedback","","html-keyboard-response","450","619460","0.0-1.0-618.0-0.0","0","0","96828","","null","","","null","68","","","","","","","","","","","","","","","",""
"","ITI","","html-keyboard-response","451","620462","0.0-1.0-621.0","0","0","96828","","null","","","null","68","","","","","","","","","","","","","","","NaN",""
"","S1","","html-keyboard-response","452","620714","0.0-1.0-623.0","0","0","96828","","null","","","null","69","","","","","","","","","","","","","","","",""
"","ISI","","html-keyboard-response","453","622715","0.0-1.0-624.0","0","0","96828","","null","","","null","69","NaN","","","","","","","","","","","","","","",""
"","S2","","html-keyboard-response","454","622967","0.0-1.0-625.0","0","0","96828","","null","","","null","69","","NaN","","","","","","","","","","","","","",""
"","response","","html-keyboard-response","455","623321","0.0-1.0-626.0","0","0","96828","","353","","","68","69","","","2","69","training","adjacent","FG","6","7","M.jpg","P.jpg","1","1","1","",""
"","feedback","","html-keyboard-response","456","624323","0.0-1.0-627.0-0.0","0","0","96828","","null","","","null","69","","","","","","","","","","","","","","","",""
"","ITI","","html-keyboard-response","457","625325","0.0-1.0-630.0","0","0","96828","","null","","","null","69","","","","","","","","","","","","","","","NaN",""
"","S1","","html-keyboard-response","458","625577","0.0-1.0-632.0","0","0","96828","","null","","","null","70","","","","","","","","","","","","","","","",""
"","ISI","","html-keyboard-response","459","627579","0.0-1.0-633.0","0","0","96828","","null","","","null","70","NaN","","","","","","","","","","","","","","",""
"","S2","","html-keyboard-response","460","627831","0.0-1.0-634.0","0","0","96828","","null","","","null","70","","NaN","","","","","","","","","","","","","",""
"","response","","html-keyboard-response","461","628145","0.0-1.0-635.0","0","0","96828","","314","","","68","70","","","2","70","training","adjacent","DC","4","3","R.jpg","L.jpg","1","0","0","",""
"","feedback","","html-keyboard-response","462","629147","0.0-1.0-636.0-0.0","0","0","96828","","null","","","null","70","","","","","","","","","","","","","","","",""
"","time_out","","html-keyboard-response","463","631149","0.0-1.0-638.0-0.0","0","0","96828","","null","","","null","70","","","","","","","","","","","","","","","",""
"","ITI","","html-keyboard-response","464","632150","0.0-1.0-639.0","0","0","96828","","null","","","null","70","","","","","","","","","","","","","","","NaN",""
"","S1","","html-keyboard-response","465","632414","0.0-1.0-641.0","0","0","96828","","null","","","null","71","","","","","","","","","","","","","","","",""
"","ISI","","html-keyboard-response","466","634416","0.0-1.0-642.0","0","0","96828","","null","","","null","71","NaN","","","","","","","","","","","","","","",""
"","S2","","html-keyboard-response","467","634668","0.0-1.0-643.0","0","0","96828","","null","","","null","71","","NaN","","","","","","","","","","","","","",""
"","response","","html-keyboard-response","468","635105","0.0-1.0-644.0","0","0","96828","","437","","","75","71","","","2","71","training","adjacent","BC","2","3","O.jpg","L.jpg","0","1","0","",""
"","feedback","","html-keyboard-response","469","636107","0.0-1.0-645.0-0.0","0","0","96828","","null","","","null","71","","","","","","","","","","","","","","","",""
"","time_out","","html-keyboard-response","470","638109","0.0-1.0-647.0-0.0","0","0","96828","","null","","","null","71","","","","","","","","","","","","","","","",""
"","ITI","","html-keyboard-response","471","639125","0.0-1.0-648.0","0","0","96828","","null","","","null","71","","","","","","","","","","","","","","","NaN",""
"","S1","","html-keyboard-response","472","639376","0.0-1.0-650.0","0","0","96828","","null","","","null","72","","","","","","","","","","","","","","","",""
"","ISI","","html-keyboard-response","473","641377","0.0-1.0-651.0","0","0","96828","","null","","","null","72","NaN","","","","","","","","","","","","","","",""
"","S2","","html-keyboard-response","474","641630","0.0-1.0-652.0","0","0","96828","","null","","","null","72","","NaN","","","","","","","","","","","","","",""
"","response","","html-keyboard-response","475","642130","0.0-1.0-653.0","0","0","96828","","500","","","75","72","","","2","72","training","adjacent","CB","3","2","L.jpg","O.jpg","0","0","1","",""
"","feedback","","html-keyboard-response","476","643133","0.0-1.0-654.0-0.0","0","0","96828","","null","","","null","72","","","","","","","","","","","","","","","",""
"","ITI","","html-keyboard-response","477","644134","0.0-1.0-657.0","0","0","96828","","null","","","null","72","","","","","","","","","","","","","","","NaN",""
"","S1","","html-keyboard-response","478","644385","0.0-1.0-659.0","0","0","96828","","null","","","null","73","","","","","","","","","","","","","","","",""
"","ISI","","html-keyboard-response","479","646386","0.0-1.0-660.0","0","0","96828","","null","","","null","73","NaN","","","","","","","","","","","","","","",""
"","S2","","html-keyboard-response","480","646639","0.0-1.0-661.0","0","0","96828","","null","","","null","73","","NaN","","","","","","","","","","","","","",""
"","response","","html-keyboard-response","481","647178","0.0-1.0-662.0","0","0","96828","","538","","","75","73","","","2","73","training","adjacent","DC","4","3","R.jpg","L.jpg","0","0","1","",""
"","feedback","","html-keyboard-response","482","648181","0.0-1.0-663.0-0.0","0","0","96828","","null","","","null","73","","","","","","","","","","","","","","","",""
"","ITI","","html-keyboard-response","483","649183","0.0-1.0-666.0","0","0","96828","","null","","","null","73","","","","","","","","","","","","","","","NaN",""
"","S1","","html-keyboard-response","484","649435","0.0-1.0-668.0","0","0","96828","","null","","","null","74","","","","","","","","","","","","","","","",""
"","ISI","","html-keyboard-response","485","651436","0.0-1.0-669.0","0","0","96828","","null","","","null","74","NaN","","","","","","","","","","","","","","",""
"","S2","","html-keyboard-response","486","651688","0.0-1.0-670.0","0","0","96828","","null","","","null","74","","NaN","","","","","","","","","","","","","",""
"","response","","html-keyboard-response","487","652010","0.0-1.0-671.0","0","0","96828","","320","","","75","74","","","2","74","training","adjacent","GF","7","6","P.jpg","M.jpg","0","0","1","",""
"","feedback","","html-keyboard-response","488","653011","0.0-1.0-672.0-0.0","0","0","96828","","null","","","null","74","","","","","","","","","","","","","","","",""
"","ITI","","html-keyboard-response","489","654013","0.0-1.0-675.0","0","0","96828","","null","","","null","74","","","","","","","","","","","","","","","NaN",""
"","S1","","html-keyboard-response","490","654265","0.0-1.0-677.0","0","0","96828","","null","","","null","75","","","","","","","","","","","","","","","",""
"","ISI","","html-keyboard-response","491","656267","0.0-1.0-678.0","0","0","96828","","null","","","null","75","NaN","","","","","","","","","","","","","","",""
"","S2","","html-keyboard-response","492","656518","0.0-1.0-679.0","0","0","96828","","null","","","null","75","","NaN","","","","","","","","","","","","","",""
"","response","","html-keyboard-response","493","656867","0.0-1.0-680.0","0","0","96828","","348","","","75","75","","","2","75","training","adjacent","BA","2","1","O.jpg","Q.jpg","0","0","1","",""
"","feedback","","html-keyboard-response","494","657869","0.0-1.0-681.0-0.0","0","0","96828","","null","","","null","75","","","","","","","","","","","","","","","",""
"","ITI","","html-keyboard-response","495","658872","0.0-1.0-684.0","0","0","96828","","null","","","null","75","","","","","","","","","","","","","","","NaN",""
"","S1","","html-keyboard-response","496","659124","0.0-1.0-686.0","0","0","96828","","null","","","null","76","","","","","","","","","","","","","","","",""
"","ISI","","html-keyboard-response","497","661125","0.0-1.0-687.0","0","0","96828","","null","","","null","76","NaN","","","","","","","","","","","","","","",""
"","S2","","html-keyboard-response","498","661377","0.0-1.0-688.0","0","0","96828","","null","","","null","76","","NaN","","","","","","","","","","","","","",""
"","response","","html-keyboard-response","499","661618","0.0-1.0-689.0","0","0","96828","","240","","","68","76","","","2","76","training","adjacent","AB","1","2","Q.jpg","O.jpg","1","1","1","",""
"","feedback","","html-keyboard-response","500","662620","0.0-1.0-690.0-0.0","0","0","96828","","null","","","null","76","","","","","","","","","","","","","","","",""
"","ITI","","html-keyboard-response","501","663622","0.0-1.0-693.0","0","0","96828","","null","","","null","76","","","","","","","","","","","","","","","NaN",""
"","S1","","html-keyboard-response","502","663874","0.0-1.0-695.0","0","0","96828","","null","","","null","77","","","","","","","","","","","","","","","",""
"","ISI","","html-keyboard-response","503","665876","0.0-1.0-696.0","0","0","96828","","null","","","null","77","NaN","","","","","","","","","","","","","","",""
"","S2","","html-keyboard-response","504","666128","0.0-1.0-697.0","0","0","96828","","null","","","null","77","","NaN","","","","","","","","","","","","","",""
"","response","","html-keyboard-response","505","666354","0.0-1.0-698.0","0","0","96828","","225","","","75","77","","","2","77","training","adjacent","DC","4","3","R.jpg","L.jpg","0","0","1","",""
"","feedback","","html-keyboard-response","506","667356","0.0-1.0-699.0-0.0","0","0","96828","","null","","","null","77","","","","","","","","","","","","","","","",""
"","ITI","","html-keyboard-response","507","668358","0.0-1.0-702.0","0","0","96828","","null","","","null","77","","","","","","","","","","","","","","","NaN",""
"","S1","","html-keyboard-response","508","668610","0.0-1.0-704.0","0","0","96828","","null","","","null","78","","","","","","","","","","","","","","","",""
"","ISI","","html-keyboard-response","509","670612","0.0-1.0-705.0","0","0","96828","","null","","","null","78","NaN","","","","","","","","","","","","","","",""
"","S2","","html-keyboard-response","510","670863","0.0-1.0-706.0","0","0","96828","","null","","","null","78","","NaN","","","","","","","","","","","","","",""
"","response","","html-keyboard-response","511","671482","0.0-1.0-707.0","0","0","96828","","617","","","75","78","","","2","78","training","adjacent","GF","7","6","P.jpg","M.jpg","0","0","1","",""
"","feedback","","html-keyboard-response","512","672484","0.0-1.0-708.0-0.0","0","0","96828","","null","","","null","78","","","","","","","","","","","","","","","",""
"","ITI","","html-keyboard-response","513","673485","0.0-1.0-711.0","0","0","96828","","null","","","null","78","","","","","","","","","","","","","","","NaN",""
"","S1","","html-keyboard-response","514","673738","0.0-1.0-713.0","0","0","96828","","null","","","null","79","","","","","","","","","","","","","","","",""
"","ISI","","html-keyboard-response","515","675740","0.0-1.0-714.0","0","0","96828","","null","","","null","79","NaN","","","","","","","","","","","","","","",""
"","S2","","html-keyboard-response","516","676006","0.0-1.0-715.0","0","0","96828","","null","","","null","79","","NaN","","","","","","","","","","","","","",""
"","response","","html-keyboard-response","517","676466","0.0-1.0-716.0","0","0","96828","","459","","","75","79","","","2","79","training","adjacent","BC","2","3","O.jpg","L.jpg","0","1","0","",""
"","feedback","","html-keyboard-response","518","677468","0.0-1.0-717.0-0.0","0","0","96828","","null","","","null","79","","","","","","","","","","","","","","","",""
"","time_out","","html-keyboard-response","519","679470","0.0-1.0-719.0-0.0","0","0","96828","","null","","","null","79","","","","","","","","","","","","","","","",""
"","ITI","","html-keyboard-response","520","680472","0.0-1.0-720.0","0","0","96828","","null","","","null","79","","","","","","","","","","","","","","","NaN",""
"","block_over","","html-keyboard-response","521","686714","0.0-1.0-721.0-0.0","0","0","96828","","6240","","","32","79","","","","","","","","","","","","","","","",""
"","S1","","html-keyboard-response","522","686966","0.0-1.0-722.0","0","0","96828","","null","","","null","80","","","","","","","","","","","","","","","",""
"","ISI","","html-keyboard-response","523","688968","0.0-1.0-723.0","0","0","96828","","null","","","null","80","NaN","","","","","","","","","","","","","","",""
"","S2","","html-keyboard-response","524","689220","0.0-1.0-724.0","0","0","96828","","null","","","null","80","","NaN","","","","","","","","","","","","","",""
"","response","","html-keyboard-response","525","689554","0.0-1.0-725.0","0","0","96828","","332","","","75","80","","","3","80","training","adjacent","ED","5","4","N.jpg","R.jpg","0","0","1","",""
"","feedback","","html-keyboard-response","526","690556","0.0-1.0-726.0-0.0","0","0","96828","","null","","","null","80","","","","","","","","","","","","","","","",""
"","ITI","","html-keyboard-response","527","691558","0.0-1.0-729.0","0","0","96828","","null","","","null","80","","","","","","","","","","","","","","","NaN",""
"","S1","","html-keyboard-response","528","691811","0.0-1.0-731.0","0","0","96828","","null","","","null","81","","","","","","","","","","","","","","","",""
"","ISI","","html-keyboard-response","529","693812","0.0-1.0-732.0","0","0","96828","","null","","","null","81","NaN","","","","","","","","","","","","","","",""
"","S2","","html-keyboard-response","530","694064","0.0-1.0-733.0","0","0","96828","","null","","","null","81","","NaN","","","","","","","","","","","","","",""
"","response","","html-keyboard-response","531","694514","0.0-1.0-734.0","0","0","96828","","449","","","68","81","","","3","81","training","adjacent","BC","2","3","O.jpg","L.jpg","1","1","1","",""
"","feedback","","html-keyboard-response","532","695517","0.0-1.0-735.0-0.0","0","0","96828","","null","","","null","81","","","","","","","","","","","","","","","",""
"","ITI","","html-keyboard-response","533","696519","0.0-1.0-738.0","0","0","96828","","null","","","null","81","","","","","","","","","","","","","","","NaN",""
"","S1","","html-keyboard-response","534","696770","0.0-1.0-740.0","0","0","96828","","null","","","null","82","","","","","","","","","","","","","","","",""
"","ISI","","html-keyboard-response","535","698772","0.0-1.0-741.0","0","0","96828","","null","","","null","82","NaN","","","","","","","","","","","","","","",""
"","S2","","html-keyboard-response","536","699024","0.0-1.0-742.0","0","0","96828","","null","","","null","82","","NaN","","","","","","","","","","","","","",""
"","response","","html-keyboard-response","537","699330","0.0-1.0-743.0","0","0","96828","","306","","","75","82","","","3","82","training","adjacent","GF","7","6","P.jpg","M.jpg","0","0","1","",""
"","feedback","","html-keyboard-response","538","700332","0.0-1.0-744.0-0.0","0","0","96828","","null","","","null","82","","","","","","","","","","","","","","","",""
"","ITI","","html-keyboard-response","539","701335","0.0-1.0-747.0","0","0","96828","","null","","","null","82","","","","","","","","","","","","","","","NaN",""
"","S1","","html-keyboard-response","540","701587","0.0-1.0-749.0","0","0","96828","","null","","","null","83","","","","","","","","","","","","","","","",""
"","ISI","","html-keyboard-response","541","703588","0.0-1.0-750.0","0","0","96828","","null","","","null","83","NaN","","","","","","","","","","","","","","",""
"","S2","","html-keyboard-response","542","703840","0.0-1.0-751.0","0","0","96828","","null","","","null","83","","NaN","","","","","","","","","","","","","",""
"","response","","html-keyboard-response","543","704193","0.0-1.0-752.0","0","0","96828","","353","","","68","83","","","3","83","training","adjacent","DE","4","5","R.jpg","N.jpg","1","1","1","",""
"","feedback","","html-keyboard-response","544","705195","0.0-1.0-753.0-0.0","0","0","96828","","null","","","null","83","","","","","","","","","","","","","","","",""
"","ITI","","html-keyboard-response","545","706197","0.0-1.0-756.0","0","0","96828","","null","","","null","83","","","","","","","","","","","","","","","NaN",""
"","S1","","html-keyboard-response","546","706450","0.0-1.0-758.0","0","0","96828","","null","","","null","84","","","","","","","","","","","","","","","",""
"","ISI","","html-keyboard-response","547","708452","0.0-1.0-759.0","0","0","96828","","null","","","null","84","NaN","","","","","","","","","","","","","","",""
"","S2","","html-keyboard-response","548","708703","0.0-1.0-760.0","0","0","96828","","null","","","null","84","","NaN","","","","","","","","","","","","","",""
"","response","","html-keyboard-response","549","709169","0.0-1.0-761.0","0","0","96828","","465","","","75","84","","","3","84","training","adjacent","DC","4","3","R.jpg","L.jpg","0","0","1","",""
"","feedback","","html-keyboard-response","550","710171","0.0-1.0-762.0-0.0","0","0","96828","","null","","","null","84","","","","","","","","","","","","","","","",""
"","ITI","","html-keyboard-response","551","711173","0.0-1.0-765.0","0","0","96828","","null","","","null","84","","","","","","","","","","","","","","","NaN",""
"","S1","","html-keyboard-response","552","711425","0.0-1.0-767.0","0","0","96828","","null","","","null","85","","","","","","","","","","","","","","","",""
"","ISI","","html-keyboard-response","553","713427","0.0-1.0-768.0","0","0","96828","","null","","","null","85","NaN","","","","","","","","","","","","","","",""
"","S2","","html-keyboard-response","554","713680","0.0-1.0-769.0","0","0","96828","","null","","","null","85","","NaN","","","","","","","","","","","","","",""
"","response","","html-keyboard-response","555","713713","0.0-1.0-770.0","0","0","96828","","33","","","68","85","","","3","85","training","adjacent","AB","1","2","Q.jpg","O.jpg","1","1","1","",""
"","feedback","","html-keyboard-response","556","714715","0.0-1.0-771.0-0.0","0","0","96828","","null","","","null","85","","","","","","","","","","","","","","","",""
"","ITI","","html-keyboard-response","557","715718","0.0-1.0-774.0","0","0","96828","","null","","","null","85","","","","","","","","","","","","","","","NaN",""
"","S1","","html-keyboard-response","558","715970","0.0-1.0-776.0","0","0","96828","","null","","","null","86","","","","","","","","","","","","","","","",""
"","ISI","","html-keyboard-response","559","717972","0.0-1.0-777.0","0","0","96828","","null","","","null","86","NaN","","","","","","","","","","","","","","",""
"","S2","","html-keyboard-response","560","718223","0.0-1.0-778.0","0","0","96828","","null","","","null","86","","NaN","","","","","","","","","","","","","",""
"","response","","html-keyboard-response","561","718538","0.0-1.0-779.0","0","0","96828","","313","","","75","86","","","3","86","training","adjacent","CB","3","2","L.jpg","O.jpg","0","0","1","",""
"","feedback","","html-keyboard-response","562","719540","0.0-1.0-780.0-0.0","0","0","96828","","null","","","null","86","","","","","","","","","","","","","","","",""
"","ITI","","html-keyboard-response","563","720543","0.0-1.0-783.0","0","0","96828","","null","","","null","86","","","","","","","","","","","","","","","NaN",""
"","S1","","html-keyboard-response","564","720794","0.0-1.0-785.0","0","0","96828","","null","","","null","87","","","","","","","","","","","","","","","",""
"","ISI","","html-keyboard-response","565","722796","0.0-1.0-786.0","0","0","96828","","null","","","null","87","NaN","","","","","","","","","","","","","","",""
"","S2","","html-keyboard-response","566","723047","0.0-1.0-787.0","0","0","96828","","null","","","null","87","","NaN","","","","","","","","","","","","","",""
"","response","","html-keyboard-response","567","723361","0.0-1.0-788.0","0","0","96828","","314","","","75","87","","","3","87","training","adjacent","GF","7","6","P.jpg","M.jpg","0","0","1","",""
"","feedback","","html-keyboard-response","568","724363","0.0-1.0-789.0-0.0","0","0","96828","","null","","","null","87","","","","","","","","","","","","","","","",""
"","ITI","","html-keyboard-response","569","725365","0.0-1.0-792.0","0","0","96828","","null","","","null","87","","","","","","","","","","","","","","","NaN",""
"","S1","","html-keyboard-response","570","725617","0.0-1.0-794.0","0","0","96828","","null","","","null","88","","","","","","","","","","","","","","","",""
"","ISI","","html-keyboard-response","571","727618","0.0-1.0-795.0","0","0","96828","","null","","","null","88","NaN","","","","","","","","","","","","","","",""
"","S2","","html-keyboard-response","572","727870","0.0-1.0-796.0","0","0","96828","","null","","","null","88","","NaN","","","","","","","","","","","","","",""
"","response","","html-keyboard-response","573","728402","0.0-1.0-797.0","0","0","96828","","531","","","68","88","","","3","88","training","adjacent","EF","5","6","N.jpg","M.jpg","1","1","1","",""
"","feedback","","html-keyboard-response","574","729406","0.0-1.0-798.0-0.0","0","0","96828","","null","","","null","88","","","","","","","","","","","","","","","",""
"","ITI","","html-keyboard-response","575","730408","0.0-1.0-801.0","0","0","96828","","null","","","null","88","","","","","","","","","","","","","","","NaN",""
"","S1","","html-keyboard-response","576","730661","0.0-1.0-803.0","0","0","96828","","null","","","null","89","","","","","","","","","","","","","","","",""
"","ISI","","html-keyboard-response","577","732663","0.0-1.0-804.0","0","0","96828","","null","","","null","89","NaN","","","","","","","","","","","","","","",""
"","S2","","html-keyboard-response","578","732915","0.0-1.0-805.0","0","0","96828","","null","","","null","89","","NaN","","","","","","","","","","","","","",""
"","response","","html-keyboard-response","579","733521","0.0-1.0-806.0","0","0","96828","","605","","","68","89","","","3","89","training","adjacent","FE","6","5","M.jpg","N.jpg","1","0","0","",""
"","feedback","","html-keyboard-response","580","734523","0.0-1.0-807.0-0.0","0","0","96828","","null","","","null","89","","","","","","","","","","","","","","","",""
"","time_out","","html-keyboard-response","581","736526","0.0-1.0-809.0-0.0","0","0","96828","","null","","","null","89","","","","","","","","","","","","","","","",""
"","ITI","","html-keyboard-response","582","737528","0.0-1.0-810.0","0","0","96828","","null","","","null","89","","","","","","","","","","","","","","","NaN",""
"","S1","","html-keyboard-response","583","737780","0.0-1.0-812.0","0","0","96828","","null","","","null","90","","","","","","","","","","","","","","","",""
