"success","ttype","start_time","trial_type","trial_index","time_elapsed","internal_node_id","warning","missed_checkup","PID","view_history","rt","responses","repeat_instructions","key_press","index","keypress_isi","keypress_S2","block","trial_num","phase","group_type","pair_type","S1_stim","S2_stim","S1_img","S2_img","S1_chosen","S1_higher","accuracy","keypress_iti","total_bonus_tally"
"true","full_screen","d04062023hr2219","fullscreen","0","13236","0.0-0.0","0","0","93871","","","","","","","","","","","","","","","","","","","","","",""
"","instructions","","instructions","1","58353","0.0-1.0-0.0-0.0","0","0","93871","[{""page_index"":0,""viewing_time"":9219},{""page_index"":1,""viewing_time"":21159},{""page_index"":2,""viewing_time"":13256},{""page_index"":3,""viewing_time"":1480}]","45115","","","","","","","","","","","","","","","","","","","",""
"","comprehension_check","","survey-multi-choice","2","74009","0.0-1.0-0.0-1.0","0","0","93871","","15652","{""Q0"":""True"",""Q1"":""K"",""Q2"":""Once the second image appears and while the screen 'MAKE A CHOICE' is shown"",""Q3"":""Green mark"",""Q4"":""either D or K""}","0","","","","","","","","","","","","","","","","","",""
"","start_exp","","html-keyboard-response","3","76580","0.0-1.0-1.0","0","0","93871","","2567","","","32","","","","","","","","","","","","","","","","",""
"","S1","","html-keyboard-response","4","76734","0.0-1.0-2.0","0","0","93871","","null","","","null","0","","","","","","","","","","","","","","","",""
"","ISI","","html-keyboard-response","5","78737","0.0-1.0-3.0","0","0","93871","","null","","","null","0","NaN","","","","","","","","","","","","","","",""
"","S2","","html-keyboard-response","6","78892","0.0-1.0-4.0","0","0","93871","","null","","","null","0","","NaN","","","","","","","","","","","","","",""
"","response","","html-keyboard-response","7","80376","0.0-1.0-5.0-0.0","0","0","93871","","1482","","","68","0","","","1","0","training","adjacent","BC","2","3","R.jpg","Q.jpg","0","1","0","",""
"","feedback","","html-keyboard-response","8","81378","0.0-1.0-6.0-0.0","0","0","93871","","null","","","null","0","","","","","","","","","","","","","","","",""
"","time_out","","html-keyboard-response","9","83381","0.0-1.0-8.0-0.0","0","0","93871","","null","","","null","0","","","","","","","","","","","","","","","",""
"","ITI","","html-keyboard-response","10","84383","0.0-1.0-9.0","0","0","93871","","null","","","null","0","","","","","","","","","","","","","","","NaN",""
"","S1","","html-keyboard-response","11","84536","0.0-1.0-11.0","0","0","93871","","null","","","null","1","","","","","","","","","","","","","","","",""
"","ISI","","html-keyboard-response","12","86538","0.0-1.0-12.0","0","0","93871","","null","","","null","1","NaN","","","","","","","","","","","","","","",""
"","S2","","html-keyboard-response","13","86691","0.0-1.0-13.0","0","0","93871","","null","","","null","1","","NaN","","","","","","","","","","","","","",""
"","response","","html-keyboard-response","14","87304","0.0-1.0-14.0-0.0","0","0","93871","","611","","","75","1","","","1","1","training","adjacent","BA","2","1","R.jpg","P.jpg","1","0","0","",""
"","feedback","","html-keyboard-response","15","88308","0.0-1.0-15.0-0.0","0","0","93871","","null","","","null","1","","","","","","","","","","","","","","","",""
"","time_out","","html-keyboard-response","16","90312","0.0-1.0-17.0-0.0","0","0","93871","","null","","","null","1","","","","","","","","","","","","","","","",""
"","ITI","","html-keyboard-response","17","91315","0.0-1.0-18.0","0","0","93871","","null","","","null","1","","","","","","","","","","","","","","","NaN",""
"","S1","","html-keyboard-response","18","91467","0.0-1.0-20.0","0","0","93871","","null","","","null","2","","","","","","","","","","","","","","","",""
"","ISI","","html-keyboard-response","19","93471","0.0-1.0-21.0","0","0","93871","","null","","","null","2","NaN","","","","","","","","","","","","","","",""
"","S2","","html-keyboard-response","20","93624","0.0-1.0-22.0","0","0","93871","","null","","","null","2","","NaN","","","","","","","","","","","","","",""
"","response","","html-keyboard-response","21","93850","0.0-1.0-23.0-0.0","0","0","93871","","224","","","75","2","","","1","2","training","adjacent","BC","2","3","R.jpg","Q.jpg","1","1","1","",""
"","feedback","","html-keyboard-response","22","94854","0.0-1.0-24.0-0.0","0","0","93871","","null","","","null","2","","","","","","","","","","","","","","","",""
"","ITI","","html-keyboard-response","23","95855","0.0-1.0-27.0","0","0","93871","","null","","","null","2","","","","","","","","","","","","","","","NaN",""
"","S1","","html-keyboard-response","24","96007","0.0-1.0-29.0","0","0","93871","","null","","","null","3","","","","","","","","","","","","","","","",""
"","ISI","","html-keyboard-response","25","98010","0.0-1.0-30.0","0","0","93871","","null","","","null","3","NaN","","","","","","","","","","","","","","",""
"","S2","","html-keyboard-response","26","98163","0.0-1.0-31.0","0","0","93871","","null","","","null","3","","NaN","","","","","","","","","","","","","",""
"","response","","html-keyboard-response","27","99224","0.0-1.0-32.0-0.0","0","0","93871","","1060","","","75","3","","","1","3","training","adjacent","AB","1","2","P.jpg","R.jpg","1","1","1","",""
"","feedback","","html-keyboard-response","28","100226","0.0-1.0-33.0-0.0","0","0","93871","","null","","","null","3","","","","","","","","","","","","","","","",""
"","ITI","","html-keyboard-response","29","101228","0.0-1.0-36.0","0","0","93871","","null","","","null","3","","","","","","","","","","","","","","","NaN",""
"","S1","","html-keyboard-response","30","101385","0.0-1.0-38.0","0","0","93871","","null","","","null","4","","","","","","","","","","","","","","","",""
"","ISI","","html-keyboard-response","31","103388","0.0-1.0-39.0","0","0","93871","","null","","","null","4","NaN","","","","","","","","","","","","","","",""
"","S2","","html-keyboard-response","32","103541","0.0-1.0-40.0","0","0","93871","","null","","","null","4","","NaN","","","","","","","","","","","","","",""
"","response","","html-keyboard-response","33","104858","0.0-1.0-41.0-0.0","0","0","93871","","1316","","","75","4","","","1","4","training","adjacent","AB","1","2","P.jpg","R.jpg","1","1","1","",""
"","feedback","","html-keyboard-response","34","105861","0.0-1.0-42.0-0.0","0","0","93871","","null","","","null","4","","","","","","","","","","","","","","","",""
"","ITI","","html-keyboard-response","35","106865","0.0-1.0-45.0","0","0","93871","","null","","","null","4","","","","","","","","","","","","","","","NaN",""
"","S1","","html-keyboard-response","36","107018","0.0-1.0-47.0","0","0","93871","","null","","","null","5","","","","","","","","","","","","","","","",""
"","ISI","","html-keyboard-response","37","109021","0.0-1.0-48.0","0","0","93871","","null","","","null","5","NaN","","","","","","","","","","","","","","",""
"","S2","","html-keyboard-response","38","109174","0.0-1.0-49.0","0","0","93871","","null","","","null","5","","NaN","","","","","","","","","","","","","",""
"","response","","html-keyboard-response","39","109756","0.0-1.0-50.0-0.0","0","0","93871","","578","","","68","5","","","1","5","training","adjacent","DE","4","5","O.jpg","L.jpg","0","1","0","",""
"","feedback","","html-keyboard-response","40","110759","0.0-1.0-51.0-0.0","0","0","93871","","null","","","null","5","","","","","","","","","","","","","","","",""
"","time_out","","html-keyboard-response","41","112762","0.0-1.0-53.0-0.0","0","0","93871","","null","","","null","5","","","","","","","","","","","","","","","",""
"","ITI","","html-keyboard-response","42","113765","0.0-1.0-54.0","0","0","93871","","null","","","null","5","","","","","","","","","","","","","","","NaN",""
"","S1","","html-keyboard-response","43","113919","0.0-1.0-56.0","0","0","93871","","null","","","null","6","","","","","","","","","","","","","","","",""
"","ISI","","html-keyboard-response","44","115922","0.0-1.0-57.0","0","0","93871","","null","","","null","6","NaN","","","","","","","","","","","","","","",""
"","S2","","html-keyboard-response","45","116075","0.0-1.0-58.0","0","0","93871","","null","","","null","6","","NaN","","","","","","","","","","","","","",""
"","response","","html-keyboard-response","46","116625","0.0-1.0-59.0-0.0","0","0","93871","","549","","","75","6","","","1","6","training","adjacent","BC","2","3","R.jpg","Q.jpg","1","1","1","",""
"","feedback","","html-keyboard-response","47","117627","0.0-1.0-60.0-0.0","0","0","93871","","null","","","null","6","","","","","","","","","","","","","","","",""
"","ITI","","html-keyboard-response","48","118630","0.0-1.0-63.0","0","0","93871","","null","","","null","6","","","","","","","","","","","","","","","NaN",""
"","S1","","html-keyboard-response","49","118782","0.0-1.0-65.0","0","0","93871","","null","","","null","7","","","","","","","","","","","","","","","",""
"","ISI","","html-keyboard-response","50","120785","0.0-1.0-66.0","0","0","93871","","null","","","null","7","NaN","","","","","","","","","","","","","","",""
"","S2","","html-keyboard-response","51","120938","0.0-1.0-67.0","0","0","93871","","null","","","null","7","","NaN","","","","","","","","","","","","","",""
"","response","","html-keyboard-response","52","121217","0.0-1.0-68.0-0.0","0","0","93871","","278","","","68","7","","","1","7","training","adjacent","CB","3","2","Q.jpg","R.jpg","0","0","1","",""
"","feedback","","html-keyboard-response","53","122219","0.0-1.0-69.0-0.0","0","0","93871","","null","","","null","7","","","","","","","","","","","","","","","",""
"","ITI","","html-keyboard-response","54","123223","0.0-1.0-72.0","0","0","93871","","null","","","null","7","","","","","","","","","","","","","","","NaN",""
"","S1","","html-keyboard-response","55","123376","0.0-1.0-74.0","0","0","93871","","null","","","null","8","","","","","","","","","","","","","","","",""
"","ISI","","html-keyboard-response","56","125378","0.0-1.0-75.0","0","0","93871","","null","","","null","8","NaN","","","","","","","","","","","","","","",""
"","S2","","html-keyboard-response","57","125531","0.0-1.0-76.0","0","0","93871","","null","","","null","8","","NaN","","","","","","","","","","","","","",""
"","response","","html-keyboard-response","58","126146","0.0-1.0-77.0-0.0","0","0","93871","","613","","","68","8","","","1","8","training","adjacent","EF","5","6","L.jpg","M.jpg","0","1","0","",""
"","feedback","","html-keyboard-response","59","127151","0.0-1.0-78.0-0.0","0","0","93871","","null","","","null","8","","","","","","","","","","","","","","","",""
"","time_out","","html-keyboard-response","60","129154","0.0-1.0-80.0-0.0","0","0","93871","","null","","","null","8","","","","","","","","","","","","","","","",""
"","ITI","","html-keyboard-response","61","130156","0.0-1.0-81.0","0","0","93871","","null","","","null","8","","","","","","","","","","","","","","","NaN",""
"","S1","","html-keyboard-response","62","130309","0.0-1.0-83.0","0","0","93871","","null","","","null","9","","","","","","","","","","","","","","","",""
"","ISI","","html-keyboard-response","63","132324","0.0-1.0-84.0","0","0","93871","","null","","","null","9","NaN","","","","","","","","","","","","","","",""
"","S2","","html-keyboard-response","64","132477","0.0-1.0-85.0","0","0","93871","","null","","","null","9","","NaN","","","","","","","","","","","","","",""
"","response","","html-keyboard-response","65","133137","0.0-1.0-86.0-0.0","0","0","93871","","659","","","75","9","","","1","9","training","adjacent","DC","4","3","O.jpg","Q.jpg","1","0","0","",""
"","feedback","","html-keyboard-response","66","134139","0.0-1.0-87.0-0.0","0","0","93871","","null","","","null","9","","","","","","","","","","","","","","","",""
"","time_out","","html-keyboard-response","67","136157","0.0-1.0-89.0-0.0","0","0","93871","","null","","","null","9","","","","","","","","","","","","","","","",""
"","ITI","","html-keyboard-response","68","137161","0.0-1.0-90.0","0","0","93871","","null","","","null","9","","","","","","","","","","","","","","","NaN",""
"","S1","","html-keyboard-response","69","137314","0.0-1.0-92.0","0","0","93871","","null","","","null","10","","","","","","","","","","","","","","","",""
"","ISI","","html-keyboard-response","70","139316","0.0-1.0-93.0","0","0","93871","","null","","","null","10","NaN","","","","","","","","","","","","","","",""
"","S2","","html-keyboard-response","71","139468","0.0-1.0-94.0","0","0","93871","","null","","","null","10","","NaN","","","","","","","","","","","","","",""
"","response","","html-keyboard-response","72","139985","0.0-1.0-95.0-0.0","0","0","93871","","516","","","68","10","","","1","10","training","adjacent","GF","7","6","N.jpg","M.jpg","0","0","1","",""
"","feedback","","html-keyboard-response","73","140988","0.0-1.0-96.0-0.0","0","0","93871","","null","","","null","10","","","","","","","","","","","","","","","",""
"","ITI","","html-keyboard-response","74","141993","0.0-1.0-99.0","0","0","93871","","null","","","null","10","","","","","","","","","","","","","","","NaN",""
"","S1","","html-keyboard-response","75","142145","0.0-1.0-101.0","0","0","93871","","null","","","null","11","","","","","","","","","","","","","","","",""
"","ISI","","html-keyboard-response","76","144147","0.0-1.0-102.0","0","0","93871","","null","","","null","11","NaN","","","","","","","","","","","","","","",""
"","S2","","html-keyboard-response","77","144309","0.0-1.0-103.0","0","0","93871","","null","","","null","11","","NaN","","","","","","","","","","","","","",""
"","response","","html-keyboard-response","78","145009","0.0-1.0-104.0-0.0","0","0","93871","","699","","","68","11","","","1","11","training","adjacent","FE","6","5","M.jpg","L.jpg","0","0","1","",""
"","feedback","","html-keyboard-response","79","146011","0.0-1.0-105.0-0.0","0","0","93871","","null","","","null","11","","","","","","","","","","","","","","","",""
"","ITI","","html-keyboard-response","80","147013","0.0-1.0-108.0","0","0","93871","","null","","","null","11","","","","","","","","","","","","","","","NaN",""
"","S1","","html-keyboard-response","81","147167","0.0-1.0-110.0","0","0","93871","","null","","","null","12","","","","","","","","","","","","","","","",""
"","ISI","","html-keyboard-response","82","149170","0.0-1.0-111.0","0","0","93871","","null","","","null","12","NaN","","","","","","","","","","","","","","",""
"","S2","","html-keyboard-response","83","149323","0.0-1.0-112.0","0","0","93871","","null","","","null","12","","NaN","","","","","","","","","","","","","",""
"","response","","html-keyboard-response","84","150312","0.0-1.0-113.0-0.0","0","0","93871","","988","","","68","12","","","1","12","training","adjacent","FE","6","5","M.jpg","L.jpg","0","0","1","",""
"","feedback","","html-keyboard-response","85","151315","0.0-1.0-114.0-0.0","0","0","93871","","null","","","null","12","","","","","","","","","","","","","","","",""
"","ITI","","html-keyboard-response","86","152318","0.0-1.0-117.0","0","0","93871","","null","","","null","12","","","","","","","","","","","","","","","NaN",""
"","S1","","html-keyboard-response","87","152470","0.0-1.0-119.0","0","0","93871","","null","","","null","13","","","","","","","","","","","","","","","",""
"","ISI","","html-keyboard-response","88","154472","0.0-1.0-120.0","0","0","93871","","null","","","null","13","NaN","","","","","","","","","","","","","","",""
"","S2","","html-keyboard-response","89","154624","0.0-1.0-121.0","0","0","93871","","null","","","null","13","","NaN","","","","","","","","","","","","","",""
"","response","","html-keyboard-response","90","155307","0.0-1.0-122.0-0.0","0","0","93871","","680","","","75","13","","","1","13","training","adjacent","ED","5","4","L.jpg","O.jpg","1","0","0","",""
"","feedback","","html-keyboard-response","91","156310","0.0-1.0-123.0-0.0","0","0","93871","","null","","","null","13","","","","","","","","","","","","","","","",""
"","time_out","","html-keyboard-response","92","158313","0.0-1.0-125.0-0.0","0","0","93871","","null","","","null","13","","","","","","","","","","","","","","","",""
"","ITI","","html-keyboard-response","93","159316","0.0-1.0-126.0","0","0","93871","","null","","","null","13","","","","","","","","","","","","","","","NaN",""
"","S1","","html-keyboard-response","94","159470","0.0-1.0-128.0","0","0","93871","","null","","","null","14","","","","","","","","","","","","","","","",""
"","ISI","","html-keyboard-response","95","161473","0.0-1.0-129.0","0","0","93871","","null","","","null","14","NaN","","","","","","","","","","","","","","",""
"","S2","","html-keyboard-response","96","161626","0.0-1.0-130.0","0","0","93871","","null","","","null","14","","NaN","","","","","","","","","","","","","",""
"","response","","html-keyboard-response","97","162297","0.0-1.0-131.0-0.0","0","0","93871","","670","","","75","14","","","1","14","training","adjacent","FE","6","5","M.jpg","L.jpg","1","0","0","",""
"","feedback","","html-keyboard-response","98","163299","0.0-1.0-132.0-0.0","0","0","93871","","null","","","null","14","","","","","","","","","","","","","","","",""
"","time_out","","html-keyboard-response","99","165301","0.0-1.0-134.0-0.0","0","0","93871","","null","","","null","14","","","","","","","","","","","","","","","",""
"","ITI","","html-keyboard-response","100","166305","0.0-1.0-135.0","0","0","93871","","null","","","null","14","","","","","","","","","","","","","","","NaN",""
"","S1","","html-keyboard-response","101","166459","0.0-1.0-137.0","0","0","93871","","null","","","null","15","","","","","","","","","","","","","","","",""
"","ISI","","html-keyboard-response","102","168462","0.0-1.0-138.0","0","0","93871","","null","","","null","15","NaN","","","","","","","","","","","","","","",""
"","S2","","html-keyboard-response","103","168616","0.0-1.0-139.0","0","0","93871","","null","","","null","15","","NaN","","","","","","","","","","","","","",""
"","response","","html-keyboard-response","104","169179","0.0-1.0-140.0-0.0","0","0","93871","","560","","","68","15","","","1","15","training","adjacent","CD","3","4","Q.jpg","O.jpg","0","1","0","",""
"","feedback","","html-keyboard-response","105","170182","0.0-1.0-141.0-0.0","0","0","93871","","null","","","null","15","","","","","","","","","","","","","","","",""
"","time_out","","html-keyboard-response","106","172190","0.0-1.0-143.0-0.0","0","0","93871","","null","","","null","15","","","","","","","","","","","","","","","",""
"","ITI","","html-keyboard-response","107","173194","0.0-1.0-144.0","0","0","93871","","null","","","null","15","","","","","","","","","","","","","","","NaN",""
"","S1","","html-keyboard-response","108","173347","0.0-1.0-146.0","0","0","93871","","null","","","null","16","","","","","","","","","","","","","","","",""
"","ISI","","html-keyboard-response","109","175351","0.0-1.0-147.0","0","0","93871","","null","","","null","16","NaN","","","","","","","","","","","","","","",""
"","S2","","html-keyboard-response","110","175504","0.0-1.0-148.0","0","0","93871","","null","","","null","16","","NaN","","","","","","","","","","","","","",""
"","response","","html-keyboard-response","111","176568","0.0-1.0-149.0-0.0","0","0","93871","","1063","","","75","16","","","1","16","training","adjacent","DC","4","3","O.jpg","Q.jpg","1","0","0","",""
"","feedback","","html-keyboard-response","112","177570","0.0-1.0-150.0-0.0","0","0","93871","","null","","","null","16","","","","","","","","","","","","","","","",""
"","time_out","","html-keyboard-response","113","179574","0.0-1.0-152.0-0.0","0","0","93871","","null","","","null","16","","","","","","","","","","","","","","","",""
"","ITI","","html-keyboard-response","114","180576","0.0-1.0-153.0","0","0","93871","","null","","","null","16","","","","","","","","","","","","","","","NaN",""
"","S1","","html-keyboard-response","115","180729","0.0-1.0-155.0","0","0","93871","","null","","","null","17","","","","","","","","","","","","","","","",""
"","ISI","","html-keyboard-response","116","182731","0.0-1.0-156.0","0","0","93871","","null","","","null","17","NaN","","","","","","","","","","","","","","",""
"","S2","","html-keyboard-response","117","182884","0.0-1.0-157.0","0","0","93871","","null","","","null","17","","NaN","","","","","","","","","","","","","",""
"","response","","html-keyboard-response","118","184489","0.0-1.0-158.0-0.0","0","0","93871","","1603","","","75","17","","","1","17","training","adjacent","FG","6","7","M.jpg","N.jpg","1","1","1","",""
"","feedback","","html-keyboard-response","119","185491","0.0-1.0-159.0-0.0","0","0","93871","","null","","","null","17","","","","","","","","","","","","","","","",""
"","ITI","","html-keyboard-response","120","186493","0.0-1.0-162.0","0","0","93871","","null","","","null","17","","","","","","","","","","","","","","","NaN",""
"","S1","","html-keyboard-response","121","186645","0.0-1.0-164.0","0","0","93871","","null","","","null","18","","","","","","","","","","","","","","","",""
"","ISI","","html-keyboard-response","122","188649","0.0-1.0-165.0","0","0","93871","","null","","","null","18","NaN","","","","","","","","","","","","","","",""
"","S2","","html-keyboard-response","123","188803","0.0-1.0-166.0","0","0","93871","","null","","","null","18","","NaN","","","","","","","","","","","","","",""
"","response","","html-keyboard-response","124","190002","0.0-1.0-167.0-0.0","0","0","93871","","1196","","","68","18","","","1","18","training","adjacent","EF","5","6","L.jpg","M.jpg","0","1","0","",""
"","feedback","","html-keyboard-response","125","191005","0.0-1.0-168.0-0.0","0","0","93871","","null","","","null","18","","","","","","","","","","","","","","","",""
"","time_out","","html-keyboard-response","126","193008","0.0-1.0-170.0-0.0","0","0","93871","","null","","","null","18","","","","","","","","","","","","","","","",""
"","ITI","","html-keyboard-response","127","194010","0.0-1.0-171.0","0","0","93871","","null","","","null","18","","","","","","","","","","","","","","","NaN",""
"","S1","","html-keyboard-response","128","194162","0.0-1.0-173.0","0","0","93871","","null","","","null","19","","","","","","","","","","","","","","","",""
"","ISI","","html-keyboard-response","129","196164","0.0-1.0-174.0","0","0","93871","","null","","","null","19","NaN","","","","","","","","","","","","","","",""
"","S2","","html-keyboard-response","130","196317","0.0-1.0-175.0","0","0","93871","","null","","","null","19","","NaN","","","","","","","","","","","","","",""
"","response","","html-keyboard-response","131","196979","0.0-1.0-176.0-0.0","0","0","93871","","659","","","68","19","","","1","19","training","adjacent","BA","2","1","R.jpg","P.jpg","0","0","1","",""
"","feedback","","html-keyboard-response","132","197983","0.0-1.0-177.0-0.0","0","0","93871","","null","","","null","19","","","","","","","","","","","","","","","",""
"","ITI","","html-keyboard-response","133","198987","0.0-1.0-180.0","0","0","93871","","null","","","null","19","","","","","","","","","","","","","","","NaN",""
"","S1","","html-keyboard-response","134","199148","0.0-1.0-182.0","0","0","93871","","null","","","null","20","","","","","","","","","","","","","","","",""
"","ISI","","html-keyboard-response","135","201151","0.0-1.0-183.0","0","0","93871","","null","","","null","20","NaN","","","","","","","","","","","","","","",""
"","S2","","html-keyboard-response","136","201305","0.0-1.0-184.0","0","0","93871","","null","","","null","20","","NaN","","","","","","","","","","","","","",""
"","response","","html-keyboard-response","137","201762","0.0-1.0-185.0-0.0","0","0","93871","","454","","","75","20","","","1","20","training","adjacent","FG","6","7","M.jpg","N.jpg","1","1","1","",""
"","feedback","","html-keyboard-response","138","202765","0.0-1.0-186.0-0.0","0","0","93871","","null","","","null","20","","","","","","","","","","","","","","","",""
"","ITI","","html-keyboard-response","139","203769","0.0-1.0-189.0","0","0","93871","","null","","","null","20","","","","","","","","","","","","","","","NaN",""
"","S1","","html-keyboard-response","140","203922","0.0-1.0-191.0","0","0","93871","","null","","","null","21","","","","","","","","","","","","","","","",""
"","ISI","","html-keyboard-response","141","205924","0.0-1.0-192.0","0","0","93871","","null","","","null","21","NaN","","","","","","","","","","","","","","",""
"","S2","","html-keyboard-response","142","206078","0.0-1.0-193.0","0","0","93871","","null","","","null","21","","NaN","","","","","","","","","","","","","",""
"","response","","html-keyboard-response","143","206634","0.0-1.0-194.0-0.0","0","0","93871","","553","","","68","21","","","1","21","training","adjacent","FE","6","5","M.jpg","L.jpg","0","0","1","",""
"","feedback","","html-keyboard-response","144","207638","0.0-1.0-195.0-0.0","0","0","93871","","null","","","null","21","","","","","","","","","","","","","","","",""
"","ITI","","html-keyboard-response","145","208643","0.0-1.0-198.0","0","0","93871","","null","","","null","21","","","","","","","","","","","","","","","NaN",""
"","S1","","html-keyboard-response","146","208797","0.0-1.0-200.0","0","0","93871","","null","","","null","22","","","","","","","","","","","","","","","",""
"","ISI","","html-keyboard-response","147","210800","0.0-1.0-201.0","0","0","93871","","null","","","null","22","NaN","","","","","","","","","","","","","","",""
"","S2","","html-keyboard-response","148","210954","0.0-1.0-202.0","0","0","93871","","null","","","null","22","","NaN","","","","","","","","","","","","","",""
"","response","","html-keyboard-response","149","211451","0.0-1.0-203.0-0.0","0","0","93871","","494","","","68","22","","","1","22","training","adjacent","GF","7","6","N.jpg","M.jpg","0","0","1","",""
"","feedback","","html-keyboard-response","150","212455","0.0-1.0-204.0-0.0","0","0","93871","","null","","","null","22","","","","","","","","","","","","","","","",""
"","ITI","","html-keyboard-response","151","213458","0.0-1.0-207.0","0","0","93871","","null","","","null","22","","","","","","","","","","","","","","","NaN",""
"","S1","","html-keyboard-response","152","213613","0.0-1.0-209.0","0","0","93871","","null","","","null","23","","","","","","","","","","","","","","","",""
"","ISI","","html-keyboard-response","153","215615","0.0-1.0-210.0","0","0","93871","","null","","","null","23","NaN","","","","","","","","","","","","","","",""
"","S2","","html-keyboard-response","154","215768","0.0-1.0-211.0","0","0","93871","","null","","","null","23","","NaN","","","","","","","","","","","","","",""
"","response","","html-keyboard-response","155","216178","0.0-1.0-212.0-0.0","0","0","93871","","407","","","75","23","","","1","23","training","adjacent","ED","5","4","L.jpg","O.jpg","1","0","0","",""
"","feedback","","html-keyboard-response","156","217181","0.0-1.0-213.0-0.0","0","0","93871","","null","","","null","23","","","","","","","","","","","","","","","",""
"","time_out","","html-keyboard-response","157","219184","0.0-1.0-215.0-0.0","0","0","93871","","null","","","null","23","","","","","","","","","","","","","","","",""
"","ITI","","html-keyboard-response","158","220186","0.0-1.0-216.0","0","0","93871","","null","","","null","23","","","","","","","","","","","","","","","NaN",""
"","S1","","html-keyboard-response","159","220340","0.0-1.0-218.0","0","0","93871","","null","","","null","24","","","","","","","","","","","","","","","",""
"","ISI","","html-keyboard-response","160","222343","0.0-1.0-219.0","0","0","93871","","null","","","null","24","NaN","","","","","","","","","","","","","","",""
"","S2","","html-keyboard-response","161","222498","0.0-1.0-220.0","0","0","93871","","null","","","null","24","","NaN","","","","","","","","","","","","","",""
"","response","","html-keyboard-response","162","223081","0.0-1.0-221.0-0.0","0","0","93871","","581","","","68","24","","","1","24","training","adjacent","DC","4","3","O.jpg","Q.jpg","0","0","1","",""
"","feedback","","html-keyboard-response","163","224084","0.0-1.0-222.0-0.0","0","0","93871","","null","","","null","24","","","","","","","","","","","","","","","",""
"","ITI","","html-keyboard-response","164","225099","0.0-1.0-225.0","0","0","93871","","null","","","null","24","","","","","","","","","","","","","","","NaN",""
"","S1","","html-keyboard-response","165","225253","0.0-1.0-227.0","0","0","93871","","null","","","null","25","","","","","","","","","","","","","","","",""
"","ISI","","html-keyboard-response","166","227256","0.0-1.0-228.0","0","0","93871","","null","","","null","25","NaN","","","","","","","","","","","","","","",""
"","S2","","html-keyboard-response","167","227409","0.0-1.0-229.0","0","0","93871","","null","","","null","25","","NaN","","","","","","","","","","","","","",""
"","response","","html-keyboard-response","168","228402","0.0-1.0-230.0-0.0","0","0","93871","","990","","","68","25","","","1","25","training","adjacent","DE","4","5","O.jpg","L.jpg","0","1","0","",""
"","feedback","","html-keyboard-response","169","229406","0.0-1.0-231.0-0.0","0","0","93871","","null","","","null","25","","","","","","","","","","","","","","","",""
"","time_out","","html-keyboard-response","170","231408","0.0-1.0-233.0-0.0","0","0","93871","","null","","","null","25","","","","","","","","","","","","","","","",""
"","ITI","","html-keyboard-response","171","232411","0.0-1.0-234.0","0","0","93871","","null","","","null","25","","","","","","","","","","","","","","","NaN",""
"","S1","","html-keyboard-response","172","232563","0.0-1.0-236.0","0","0","93871","","null","","","null","26","","","","","","","","","","","","","","","",""
"","ISI","","html-keyboard-response","173","234566","0.0-1.0-237.0","0","0","93871","","null","","","null","26","NaN","","","","","","","","","","","","","","",""
"","S2","","html-keyboard-response","174","234733","0.0-1.0-238.0","0","0","93871","","null","","","null","26","","NaN","","","","","","","","","","","","","",""
"","response","","html-keyboard-response","175","235360","0.0-1.0-239.0-0.0","0","0","93871","","625","","","75","26","","","1","26","training","adjacent","GF","7","6","N.jpg","M.jpg","1","0","0","",""
"","feedback","","html-keyboard-response","176","236363","0.0-1.0-240.0-0.0","0","0","93871","","null","","","null","26","","","","","","","","","","","","","","","",""
"","time_out","","html-keyboard-response","177","238367","0.0-1.0-242.0-0.0","0","0","93871","","null","","","null","26","","","","","","","","","","","","","","","",""
"","ITI","","html-keyboard-response","178","239371","0.0-1.0-243.0","0","0","93871","","null","","","null","26","","","","","","","","","","","","","","","NaN",""
"","S1","","html-keyboard-response","179","239525","0.0-1.0-245.0","0","0","93871","","null","","","null","27","","","","","","","","","","","","","","","",""
"","ISI","","html-keyboard-response","180","241527","0.0-1.0-246.0","0","0","93871","","null","","","null","27","NaN","","","","","","","","","","","","","","",""
"","S2","","html-keyboard-response","181","241678","0.0-1.0-247.0","0","0","93871","","null","","","null","27","","NaN","","","","","","","","","","","","","",""
"","response","","html-keyboard-response","182","242043","0.0-1.0-248.0-0.0","0","0","93871","","363","","","68","27","","","1","27","training","adjacent","DC","4","3","O.jpg","Q.jpg","0","0","1","",""
"","feedback","","html-keyboard-response","183","243047","0.0-1.0-249.0-0.0","0","0","93871","","null","","","null","27","","","","","","","","","","","","","","","",""
"","ITI","","html-keyboard-response","184","244067","0.0-1.0-252.0","0","0","93871","","null","","","null","27","","","","","","","","","","","","","","","NaN",""
"","S1","","html-keyboard-response","185","244221","0.0-1.0-254.0","0","0","93871","","null","","","null","28","","","","","","","","","","","","","","","",""
"","ISI","","html-keyboard-response","186","246224","0.0-1.0-255.0","0","0","93871","","null","","","null","28","NaN","","","","","","","","","","","","","","",""
"","S2","","html-keyboard-response","187","246377","0.0-1.0-256.0","0","0","93871","","null","","","null","28","","NaN","","","","","","","","","","","","","",""
"","response","","html-keyboard-response","188","248230","0.0-1.0-257.0-0.0","0","0","93871","","null","","","null","28","","","1","28","training","adjacent","EF","5","6","L.jpg","M.jpg","NaN","1","0","",""
"","too_slow_prompt","","html-keyboard-response","189","249232","0.0-1.0-259.0-0.0","1","0","93871","","null","","","null","","","","","","","","","","","","","","","","",""
"","time_out","","html-keyboard-response","190","251236","0.0-1.0-260.0-0.0","0","0","93871","","null","","","null","28","","","","","","","","","","","","","","","",""
"","ITI","","html-keyboard-response","191","252239","0.0-1.0-261.0","0","0","93871","","null","","","null","28","","","","","","","","","","","","","","","NaN",""
"","S1","","html-keyboard-response","192","252393","0.0-1.0-263.0","0","0","93871","","null","","","null","29","","","","","","","","","","","","","","","",""
"","ISI","","html-keyboard-response","193","254396","0.0-1.0-264.0","0","0","93871","","null","","","null","29","NaN","","","","","","","","","","","","","","",""
"","S2","","html-keyboard-response","194","254550","0.0-1.0-265.0","0","0","93871","","null","","","null","29","","NaN","","","","","","","","","","","","","",""
"","response","","html-keyboard-response","195","254882","0.0-1.0-266.0-0.0","0","0","93871","","329","","","75","29","","","1","29","training","adjacent","CD","3","4","Q.jpg","O.jpg","1","1","1","",""
"","feedback","","html-keyboard-response","196","255886","0.0-1.0-267.0-0.0","0","0","93871","","null","","","null","29","","","","","","","","","","","","","","","",""
"","ITI","","html-keyboard-response","197","256889","0.0-1.0-270.0","0","0","93871","","null","","","null","29","","","","","","","","","","","","","","","NaN",""
"","S1","","html-keyboard-response","198","257041","0.0-1.0-272.0","0","0","93871","","null","","","null","30","","","","","","","","","","","","","","","",""
"","ISI","","html-keyboard-response","199","259044","0.0-1.0-273.0","0","0","93871","","null","","","null","30","NaN","","","","","","","","","","","","","","",""
"","S2","","html-keyboard-response","200","259197","0.0-1.0-274.0","0","0","93871","","null","","","null","30","","NaN","","","","","","","","","","","","","",""
"","response","","html-keyboard-response","201","259730","0.0-1.0-275.0-0.0","0","0","93871","","530","","","68","30","","","1","30","training","adjacent","BA","2","1","R.jpg","P.jpg","0","0","1","",""
"","feedback","","html-keyboard-response","202","260735","0.0-1.0-276.0-0.0","0","0","93871","","null","","","null","30","","","","","","","","","","","","","","","",""
"","ITI","","html-keyboard-response","203","261740","0.0-1.0-279.0","0","0","93871","","null","","","null","30","","","","","","","","","","","","","","","NaN",""
"","S1","","html-keyboard-response","204","261893","0.0-1.0-281.0","0","0","93871","","null","","","null","31","","","","","","","","","","","","","","","",""
"","ISI","","html-keyboard-response","205","263895","0.0-1.0-282.0","0","0","93871","","null","","","null","31","NaN","","","","","","","","","","","","","","",""
"","S2","","html-keyboard-response","206","264048","0.0-1.0-283.0","0","0","93871","","null","","","null","31","","NaN","","","","","","","","","","","","","",""
"","response","","html-keyboard-response","207","265243","0.0-1.0-284.0-0.0","0","0","93871","","1191","","","75","31","","","1","31","training","adjacent","EF","5","6","L.jpg","M.jpg","1","1","1","",""
"","feedback","","html-keyboard-response","208","266247","0.0-1.0-285.0-0.0","0","0","93871","","null","","","null","31","","","","","","","","","","","","","","","",""
"","ITI","","html-keyboard-response","209","267249","0.0-1.0-288.0","0","0","93871","","null","","","null","31","","","","","","","","","","","","","","","NaN",""
"","S1","","html-keyboard-response","210","267403","0.0-1.0-290.0","0","0","93871","","null","","","null","32","","","","","","","","","","","","","","","",""
"","ISI","","html-keyboard-response","211","269407","0.0-1.0-291.0","0","0","93871","","null","","","null","32","NaN","","","","","","","","","","","","","","",""
"","S2","","html-keyboard-response","212","269569","0.0-1.0-292.0","0","0","93871","","null","","","null","32","","NaN","","","","","","","","","","","","","",""
"","response","","html-keyboard-response","213","270018","0.0-1.0-293.0-0.0","0","0","93871","","447","","","75","32","","","1","32","training","adjacent","BC","2","3","R.jpg","Q.jpg","1","1","1","",""
"","feedback","","html-keyboard-response","214","271021","0.0-1.0-294.0-0.0","0","0","93871","","null","","","null","32","","","","","","","","","","","","","","","",""
"","ITI","","html-keyboard-response","215","272025","0.0-1.0-297.0","0","0","93871","","null","","","null","32","","","","","","","","","","","","","","","NaN",""
"","S1","","html-keyboard-response","216","272178","0.0-1.0-299.0","0","0","93871","","null","","","null","33","","","","","","","","","","","","","","","",""
"","ISI","","html-keyboard-response","217","274182","0.0-1.0-300.0","0","0","93871","","null","","","null","33","NaN","","","","","","","","","","","","","","",""
"","S2","","html-keyboard-response","218","274337","0.0-1.0-301.0","0","0","93871","","null","","","null","33","","NaN","","","","","","","","","","","","","",""
"","response","","html-keyboard-response","219","274704","0.0-1.0-302.0-0.0","0","0","93871","","365","","","75","33","","","1","33","training","adjacent","AB","1","2","P.jpg","R.jpg","1","1","1","",""
"","feedback","","html-keyboard-response","220","275708","0.0-1.0-303.0-0.0","0","0","93871","","null","","","null","33","","","","","","","","","","","","","","","",""
"","ITI","","html-keyboard-response","221","276713","0.0-1.0-306.0","0","0","93871","","null","","","null","33","","","","","","","","","","","","","","","NaN",""
"","S1","","html-keyboard-response","222","276866","0.0-1.0-308.0","0","0","93871","","null","","","null","34","","","","","","","","","","","","","","","",""
"","ISI","","html-keyboard-response","223","278869","0.0-1.0-309.0","0","0","93871","","null","","","null","34","NaN","","","","","","","","","","","","","","",""
"","S2","","html-keyboard-response","224","279022","0.0-1.0-310.0","0","0","93871","","null","","","null","34","","NaN","","","","","","","","","","","","","",""
"","response","","html-keyboard-response","225","279530","0.0-1.0-311.0-0.0","0","0","93871","","506","","","68","34","","","1","34","training","adjacent","CD","3","4","Q.jpg","O.jpg","0","1","0","",""
"","feedback","","html-keyboard-response","226","280534","0.0-1.0-312.0-0.0","0","0","93871","","null","","","null","34","","","","","","","","","","","","","","","",""
"","time_out","","html-keyboard-response","227","282537","0.0-1.0-314.0-0.0","0","0","93871","","null","","","null","34","","","","","","","","","","","","","","","",""
"","ITI","","html-keyboard-response","228","283540","0.0-1.0-315.0","0","0","93871","","null","","","null","34","","","","","","","","","","","","","","","NaN",""
"","S1","","html-keyboard-response","229","283693","0.0-1.0-317.0","0","0","93871","","null","","","null","35","","","","","","","","","","","","","","","",""
"","ISI","","html-keyboard-response","230","285697","0.0-1.0-318.0","0","0","93871","","null","","","null","35","NaN","","","","","","","","","","","","","","",""
"","S2","","html-keyboard-response","231","285851","0.0-1.0-319.0","0","0","93871","","null","","","null","35","","NaN","","","","","","","","","","","","","",""
"","response","","html-keyboard-response","232","286184","0.0-1.0-320.0-0.0","0","0","93871","","331","","","75","35","","","1","35","training","adjacent","DE","4","5","O.jpg","L.jpg","1","1","1","",""
"","feedback","","html-keyboard-response","233","287190","0.0-1.0-321.0-0.0","0","0","93871","","null","","","null","35","","","","","","","","","","","","","","","",""
"","ITI","","html-keyboard-response","234","288192","0.0-1.0-324.0","0","0","93871","","null","","","null","35","","","","","","","","","","","","","","","NaN",""
"","S1","","html-keyboard-response","235","288346","0.0-1.0-326.0","0","0","93871","","null","","","null","36","","","","","","","","","","","","","","","",""
"","ISI","","html-keyboard-response","236","290349","0.0-1.0-327.0","0","0","93871","","null","","","null","36","NaN","","","","","","","","","","","","","","",""
"","S2","","html-keyboard-response","237","290503","0.0-1.0-328.0","0","0","93871","","null","","","null","36","","NaN","","","","","","","","","","","","","",""
"","response","","html-keyboard-response","238","291002","0.0-1.0-329.0-0.0","0","0","93871","","496","","","75","36","","","1","36","training","adjacent","FG","6","7","M.jpg","N.jpg","1","1","1","",""
"","feedback","","html-keyboard-response","239","292006","0.0-1.0-330.0-0.0","0","0","93871","","null","","","null","36","","","","","","","","","","","","","","","",""
"","ITI","","html-keyboard-response","240","293009","0.0-1.0-333.0","0","0","93871","","null","","","null","36","","","","","","","","","","","","","","","NaN",""
"","S1","","html-keyboard-response","241","293161","0.0-1.0-335.0","0","0","93871","","null","","","null","37","","","","","","","","","","","","","","","",""
"","ISI","","html-keyboard-response","242","295164","0.0-1.0-336.0","0","0","93871","","null","","","null","37","NaN","","","","","","","","","","","","","","",""
"","S2","","html-keyboard-response","243","295318","0.0-1.0-337.0","0","0","93871","","null","","","null","37","","NaN","","","","","","","","","","","","","",""
"","response","","html-keyboard-response","244","296226","0.0-1.0-338.0-0.0","0","0","93871","","906","","","68","37","","","1","37","training","adjacent","CB","3","2","Q.jpg","R.jpg","0","0","1","",""
"","feedback","","html-keyboard-response","245","297242","0.0-1.0-339.0-0.0","0","0","93871","","null","","","null","37","","","","","","","","","","","","","","","",""
"","ITI","","html-keyboard-response","246","298246","0.0-1.0-342.0","0","0","93871","","null","","","null","37","","","","","","","","","","","","","","","NaN",""
"","S1","","html-keyboard-response","247","298399","0.0-1.0-344.0","0","0","93871","","null","","","null","38","","","","","","","","","","","","","","","",""
"","ISI","","html-keyboard-response","248","300402","0.0-1.0-345.0","0","0","93871","","null","","","null","38","NaN","","","","","","","","","","","","","","",""
"","S2","","html-keyboard-response","249","300555","0.0-1.0-346.0","0","0","93871","","null","","","null","38","","NaN","","","","","","","","","","","","","",""
"","response","","html-keyboard-response","250","301283","0.0-1.0-347.0-0.0","0","0","93871","","724","","","68","38","","","1","38","training","adjacent","DE","4","5","O.jpg","L.jpg","0","1","0","",""
"","feedback","","html-keyboard-response","251","302287","0.0-1.0-348.0-0.0","0","0","93871","","null","","","null","38","","","","","","","","","","","","","","","",""
"","time_out","","html-keyboard-response","252","304291","0.0-1.0-350.0-0.0","0","0","93871","","null","","","null","38","","","","","","","","","","","","","","","",""
"","ITI","","html-keyboard-response","253","305295","0.0-1.0-351.0","0","0","93871","","null","","","null","38","","","","","","","","","","","","","","","NaN",""
"","S1","","html-keyboard-response","254","305449","0.0-1.0-353.0","0","0","93871","","null","","","null","39","","","","","","","","","","","","","","","",""
"","ISI","","html-keyboard-response","255","307451","0.0-1.0-354.0","0","0","93871","","null","","","null","39","NaN","","","","","","","","","","","","","","",""
"","S2","","html-keyboard-response","256","307603","0.0-1.0-355.0","0","0","93871","","null","","","null","39","","NaN","","","","","","","","","","","","","",""
"","response","","html-keyboard-response","257","307898","0.0-1.0-356.0-0.0","0","0","93871","","292","","","75","39","","","1","39","training","adjacent","CD","3","4","Q.jpg","O.jpg","1","1","1","",""
"","feedback","","html-keyboard-response","258","308904","0.0-1.0-357.0-0.0","0","0","93871","","null","","","null","39","","","","","","","","","","","","","","","",""
"","ITI","","html-keyboard-response","259","309908","0.0-1.0-360.0","0","0","93871","","null","","","null","39","","","","","","","","","","","","","","","NaN",""
"","S1","","html-keyboard-response","260","310076","0.0-1.0-362.0","0","0","93871","","null","","","null","40","","","","","","","","","","","","","","","",""
"","ISI","","html-keyboard-response","261","312079","0.0-1.0-363.0","0","0","93871","","null","","","null","40","NaN","","","","","","","","","","","","","","",""
"","S2","","html-keyboard-response","262","312234","0.0-1.0-364.0","0","0","93871","","null","","","null","40","","NaN","","","","","","","","","","","","","",""
"","response","","html-keyboard-response","263","312609","0.0-1.0-365.0-0.0","0","0","93871","","372","","","75","40","","","1","40","training","adjacent","AB","1","2","P.jpg","R.jpg","1","1","1","",""
"","feedback","","html-keyboard-response","264","313612","0.0-1.0-366.0-0.0","0","0","93871","","null","","","null","40","","","","","","","","","","","","","","","",""
"","ITI","","html-keyboard-response","265","314614","0.0-1.0-369.0","0","0","93871","","null","","","null","40","","","","","","","","","","","","","","","NaN",""
"","S1","","html-keyboard-response","266","314766","0.0-1.0-371.0","0","0","93871","","null","","","null","41","","","","","","","","","","","","","","","",""
"","ISI","","html-keyboard-response","267","316769","0.0-1.0-372.0","0","0","93871","","null","","","null","41","NaN","","","","","","","","","","","","","","",""
"","S2","","html-keyboard-response","268","316924","0.0-1.0-373.0","0","0","93871","","null","","","null","41","","NaN","","","","","","","","","","","","","",""
"","response","","html-keyboard-response","269","317290","0.0-1.0-374.0-0.0","0","0","93871","","363","","","68","41","","","1","41","training","adjacent","GF","7","6","N.jpg","M.jpg","0","0","1","",""
"","feedback","","html-keyboard-response","270","318295","0.0-1.0-375.0-0.0","0","0","93871","","null","","","null","41","","","","","","","","","","","","","","","",""
"","ITI","","html-keyboard-response","271","319300","0.0-1.0-378.0","0","0","93871","","null","","","null","41","","","","","","","","","","","","","","","NaN",""
"","S1","","html-keyboard-response","272","319454","0.0-1.0-380.0","0","0","93871","","null","","","null","42","","","","","","","","","","","","","","","",""
"","ISI","","html-keyboard-response","273","321458","0.0-1.0-381.0","0","0","93871","","null","","","null","42","NaN","","","","","","","","","","","","","","",""
"","S2","","html-keyboard-response","274","321611","0.0-1.0-382.0","0","0","93871","","null","","","null","42","","NaN","","","","","","","","","","","","","",""
"","response","","html-keyboard-response","275","322466","0.0-1.0-383.0-0.0","0","0","93871","","853","","","68","42","","","1","42","training","adjacent","CB","3","2","Q.jpg","R.jpg","0","0","1","",""
"","feedback","","html-keyboard-response","276","323470","0.0-1.0-384.0-0.0","0","0","93871","","null","","","null","42","","","","","","","","","","","","","","","",""
"","ITI","","html-keyboard-response","277","324474","0.0-1.0-387.0","0","0","93871","","null","","","null","42","","","","","","","","","","","","","","","NaN",""
"","S1","","html-keyboard-response","278","324628","0.0-1.0-389.0","0","0","93871","","null","","","null","43","","","","","","","","","","","","","","","",""
"","ISI","","html-keyboard-response","279","326630","0.0-1.0-390.0","0","0","93871","","null","","","null","43","NaN","","","","","","","","","","","","","","",""
"","S2","","html-keyboard-response","280","326783","0.0-1.0-391.0","0","0","93871","","null","","","null","43","","NaN","","","","","","","","","","","","","",""
"","response","","html-keyboard-response","281","327176","0.0-1.0-392.0-0.0","0","0","93871","","392","","","75","43","","","1","43","training","adjacent","ED","5","4","L.jpg","O.jpg","1","0","0","",""
"","feedback","","html-keyboard-response","282","328179","0.0-1.0-393.0-0.0","0","0","93871","","null","","","null","43","","","","","","","","","","","","","","","",""
"","time_out","","html-keyboard-response","283","330181","0.0-1.0-395.0-0.0","0","0","93871","","null","","","null","43","","","","","","","","","","","","","","","",""
"","ITI","","html-keyboard-response","284","331185","0.0-1.0-396.0","0","0","93871","","null","","","null","43","","","","","","","","","","","","","","","NaN",""
"","S1","","html-keyboard-response","285","331339","0.0-1.0-398.0","0","0","93871","","null","","","null","44","","","","","","","","","","","","","","","",""
"","ISI","","html-keyboard-response","286","333342","0.0-1.0-399.0","0","0","93871","","null","","","null","44","NaN","","","","","","","","","","","","","","",""
"","S2","","html-keyboard-response","287","333495","0.0-1.0-400.0","0","0","93871","","null","","","null","44","","NaN","","","","","","","","","","","","","",""
"","response","","html-keyboard-response","288","334616","0.0-1.0-401.0-0.0","0","0","93871","","1120","","","68","44","","","1","44","training","adjacent","ED","5","4","L.jpg","O.jpg","0","0","1","",""
"","feedback","","html-keyboard-response","289","335618","0.0-1.0-402.0-0.0","0","0","93871","","null","","","null","44","","","","","","","","","","","","","","","",""
"","ITI","","html-keyboard-response","290","336620","0.0-1.0-405.0","0","0","93871","","null","","","null","44","","","","","","","","","","","","","","","NaN",""
"","S1","","html-keyboard-response","291","336772","0.0-1.0-407.0","0","0","93871","","null","","","null","45","","","","","","","","","","","","","","","",""
"","ISI","","html-keyboard-response","292","338775","0.0-1.0-408.0","0","0","93871","","null","","","null","45","NaN","","","","","","","","","","","","","","",""
"","S2","","html-keyboard-response","293","338928","0.0-1.0-409.0","0","0","93871","","null","","","null","45","","NaN","","","","","","","","","","","","","",""
"","response","","html-keyboard-response","294","339440","0.0-1.0-410.0-0.0","0","0","93871","","511","","","68","45","","","1","45","training","adjacent","CB","3","2","Q.jpg","R.jpg","0","0","1","",""
"","feedback","","html-keyboard-response","295","340443","0.0-1.0-411.0-0.0","0","0","93871","","null","","","null","45","","","","","","","","","","","","","","","",""
"","ITI","","html-keyboard-response","296","341445","0.0-1.0-414.0","0","0","93871","","null","","","null","45","","","","","","","","","","","","","","","NaN",""
"","S1","","html-keyboard-response","297","341597","0.0-1.0-416.0","0","0","93871","","null","","","null","46","","","","","","","","","","","","","","","",""
"","ISI","","html-keyboard-response","298","343599","0.0-1.0-417.0","0","0","93871","","null","","","null","46","NaN","","","","","","","","","","","","","","",""
"","S2","","html-keyboard-response","299","343753","0.0-1.0-418.0","0","0","93871","","null","","","null","46","","NaN","","","","","","","","","","","","","",""
"","response","","html-keyboard-response","300","344042","0.0-1.0-419.0-0.0","0","0","93871","","286","","","68","46","","","1","46","training","adjacent","BA","2","1","R.jpg","P.jpg","0","0","1","",""
"","feedback","","html-keyboard-response","301","345046","0.0-1.0-420.0-0.0","0","0","93871","","null","","","null","46","","","","","","","","","","","","","","","",""
"","ITI","","html-keyboard-response","302","346049","0.0-1.0-423.0","0","0","93871","","null","","","null","46","","","","","","","","","","","","","","","NaN",""
"","S1","","html-keyboard-response","303","346204","0.0-1.0-425.0","0","0","93871","","null","","","null","47","","","","","","","","","","","","","","","",""
"","ISI","","html-keyboard-response","304","348207","0.0-1.0-426.0","0","0","93871","","null","","","null","47","NaN","","","","","","","","","","","","","","",""
"","S2","","html-keyboard-response","305","348360","0.0-1.0-427.0","0","0","93871","","null","","","null","47","","NaN","","","","","","","","","","","","","",""
"","response","","html-keyboard-response","306","348827","0.0-1.0-428.0-0.0","0","0","93871","","464","","","75","47","","","1","47","training","adjacent","FG","6","7","M.jpg","N.jpg","1","1","1","",""
"","feedback","","html-keyboard-response","307","349831","0.0-1.0-429.0-0.0","0","0","93871","","null","","","null","47","","","","","","","","","","","","","","","",""
"","ITI","","html-keyboard-response","308","350839","0.0-1.0-432.0","0","0","93871","","null","","","null","47","","","","","","","","","","","","","","","NaN",""
"","block_over","","html-keyboard-response","309","358010","0.0-1.0-433.0-0.0","0","0","93871","","7166","","","32","47","","","","","","","","","","","","","","","",""
"","S1","","html-keyboard-response","310","358164","0.0-1.0-434.0","0","0","93871","","null","","","null","48","","","","","","","","","","","","","","","",""
"","ISI","","html-keyboard-response","311","360166","0.0-1.0-435.0","0","0","93871","","null","","","null","48","NaN","","","","","","","","","","","","","","",""
"","S2","","html-keyboard-response","312","360318","0.0-1.0-436.0","0","0","93871","","null","","","null","48","","NaN","","","","","","","","","","","","","",""
"","response","","html-keyboard-response","313","361611","0.0-1.0-437.0-0.0","0","0","93871","","1290","","","75","48","","","2","48","training","adjacent","ED","5","4","L.jpg","O.jpg","1","0","0","",""
"","feedback","","html-keyboard-response","314","362615","0.0-1.0-438.0-0.0","0","0","93871","","null","","","null","48","","","","","","","","","","","","","","","",""
"","time_out","","html-keyboard-response","315","364619","0.0-1.0-440.0-0.0","0","0","93871","","null","","","null","48","","","","","","","","","","","","","","","",""
"","ITI","","html-keyboard-response","316","365622","0.0-1.0-441.0","0","0","93871","","null","","","null","48","","","","","","","","","","","","","","","NaN",""
"","S1","","html-keyboard-response","317","365775","0.0-1.0-443.0","0","0","93871","","null","","","null","49","","","","","","","","","","","","","","","",""
"","ISI","","html-keyboard-response","318","367777","0.0-1.0-444.0","0","0","93871","","null","","","null","49","NaN","","","","","","","","","","","","","","",""
"","S2","","html-keyboard-response","319","367930","0.0-1.0-445.0","0","0","93871","","null","","","null","49","","NaN","","","","","","","","","","","","","",""
"","response","","html-keyboard-response","320","368649","0.0-1.0-446.0-0.0","0","0","93871","","716","","","68","49","","","2","49","training","adjacent","DE","4","5","O.jpg","L.jpg","0","1","0","",""
"","feedback","","html-keyboard-response","321","369652","0.0-1.0-447.0-0.0","0","0","93871","","null","","","null","49","","","","","","","","","","","","","","","",""
"","time_out","","html-keyboard-response","322","371656","0.0-1.0-449.0-0.0","0","0","93871","","null","","","null","49","","","","","","","","","","","","","","","",""
"","ITI","","html-keyboard-response","323","372660","0.0-1.0-450.0","0","0","93871","","null","","","null","49","","","","","","","","","","","","","","","NaN",""
"","S1","","html-keyboard-response","324","372814","0.0-1.0-452.0","0","0","93871","","null","","","null","50","","","","","","","","","","","","","","","",""
"","ISI","","html-keyboard-response","325","374817","0.0-1.0-453.0","0","0","93871","","null","","","null","50","NaN","","","","","","","","","","","","","","",""
"","S2","","html-keyboard-response","326","374981","0.0-1.0-454.0","0","0","93871","","null","","","null","50","","NaN","","","","","","","","","","","","","",""
"","response","","html-keyboard-response","327","375401","0.0-1.0-455.0-0.0","0","0","93871","","419","","","68","50","","","2","50","training","adjacent","CB","3","2","Q.jpg","R.jpg","0","0","1","",""
"","feedback","","html-keyboard-response","328","376404","0.0-1.0-456.0-0.0","0","0","93871","","null","","","null","50","","","","","","","","","","","","","","","",""
"","ITI","","html-keyboard-response","329","377407","0.0-1.0-459.0","0","0","93871","","null","","","null","50","","","","","","","","","","","","","","","NaN",""
"","S1","","html-keyboard-response","330","377559","0.0-1.0-461.0","0","0","93871","","null","","","null","51","","","","","","","","","","","","","","","",""
"","ISI","","html-keyboard-response","331","379562","0.0-1.0-462.0","0","0","93871","","null","","","null","51","NaN","","","","","","","","","","","","","","",""
"","S2","","html-keyboard-response","332","379716","0.0-1.0-463.0","0","0","93871","","null","","","null","51","","NaN","","","","","","","","","","","","","",""
"","response","","html-keyboard-response","333","380027","0.0-1.0-464.0-0.0","0","0","93871","","307","","","75","51","","","2","51","training","adjacent","AB","1","2","P.jpg","R.jpg","1","1","1","",""
"","feedback","","html-keyboard-response","334","381031","0.0-1.0-465.0-0.0","0","0","93871","","null","","","null","51","","","","","","","","","","","","","","","",""
"","ITI","","html-keyboard-response","335","382036","0.0-1.0-468.0","0","0","93871","","null","","","null","51","","","","","","","","","","","","","","","NaN",""
"","S1","","html-keyboard-response","336","382190","0.0-1.0-470.0","0","0","93871","","null","","","null","52","","","","","","","","","","","","","","","",""
"","ISI","","html-keyboard-response","337","384194","0.0-1.0-471.0","0","0","93871","","null","","","null","52","NaN","","","","","","","","","","","","","","",""
"","S2","","html-keyboard-response","338","384348","0.0-1.0-472.0","0","0","93871","","null","","","null","52","","NaN","","","","","","","","","","","","","",""
"","response","","html-keyboard-response","339","384579","0.0-1.0-473.0-0.0","0","0","93871","","227","","","68","52","","","2","52","training","adjacent","GF","7","6","N.jpg","M.jpg","0","0","1","",""
"","feedback","","html-keyboard-response","340","385583","0.0-1.0-474.0-0.0","0","0","93871","","null","","","null","52","","","","","","","","","","","","","","","",""
"","ITI","","html-keyboard-response","341","386587","0.0-1.0-477.0","0","0","93871","","null","","","null","52","","","","","","","","","","","","","","","NaN",""
"","S1","","html-keyboard-response","342","386752","0.0-1.0-479.0","0","0","93871","","null","","","null","53","","","","","","","","","","","","","","","",""
"","ISI","","html-keyboard-response","343","388755","0.0-1.0-480.0","0","0","93871","","null","","","null","53","NaN","","","","","","","","","","","","","","",""
"","S2","","html-keyboard-response","344","388907","0.0-1.0-481.0","0","0","93871","","null","","","null","53","","NaN","","","","","","","","","","","","","",""
"","response","","html-keyboard-response","345","389761","0.0-1.0-482.0-0.0","0","0","93871","","852","","","68","53","","","2","53","training","adjacent","DC","4","3","O.jpg","Q.jpg","0","0","1","",""
"","feedback","","html-keyboard-response","346","390763","0.0-1.0-483.0-0.0","0","0","93871","","null","","","null","53","","","","","","","","","","","","","","","",""
"","ITI","","html-keyboard-response","347","391765","0.0-1.0-486.0","0","0","93871","","null","","","null","53","","","","","","","","","","","","","","","NaN",""
"","S1","","html-keyboard-response","348","391918","0.0-1.0-488.0","0","0","93871","","null","","","null","54","","","","","","","","","","","","","","","",""
"","ISI","","html-keyboard-response","349","393921","0.0-1.0-489.0","0","0","93871","","null","","","null","54","NaN","","","","","","","","","","","","","","",""
"","S2","","html-keyboard-response","350","394074","0.0-1.0-490.0","0","0","93871","","null","","","null","54","","NaN","","","","","","","","","","","","","",""
"","response","","html-keyboard-response","351","394371","0.0-1.0-491.0-0.0","0","0","93871","","293","","","68","54","","","2","54","training","adjacent","BA","2","1","R.jpg","P.jpg","0","0","1","",""
"","feedback","","html-keyboard-response","352","395376","0.0-1.0-492.0-0.0","0","0","93871","","null","","","null","54","","","","","","","","","","","","","","","",""
"","ITI","","html-keyboard-response","353","396380","0.0-1.0-495.0","0","0","93871","","null","","","null","54","","","","","","","","","","","","","","","NaN",""
"","S1","","html-keyboard-response","354","396535","0.0-1.0-497.0","0","0","93871","","null","","","null","55","","","","","","","","","","","","","","","",""
"","ISI","","html-keyboard-response","355","398537","0.0-1.0-498.0","0","0","93871","","null","","","null","55","NaN","","","","","","","","","","","","","","",""
"","S2","","html-keyboard-response","356","398691","0.0-1.0-499.0","0","0","93871","","null","","","null","55","","NaN","","","","","","","","","","","","","",""
"","response","","html-keyboard-response","357","400011","0.0-1.0-500.0-0.0","0","0","93871","","1318","","","75","55","","","2","55","training","adjacent","EF","5","6","L.jpg","M.jpg","1","1","1","",""
"","feedback","","html-keyboard-response","358","401015","0.0-1.0-501.0-0.0","0","0","93871","","null","","","null","55","","","","","","","","","","","","","","","",""
"","ITI","","html-keyboard-response","359","402019","0.0-1.0-504.0","0","0","93871","","null","","","null","55","","","","","","","","","","","","","","","NaN",""
"","S1","","html-keyboard-response","360","402173","0.0-1.0-506.0","0","0","93871","","null","","","null","56","","","","","","","","","","","","","","","",""
"","ISI","","html-keyboard-response","361","404176","0.0-1.0-507.0","0","0","93871","","null","","","null","56","NaN","","","","","","","","","","","","","","",""
"","S2","","html-keyboard-response","362","404335","0.0-1.0-508.0","0","0","93871","","null","","","null","56","","NaN","","","","","","","","","","","","","",""
"","response","","html-keyboard-response","363","405139","0.0-1.0-509.0-0.0","0","0","93871","","801","","","68","56","","","2","56","training","adjacent","FE","6","5","M.jpg","L.jpg","0","0","1","",""
"","feedback","","html-keyboard-response","364","406144","0.0-1.0-510.0-0.0","0","0","93871","","null","","","null","56","","","","","","","","","","","","","","","",""
"","ITI","","html-keyboard-response","365","407148","0.0-1.0-513.0","0","0","93871","","null","","","null","56","","","","","","","","","","","","","","","NaN",""
"","S1","","html-keyboard-response","366","407303","0.0-1.0-515.0","0","0","93871","","null","","","null","57","","","","","","","","","","","","","","","",""
"","ISI","","html-keyboard-response","367","409307","0.0-1.0-516.0","0","0","93871","","null","","","null","57","NaN","","","","","","","","","","","","","","",""
"","S2","","html-keyboard-response","368","409475","0.0-1.0-517.0","0","0","93871","","null","","","null","57","","NaN","","","","","","","","","","","","","",""
"","response","","html-keyboard-response","369","410147","0.0-1.0-518.0-0.0","0","0","93871","","669","","","68","57","","","2","57","training","adjacent","DC","4","3","O.jpg","Q.jpg","0","0","1","",""
"","feedback","","html-keyboard-response","370","411151","0.0-1.0-519.0-0.0","0","0","93871","","null","","","null","57","","","","","","","","","","","","","","","",""
"","ITI","","html-keyboard-response","371","412156","0.0-1.0-522.0","0","0","93871","","null","","","null","57","","","","","","","","","","","","","","","NaN",""
"","S1","","html-keyboard-response","372","412310","0.0-1.0-524.0","0","0","93871","","null","","","null","58","","","","","","","","","","","","","","","",""
"","ISI","","html-keyboard-response","373","414313","0.0-1.0-525.0","0","0","93871","","null","","","null","58","NaN","","","","","","","","","","","","","","",""
"","S2","","html-keyboard-response","374","414467","0.0-1.0-526.0","0","0","93871","","null","","","null","58","","NaN","","","","","","","","","","","","","",""
"","response","","html-keyboard-response","375","415624","0.0-1.0-527.0-0.0","0","0","93871","","1155","","","75","58","","","2","58","training","adjacent","CD","3","4","Q.jpg","O.jpg","1","1","1","",""
"","feedback","","html-keyboard-response","376","416626","0.0-1.0-528.0-0.0","0","0","93871","","null","","","null","58","","","","","","","","","","","","","","","",""
"","ITI","","html-keyboard-response","377","417629","0.0-1.0-531.0","0","0","93871","","null","","","null","58","","","","","","","","","","","","","","","NaN",""
"","S1","","html-keyboard-response","378","417783","0.0-1.0-533.0","0","0","93871","","null","","","null","59","","","","","","","","","","","","","","","",""
"","ISI","","html-keyboard-response","379","419786","0.0-1.0-534.0","0","0","93871","","null","","","null","59","NaN","","","","","","","","","","","","","","",""
"","S2","","html-keyboard-response","380","419939","0.0-1.0-535.0","0","0","93871","","null","","","null","59","","NaN","","","","","","","","","","","","","",""
"","response","","html-keyboard-response","381","421259","0.0-1.0-536.0-0.0","0","0","93871","","1317","","","68","59","","","2","59","training","adjacent","GF","7","6","N.jpg","M.jpg","0","0","1","",""
"","feedback","","html-keyboard-response","382","422263","0.0-1.0-537.0-0.0","0","0","93871","","null","","","null","59","","","","","","","","","","","","","","","",""
"","ITI","","html-keyboard-response","383","423268","0.0-1.0-540.0","0","0","93871","","null","","","null","59","","","","","","","","","","","","","","","NaN",""
"","S1","","html-keyboard-response","384","423427","0.0-1.0-542.0","0","0","93871","","null","","","null","60","","","","","","","","","","","","","","","",""
"","ISI","","html-keyboard-response","385","425431","0.0-1.0-543.0","0","0","93871","","null","","","null","60","NaN","","","","","","","","","","","","","","",""
"","S2","","html-keyboard-response","386","425584","0.0-1.0-544.0","0","0","93871","","null","","","null","60","","NaN","","","","","","","","","","","","","",""
"","response","","html-keyboard-response","387","426210","0.0-1.0-545.0-0.0","0","0","93871","","623","","","75","60","","","2","60","training","adjacent","BC","2","3","R.jpg","Q.jpg","1","1","1","",""
"","feedback","","html-keyboard-response","388","427215","0.0-1.0-546.0-0.0","0","0","93871","","null","","","null","60","","","","","","","","","","","","","","","",""
"","ITI","","html-keyboard-response","389","428219","0.0-1.0-549.0","0","0","93871","","null","","","null","60","","","","","","","","","","","","","","","NaN",""
"","S1","","html-keyboard-response","390","428373","0.0-1.0-551.0","0","0","93871","","null","","","null","61","","","","","","","","","","","","","","","",""
"","ISI","","html-keyboard-response","391","430376","0.0-1.0-552.0","0","0","93871","","null","","","null","61","NaN","","","","","","","","","","","","","","",""
"","S2","","html-keyboard-response","392","430528","0.0-1.0-553.0","0","0","93871","","null","","","null","61","","NaN","","","","","","","","","","","","","",""
"","response","","html-keyboard-response","393","431569","0.0-1.0-554.0-0.0","0","0","93871","","1039","","","68","61","","","2","61","training","adjacent","ED","5","4","L.jpg","O.jpg","0","0","1","",""
"","feedback","","html-keyboard-response","394","432572","0.0-1.0-555.0-0.0","0","0","93871","","null","","","null","61","","","","","","","","","","","","","","","",""
"","ITI","","html-keyboard-response","395","433576","0.0-1.0-558.0","0","0","93871","","null","","","null","61","","","","","","","","","","","","","","","NaN",""
"","S1","","html-keyboard-response","396","433730","0.0-1.0-560.0","0","0","93871","","null","","","null","62","","","","","","","","","","","","","","","",""
"","ISI","","html-keyboard-response","397","435735","0.0-1.0-561.0","0","0","93871","","null","","","null","62","NaN","","","","","","","","","","","","","","",""
"","S2","","html-keyboard-response","398","435888","0.0-1.0-562.0","0","0","93871","","null","","","null","62","","NaN","","","","","","","","","","","","","",""
"","response","","html-keyboard-response","399","436432","0.0-1.0-563.0-0.0","0","0","93871","","543","","","75","62","","","2","62","training","adjacent","DE","4","5","O.jpg","L.jpg","1","1","1","",""
"","feedback","","html-keyboard-response","400","437436","0.0-1.0-564.0-0.0","0","0","93871","","null","","","null","62","","","","","","","","","","","","","","","",""
"","ITI","","html-keyboard-response","401","438439","0.0-1.0-567.0","0","0","93871","","null","","","null","62","","","","","","","","","","","","","","","NaN",""
"","S1","","html-keyboard-response","402","438593","0.0-1.0-569.0","0","0","93871","","null","","","null","63","","","","","","","","","","","","","","","",""
"","ISI","","html-keyboard-response","403","440596","0.0-1.0-570.0","0","0","93871","","null","","","null","63","NaN","","","","","","","","","","","","","","",""
"","S2","","html-keyboard-response","404","440751","0.0-1.0-571.0","0","0","93871","","null","","","null","63","","NaN","","","","","","","","","","","","","",""
"","response","","html-keyboard-response","405","441427","0.0-1.0-572.0-0.0","0","0","93871","","672","","","75","63","","","2","63","training","adjacent","FG","6","7","M.jpg","N.jpg","1","1","1","",""
"","feedback","","html-keyboard-response","406","442436","0.0-1.0-573.0-0.0","0","0","93871","","null","","","null","63","","","","","","","","","","","","","","","",""
"","ITI","","html-keyboard-response","407","443441","0.0-1.0-576.0","0","0","93871","","null","","","null","63","","","","","","","","","","","","","","","NaN",""
"","S1","","html-keyboard-response","408","443596","0.0-1.0-578.0","0","0","93871","","null","","","null","64","","","","","","","","","","","","","","","",""
"","ISI","","html-keyboard-response","409","445599","0.0-1.0-579.0","0","0","93871","","null","","","null","64","NaN","","","","","","","","","","","","","","",""
"","S2","","html-keyboard-response","410","445754","0.0-1.0-580.0","0","0","93871","","null","","","null","64","","NaN","","","","","","","","","","","","","",""
"","response","","html-keyboard-response","411","446312","0.0-1.0-581.0-0.0","0","0","93871","","557","","","68","64","","","2","64","training","adjacent","CB","3","2","Q.jpg","R.jpg","0","0","1","",""
"","feedback","","html-keyboard-response","412","447315","0.0-1.0-582.0-0.0","0","0","93871","","null","","","null","64","","","","","","","","","","","","","","","",""
"","ITI","","html-keyboard-response","413","448319","0.0-1.0-585.0","0","0","93871","","null","","","null","64","","","","","","","","","","","","","","","NaN",""
"","S1","","html-keyboard-response","414","448473","0.0-1.0-587.0","0","0","93871","","null","","","null","65","","","","","","","","","","","","","","","",""
"","ISI","","html-keyboard-response","415","450477","0.0-1.0-588.0","0","0","93871","","null","","","null","65","NaN","","","","","","","","","","","","","","",""
"","S2","","html-keyboard-response","416","450631","0.0-1.0-589.0","0","0","93871","","null","","","null","65","","NaN","","","","","","","","","","","","","",""
"","response","","html-keyboard-response","417","451360","0.0-1.0-590.0-0.0","0","0","93871","","728","","","68","65","","","2","65","training","adjacent","CB","3","2","Q.jpg","R.jpg","0","0","1","",""
"","feedback","","html-keyboard-response","418","452364","0.0-1.0-591.0-0.0","0","0","93871","","null","","","null","65","","","","","","","","","","","","","","","",""
"","ITI","","html-keyboard-response","419","453383","0.0-1.0-594.0","0","0","93871","","null","","","null","65","","","","","","","","","","","","","","","NaN",""
"","S1","","html-keyboard-response","420","453537","0.0-1.0-596.0","0","0","93871","","null","","","null","66","","","","","","","","","","","","","","","",""
"","ISI","","html-keyboard-response","421","455541","0.0-1.0-597.0","0","0","93871","","null","","","null","66","NaN","","","","","","","","","","","","","","",""
"","S2","","html-keyboard-response","422","455694","0.0-1.0-598.0","0","0","93871","","null","","","null","66","","NaN","","","","","","","","","","","","","",""
"","response","","html-keyboard-response","423","456467","0.0-1.0-599.0-0.0","0","0","93871","","770","","","68","66","","","2","66","training","adjacent","ED","5","4","L.jpg","O.jpg","0","0","1","",""
"","feedback","","html-keyboard-response","424","457471","0.0-1.0-600.0-0.0","0","0","93871","","null","","","null","66","","","","","","","","","","","","","","","",""
"","ITI","","html-keyboard-response","425","458474","0.0-1.0-603.0","0","0","93871","","null","","","null","66","","","","","","","","","","","","","","","NaN",""
"","S1","","html-keyboard-response","426","458629","0.0-1.0-605.0","0","0","93871","","null","","","null","67","","","","","","","","","","","","","","","",""
"","ISI","","html-keyboard-response","427","460633","0.0-1.0-606.0","0","0","93871","","null","","","null","67","NaN","","","","","","","","","","","","","","",""
"","S2","","html-keyboard-response","428","460786","0.0-1.0-607.0","0","0","93871","","null","","","null","67","","NaN","","","","","","","","","","","","","",""
"","response","","html-keyboard-response","429","461336","0.0-1.0-608.0-0.0","0","0","93871","","549","","","68","67","","","2","67","training","adjacent","CB","3","2","Q.jpg","R.jpg","0","0","1","",""
"","feedback","","html-keyboard-response","430","462339","0.0-1.0-609.0-0.0","0","0","93871","","null","","","null","67","","","","","","","","","","","","","","","",""
"","ITI","","html-keyboard-response","431","463345","0.0-1.0-612.0","0","0","93871","","null","","","null","67","","","","","","","","","","","","","","","NaN",""
"","S1","","html-keyboard-response","432","463499","0.0-1.0-614.0","0","0","93871","","null","","","null","68","","","","","","","","","","","","","","","",""
"","ISI","","html-keyboard-response","433","465502","0.0-1.0-615.0","0","0","93871","","null","","","null","68","NaN","","","","","","","","","","","","","","",""
"","S2","","html-keyboard-response","434","465657","0.0-1.0-616.0","0","0","93871","","null","","","null","68","","NaN","","","","","","","","","","","","","",""
"","response","","html-keyboard-response","435","465992","0.0-1.0-617.0-0.0","0","0","93871","","333","","","75","68","","","2","68","training","adjacent","AB","1","2","P.jpg","R.jpg","1","1","1","",""
"","feedback","","html-keyboard-response","436","466995","0.0-1.0-618.0-0.0","0","0","93871","","null","","","null","68","","","","","","","","","","","","","","","",""
"","ITI","","html-keyboard-response","437","467999","0.0-1.0-621.0","0","0","93871","","null","","","null","68","","","","","","","","","","","","","","","NaN",""
"","S1","","html-keyboard-response","438","468152","0.0-1.0-623.0","0","0","93871","","null","","","null","69","","","","","","","","","","","","","","","",""
"","ISI","","html-keyboard-response","439","470154","0.0-1.0-624.0","0","0","93871","","null","","","null","69","NaN","","","","","","","","","","","","","","",""
"","S2","","html-keyboard-response","440","470308","0.0-1.0-625.0","0","0","93871","","null","","","null","69","","NaN","","","","","","","","","","","","","",""
"","response","","html-keyboard-response","441","471008","0.0-1.0-626.0-0.0","0","0","93871","","698","","","68","69","","","2","69","training","adjacent","FE","6","5","M.jpg","L.jpg","0","0","1","",""
"","feedback","","html-keyboard-response","442","472012","0.0-1.0-627.0-0.0","0","0","93871","","null","","","null","69","","","","","","","","","","","","","","","",""
"","ITI","","html-keyboard-response","443","473015","0.0-1.0-630.0","0","0","93871","","null","","","null","69","","","","","","","","","","","","","","","NaN",""
"","S1","","html-keyboard-response","444","473168","0.0-1.0-632.0","0","0","93871","","null","","","null","70","","","","","","","","","","","","","","","",""
"","ISI","","html-keyboard-response","445","475171","0.0-1.0-633.0","0","0","93871","","null","","","null","70","NaN","","","","","","","","","","","","","","",""
"","S2","","html-keyboard-response","446","475325","0.0-1.0-634.0","0","0","93871","","null","","","null","70","","NaN","","","","","","","","","","","","","",""
"","response","","html-keyboard-response","447","475954","0.0-1.0-635.0-0.0","0","0","93871","","626","","","75","70","","","2","70","training","adjacent","BC","2","3","R.jpg","Q.jpg","1","1","1","",""
"","feedback","","html-keyboard-response","448","476958","0.0-1.0-636.0-0.0","0","0","93871","","null","","","null","70","","","","","","","","","","","","","","","",""
"","ITI","","html-keyboard-response","449","477962","0.0-1.0-639.0","0","0","93871","","null","","","null","70","","","","","","","","","","","","","","","NaN",""
"","S1","","html-keyboard-response","450","478114","0.0-1.0-641.0","0","0","93871","","null","","","null","71","","","","","","","","","","","","","","","",""
"","ISI","","html-keyboard-response","451","480118","0.0-1.0-642.0","0","0","93871","","null","","","null","71","NaN","","","","","","","","","","","","","","",""
"","S2","","html-keyboard-response","452","480270","0.0-1.0-643.0","0","0","93871","","null","","","null","71","","NaN","","","","","","","","","","","","","",""
"","response","","html-keyboard-response","453","480608","0.0-1.0-644.0-0.0","0","0","93871","","336","","","68","71","","","2","71","training","adjacent","ED","5","4","L.jpg","O.jpg","0","0","1","",""
"","feedback","","html-keyboard-response","454","481610","0.0-1.0-645.0-0.0","0","0","93871","","null","","","null","71","","","","","","","","","","","","","","","",""
"","ITI","","html-keyboard-response","455","482613","0.0-1.0-648.0","0","0","93871","","null","","","null","71","","","","","","","","","","","","","","","NaN",""
"","S1","","html-keyboard-response","456","482766","0.0-1.0-650.0","0","0","93871","","null","","","null","72","","","","","","","","","","","","","","","",""
"","ISI","","html-keyboard-response","457","484769","0.0-1.0-651.0","0","0","93871","","null","","","null","72","NaN","","","","","","","","","","","","","","",""
"","S2","","html-keyboard-response","458","484924","0.0-1.0-652.0","0","0","93871","","null","","","null","72","","NaN","","","","","","","","","","","","","",""
"","response","","html-keyboard-response","459","485801","0.0-1.0-653.0-0.0","0","0","93871","","874","","","68","72","","","2","72","training","adjacent","FE","6","5","M.jpg","L.jpg","0","0","1","",""
"","feedback","","html-keyboard-response","460","486806","0.0-1.0-654.0-0.0","0","0","93871","","null","","","null","72","","","","","","","","","","","","","","","",""
"","ITI","","html-keyboard-response","461","487810","0.0-1.0-657.0","0","0","93871","","null","","","null","72","","","","","","","","","","","","","","","NaN",""
"","S1","","html-keyboard-response","462","487964","0.0-1.0-659.0","0","0","93871","","null","","","null","73","","","","","","","","","","","","","","","",""
"","ISI","","html-keyboard-response","463","489966","0.0-1.0-660.0","0","0","93871","","null","","","null","73","NaN","","","","","","","","","","","","","","",""
"","S2","","html-keyboard-response","464","490120","0.0-1.0-661.0","0","0","93871","","null","","","null","73","","NaN","","","","","","","","","","","","","",""
"","response","","html-keyboard-response","465","490418","0.0-1.0-662.0-0.0","0","0","93871","","295","","","75","73","","","2","73","training","adjacent","AB","1","2","P.jpg","R.jpg","1","1","1","",""
"","feedback","","html-keyboard-response","466","491422","0.0-1.0-663.0-0.0","0","0","93871","","null","","","null","73","","","","","","","","","","","","","","","",""
"","ITI","","html-keyboard-response","467","492427","0.0-1.0-666.0","0","0","93871","","null","","","null","73","","","","","","","","","","","","","","","NaN",""
"","S1","","html-keyboard-response","468","492579","0.0-1.0-668.0","0","0","93871","","null","","","null","74","","","","","","","","","","","","","","","",""
"","ISI","","html-keyboard-response","469","494582","0.0-1.0-669.0","0","0","93871","","null","","","null","74","NaN","","","","","","","","","","","","","","",""
"","S2","","html-keyboard-response","470","494736","0.0-1.0-670.0","0","0","93871","","null","","","null","74","","NaN","","","","","","","","","","","","","",""
"","response","","html-keyboard-response","471","495546","0.0-1.0-671.0-0.0","0","0","93871","","808","","","75","74","","","2","74","training","adjacent","FG","6","7","M.jpg","N.jpg","1","1","1","",""
"","feedback","","html-keyboard-response","472","496550","0.0-1.0-672.0-0.0","0","0","93871","","null","","","null","74","","","","","","","","","","","","","","","",""
"","ITI","","html-keyboard-response","473","497554","0.0-1.0-675.0","0","0","93871","","null","","","null","74","","","","","","","","","","","","","","","NaN",""
"","S1","","html-keyboard-response","474","497708","0.0-1.0-677.0","0","0","93871","","null","","","null","75","","","","","","","","","","","","","","","",""
"","ISI","","html-keyboard-response","475","499710","0.0-1.0-678.0","0","0","93871","","null","","","null","75","NaN","","","","","","","","","","","","","","",""
"","S2","","html-keyboard-response","476","499864","0.0-1.0-679.0","0","0","93871","","null","","","null","75","","NaN","","","","","","","","","","","","","",""
"","response","","html-keyboard-response","477","500144","0.0-1.0-680.0-0.0","0","0","93871","","278","","","68","75","","","2","75","training","adjacent","BA","2","1","R.jpg","P.jpg","0","0","1","",""
"","feedback","","html-keyboard-response","478","501148","0.0-1.0-681.0-0.0","0","0","93871","","null","","","null","75","","","","","","","","","","","","","","","",""
"","ITI","","html-keyboard-response","479","502152","0.0-1.0-684.0","0","0","93871","","null","","","null","75","","","","","","","","","","","","","","","NaN",""
"","S1","","html-keyboard-response","480","502305","0.0-1.0-686.0","0","0","93871","","null","","","null","76","","","","","","","","","","","","","","","",""
"","ISI","","html-keyboard-response","481","504308","0.0-1.0-687.0","0","0","93871","","null","","","null","76","NaN","","","","","","","","","","","","","","",""
"","S2","","html-keyboard-response","482","504462","0.0-1.0-688.0","0","0","93871","","null","","","null","76","","NaN","","","","","","","","","","","","","",""
"","response","","html-keyboard-response","483","504794","0.0-1.0-689.0-0.0","0","0","93871","","329","","","75","76","","","2","76","training","adjacent","CD","3","4","Q.jpg","O.jpg","1","1","1","",""
"","feedback","","html-keyboard-response","484","505798","0.0-1.0-690.0-0.0","0","0","93871","","null","","","null","76","","","","","","","","","","","","","","","",""
"","ITI","","html-keyboard-response","485","506802","0.0-1.0-693.0","0","0","93871","","null","","","null","76","","","","","","","","","","","","","","","NaN",""
"","S1","","html-keyboard-response","486","506955","0.0-1.0-695.0","0","0","93871","","null","","","null","77","","","","","","","","","","","","","","","",""
"","ISI","","html-keyboard-response","487","508957","0.0-1.0-696.0","0","0","93871","","null","","","null","77","NaN","","","","","","","","","","","","","","",""
"","S2","","html-keyboard-response","488","509110","0.0-1.0-697.0","0","0","93871","","null","","","null","77","","NaN","","","","","","","","","","","","","",""
"","response","","html-keyboard-response","489","510290","0.0-1.0-698.0-0.0","0","0","93871","","1177","","","75","77","","","2","77","training","adjacent","DE","4","5","O.jpg","L.jpg","1","1","1","",""
"","feedback","","html-keyboard-response","490","511294","0.0-1.0-699.0-0.0","0","0","93871","","null","","","null","77","","","","","","","","","","","","","","","",""
"","ITI","","html-keyboard-response","491","512297","0.0-1.0-702.0","0","0","93871","","null","","","null","77","","","","","","","","","","","","","","","NaN",""
"","S1","","html-keyboard-response","492","512453","0.0-1.0-704.0","0","0","93871","","null","","","null","78","","","","","","","","","","","","","","","",""
"","ISI","","html-keyboard-response","493","514465","0.0-1.0-705.0","0","0","93871","","null","","","null","78","NaN","","","","","","","","","","","","","","",""
"","S2","","html-keyboard-response","494","514620","0.0-1.0-706.0","0","0","93871","","null","","","null","78","","NaN","","","","","","","","","","","","","",""
"","response","","html-keyboard-response","495","515210","0.0-1.0-707.0-0.0","0","0","93871","","587","","","75","78","","","2","78","training","adjacent","DE","4","5","O.jpg","L.jpg","1","1","1","",""
"","feedback","","html-keyboard-response","496","516214","0.0-1.0-708.0-0.0","0","0","93871","","null","","","null","78","","","","","","","","","","","","","","","",""
"","ITI","","html-keyboard-response","497","517217","0.0-1.0-711.0","0","0","93871","","null","","","null","78","","","","","","","","","","","","","","","NaN",""
"","S1","","html-keyboard-response","498","517372","0.0-1.0-713.0","0","0","93871","","null","","","null","79","","","","","","","","","","","","","","","",""
"","ISI","","html-keyboard-response","499","519375","0.0-1.0-714.0","0","0","93871","","null","","","null","79","NaN","","","","","","","","","","","","","","",""
"","S2","","html-keyboard-response","500","519528","0.0-1.0-715.0","0","0","93871","","null","","","null","79","","NaN","","","","","","","","","","","","","",""
"","response","","html-keyboard-response","501","520032","0.0-1.0-716.0-0.0","0","0","93871","","501","","","75","79","","","2","79","training","adjacent","FG","6","7","M.jpg","N.jpg","1","1","1","",""
"","feedback","","html-keyboard-response","502","521034","0.0-1.0-717.0-0.0","0","0","93871","","null","","","null","79","","","","","","","","","","","","","","","",""
"","ITI","","html-keyboard-response","503","522039","0.0-1.0-720.0","0","0","93871","","null","","","null","79","","","","","","","","","","","","","","","NaN",""
"","S1","","html-keyboard-response","504","522193","0.0-1.0-722.0","0","0","93871","","null","","","null","80","","","","","","","","","","","","","","","",""
"","ISI","","html-keyboard-response","505","524195","0.0-1.0-723.0","0","0","93871","","null","","","null","80","NaN","","","","","","","","","","","","","","",""
"","S2","","html-keyboard-response","506","524349","0.0-1.0-724.0","0","0","93871","","null","","","null","80","","NaN","","","","","","","","","","","","","",""
"","response","","html-keyboard-response","507","524818","0.0-1.0-725.0-0.0","0","0","93871","","466","","","68","80","","","2","80","training","adjacent","DC","4","3","O.jpg","Q.jpg","0","0","1","",""
"","feedback","","html-keyboard-response","508","525823","0.0-1.0-726.0-0.0","0","0","93871","","null","","","null","80","","","","","","","","","","","","","","","",""
"","ITI","","html-keyboard-response","509","526828","0.0-1.0-729.0","0","0","93871","","null","","","null","80","","","","","","","","","","","","","","","NaN",""
"","S1","","html-keyboard-response","510","526981","0.0-1.0-731.0","0","0","93871","","null","","","null","81","","","","","","","","","","","","","","","",""
"","ISI","","html-keyboard-response","511","528984","0.0-1.0-732.0","0","0","93871","","null","","","null","81","NaN","","","","","","","","","","","","","","",""
"","S2","","html-keyboard-response","512","529137","0.0-1.0-733.0","0","0","93871","","null","","","null","81","","NaN","","","","","","","","","","","","","",""
"","response","","html-keyboard-response","513","529370","0.0-1.0-734.0-0.0","0","0","93871","","231","","","68","81","","","2","81","training","adjacent","GF","7","6","N.jpg","M.jpg","0","0","1","",""
"","feedback","","html-keyboard-response","514","530375","0.0-1.0-735.0-0.0","0","0","93871","","null","","","null","81","","","","","","","","","","","","","","","",""
"","ITI","","html-keyboard-response","515","531378","0.0-1.0-738.0","0","0","93871","","null","","","null","81","","","","","","","","","","","","","","","NaN",""
"","S1","","html-keyboard-response","516","531531","0.0-1.0-740.0","0","0","93871","","null","","","null","82","","","","","","","","","","","","","","","",""
"","ISI","","html-keyboard-response","517","533533","0.0-1.0-741.0","0","0","93871","","null","","","null","82","NaN","","","","","","","","","","","","","","",""
"","S2","","html-keyboard-response","518","533686","0.0-1.0-742.0","0","0","93871","","null","","","null","82","","NaN","","","","","","","","","","","","","",""
"","response","","html-keyboard-response","519","533953","0.0-1.0-743.0-0.0","0","0","93871","","264","","","68","82","","","2","82","training","adjacent","GF","7","6","N.jpg","M.jpg","0","0","1","",""
"","feedback","","html-keyboard-response","520","534957","0.0-1.0-744.0-0.0","0","0","93871","","null","","","null","82","","","","","","","","","","","","","","","",""
"","ITI","","html-keyboard-response","521","535960","0.0-1.0-747.0","0","0","93871","","null","","","null","82","","","","","","","","","","","","","","","NaN",""
"","S1","","html-keyboard-response","522","536113","0.0-1.0-749.0","0","0","93871","","null","","","null","83","","","","","","","","","","","","","","","",""
"","ISI","","html-keyboard-response","523","538117","0.0-1.0-750.0","0","0","93871","","null","","","null","83","NaN","","","","","","","","","","","","","","",""
"","S2","","html-keyboard-response","524","538271","0.0-1.0-751.0","0","0","93871","","null","","","null","83","","NaN","","","","","","","","","","","","","",""
"","response","","html-keyboard-response","525","538547","0.0-1.0-752.0-0.0","0","0","93871","","274","","","75","83","","","2","83","training","adjacent","CD","3","4","Q.jpg","O.jpg","1","1","1","",""
"","feedback","","html-keyboard-response","526","539552","0.0-1.0-753.0-0.0","0","0","93871","","null","","","null","83","","","","","","","","","","","","","","","",""
"","ITI","","html-keyboard-response","527","540556","0.0-1.0-756.0","0","0","93871","","null","","","null","83","","","","","","","","","","","","","","","NaN",""
"","S1","","html-keyboard-response","528","540711","0.0-1.0-758.0","0","0","93871","","null","","","null","84","","","","","","","","","","","","","","","",""
"","ISI","","html-keyboard-response","529","542715","0.0-1.0-759.0","0","0","93871","","null","","","null","84","NaN","","","","","","","","","","","","","","",""
"","S2","","html-keyboard-response","530","542869","0.0-1.0-760.0","0","0","93871","","null","","","null","84","","NaN","","","","","","","","","","","","","",""
"","response","","html-keyboard-response","531","543289","0.0-1.0-761.0-0.0","0","0","93871","","418","","","75","84","","","2","84","training","adjacent","CD","3","4","Q.jpg","O.jpg","1","1","1","",""
"","feedback","","html-keyboard-response","532","544293","0.0-1.0-762.0-0.0","0","0","93871","","null","","","null","84","","","","","","","","","","","","","","","",""
"","ITI","","html-keyboard-response","533","545297","0.0-1.0-765.0","0","0","93871","","null","","","null","84","","","","","","","","","","","","","","","NaN",""
"","S1","","html-keyboard-response","534","545450","0.0-1.0-767.0","0","0","93871","","null","","","null","85","","","","","","","","","","","","","","","",""
"","ISI","","html-keyboard-response","535","547453","0.0-1.0-768.0","0","0","93871","","null","","","null","85","NaN","","","","","","","","","","","","","","",""
"","S2","","html-keyboard-response","536","547608","0.0-1.0-769.0","0","0","93871","","null","","","null","85","","NaN","","","","","","","","","","","","","",""
"","response","","html-keyboard-response","537","548035","0.0-1.0-770.0-0.0","0","0","93871","","424","","","75","85","","","2","85","training","adjacent","FG","6","7","M.jpg","N.jpg","1","1","1","",""
"","feedback","","html-keyboard-response","538","549040","0.0-1.0-771.0-0.0","0","0","93871","","null","","","null","85","","","","","","","","","","","","","","","",""
"","ITI","","html-keyboard-response","539","550044","0.0-1.0-774.0","0","0","93871","","null","","","null","85","","","","","","","","","","","","","","","NaN",""
"","S1","","html-keyboard-response","540","550199","0.0-1.0-776.0","0","0","93871","","null","","","null","86","","","","","","","","","","","","","","","",""
"","ISI","","html-keyboard-response","541","552201","0.0-1.0-777.0","0","0","93871","","null","","","null","86","NaN","","","","","","","","","","","","","","",""
"","S2","","html-keyboard-response","542","552355","0.0-1.0-778.0","0","0","93871","","null","","","null","86","","NaN","","","","","","","","","","","","","",""
"","response","","html-keyboard-response","543","553690","0.0-1.0-779.0-0.0","0","0","93871","","1332","","","75","86","","","2","86","training","adjacent","EF","5","6","L.jpg","M.jpg","1","1","1","",""
"","feedback","","html-keyboard-response","544","554692","0.0-1.0-780.0-0.0","0","0","93871","","null","","","null","86","","","","","","","","","","","","","","","",""
"","ITI","","html-keyboard-response","545","555695","0.0-1.0-783.0","0","0","93871","","null","","","null","86","","","","","","","","","","","","","","","NaN",""
"","S1","","html-keyboard-response","546","555848","0.0-1.0-785.0","0","0","93871","","null","","","null","87","","","","","","","","","","","","","","","",""
"","ISI","","html-keyboard-response","547","557851","0.0-1.0-786.0","0","0","93871","","null","","","null","87","NaN","","","","","","","","","","","","","","",""
"","S2","","html-keyboard-response","548","558003","0.0-1.0-787.0","0","0","93871","","null","","","null","87","","NaN","","","","","","","","","","","","","",""
"","response","","html-keyboard-response","549","558313","0.0-1.0-788.0-0.0","0","0","93871","","306","","","68","87","","","2","87","training","adjacent","BA","2","1","R.jpg","P.jpg","0","0","1","",""
"","feedback","","html-keyboard-response","550","559316","0.0-1.0-789.0-0.0","0","0","93871","","null","","","null","87","","","","","","","","","","","","","","","",""
"","ITI","","html-keyboard-response","551","560321","0.0-1.0-792.0","0","0","93871","","null","","","null","87","","","","","","","","","","","","","","","NaN",""
"","S1","","html-keyboard-response","552","560474","0.0-1.0-794.0","0","0","93871","","null","","","null","88","","","","","","","","","","","","","","","",""
"","ISI","","html-keyboard-response","553","562477","0.0-1.0-795.0","0","0","93871","","null","","","null","88","NaN","","","","","","","","","","","","","","",""
"","S2","","html-keyboard-response","554","562641","0.0-1.0-796.0","0","0","93871","","null","","","null","88","","NaN","","","","","","","","","","","","","",""
"","response","","html-keyboard-response","555","563131","0.0-1.0-797.0-0.0","0","0","93871","","488","","","68","88","","","2","88","training","adjacent","BA","2","1","R.jpg","P.jpg","0","0","1","",""
"","feedback","","html-keyboard-response","556","564136","0.0-1.0-798.0-0.0","0","0","93871","","null","","","null","88","","","","","","","","","","","","","","","",""
"","ITI","","html-keyboard-response","557","565140","0.0-1.0-801.0","0","0","93871","","null","","","null","88","","","","","","","","","","","","","","","NaN",""
"","S1","","html-keyboard-response","558","565294","0.0-1.0-803.0","0","0","93871","","null","","","null","89","","","","","","","","","","","","","","","",""
"","ISI","","html-keyboard-response","559","567297","0.0-1.0-804.0","0","0","93871","","null","","","null","89","NaN","","","","","","","","","","","","","","",""
"","S2","","html-keyboard-response","560","567450","0.0-1.0-805.0","0","0","93871","","null","","","null","89","","NaN","","","","","","","","","","","","","",""
"","response","","html-keyboard-response","561","567977","0.0-1.0-806.0-0.0","0","0","93871","","525","","","68","89","","","2","89","training","adjacent","FE","6","5","M.jpg","L.jpg","0","0","1","",""
"","feedback","","html-keyboard-response","562","568981","0.0-1.0-807.0-0.0","0","0","93871","","null","","","null","89","","","","","","","","","","","","","","","",""
"","ITI","","html-keyboard-response","563","569991","0.0-1.0-810.0","0","0","93871","","null","","","null","89","","","","","","","","","","","","","","","NaN",""
"","S1","","html-keyboard-response","564","570145","0.0-1.0-812.0","0","0","93871","","null","","","null","90","","","","","","","","","","","","","","","",""
"","ISI","","html-keyboard-response","565","572148","0.0-1.0-813.0","0","0","93871","","null","","","null","90","NaN","","","","","","","","","","","","","","",""
"","S2","","html-keyboard-response","566","572302","0.0-1.0-814.0","0","0","93871","","null","","","null","90","","NaN","","","","","","","","","","","","","",""
"","response","","html-keyboard-response","567","572867","0.0-1.0-815.0-0.0","0","0","93871","","561","","","75","90","","","2","90","training","adjacent","BC","2","3","R.jpg","Q.jpg","1","1","1","",""
"","feedback","","html-keyboard-response","568","573871","0.0-1.0-816.0-0.0","0","0","93871","","null","","","null","90","","","","","","","","","","","","","","","",""
"","ITI","","html-keyboard-response","569","574876","0.0-1.0-819.0","0","0","93871","","null","","","null","90","","","","","","","","","","","","","","","NaN",""
"","S1","","html-keyboard-response","570","575043","0.0-1.0-821.0","0","0","93871","","null","","","null","91","","","","","","","","","","","","","","","",""
"","ISI","","html-keyboard-response","571","577046","0.0-1.0-822.0","0","0","93871","","null","","","null","91","NaN","","","","","","","","","","","","","","",""
"","S2","","html-keyboard-response","572","577198","0.0-1.0-823.0","0","0","93871","","null","","","null","91","","NaN","","","","","","","","","","","","","",""
"","response","","html-keyboard-response","573","578715","0.0-1.0-824.0-0.0","0","0","93871","","1515","","","68","91","","","2","91","training","adjacent","DC","4","3","O.jpg","Q.jpg","0","0","1","",""
"","feedback","","html-keyboard-response","574","579720","0.0-1.0-825.0-0.0","0","0","93871","","null","","","null","91","","","","","","","","","","","","","","","",""
"","ITI","","html-keyboard-response","575","580724","0.0-1.0-828.0","0","0","93871","","null","","","null","91","","","","","","","","","","","","","","","NaN",""
"","S1","","html-keyboard-response","576","580877","0.0-1.0-830.0","0","0","93871","","null","","","null","92","","","","","","","","","","","","","","","",""
"","ISI","","html-keyboard-response","577","582880","0.0-1.0-831.0","0","0","93871","","null","","","null","92","NaN","","","","","","","","","","","","","","",""
"","S2","","html-keyboard-response","578","583033","0.0-1.0-832.0","0","0","93871","","null","","","null","92","","NaN","","","","","","","","","","","","","",""
"","response","","html-keyboard-response","579","584018","0.0-1.0-833.0-0.0","0","0","93871","","983","","","75","92","","","2","92","training","adjacent","EF","5","6","L.jpg","M.jpg","1","1","1","",""
"","feedback","","html-keyboard-response","580","585023","0.0-1.0-834.0-0.0","0","0","93871","","null","","","null","92","","","","","","","","","","","","","","","",""
"","ITI","","html-keyboard-response","581","586028","0.0-1.0-837.0","0","0","93871","","null","","","null","92","","","","","","","","","","","","","","","NaN",""
"","S1","","html-keyboard-response","582","586183","0.0-1.0-839.0","0","0","93871","","null","","","null","93","","","","","","","","","","","","","","","",""
