"success","ttype","start_time","trial_type","trial_index","time_elapsed","internal_node_id","warning","missed_checkup","PID","view_history","rt","responses","repeat_instructions","key_press","index","keypress_isi","keypress_S2","block","trial_num","phase","group_type","pair_type","S1_stim","S2_stim","S1_img","S2_img","S1_chosen","S1_higher","accuracy","keypress_iti","total_bonus_tally"
"true","full_screen","d04132023hr1624","fullscreen","0","34226","0.0-0.0","0","0","76179","","","","","","","","","","","","","","","","","","","","","",""
"","instructions","","instructions","1","104594","0.0-1.0-0.0-0.0","0","0","76179","[{""page_index"":0,""viewing_time"":9359},{""page_index"":1,""viewing_time"":30662},{""page_index"":2,""viewing_time"":24771},{""page_index"":3,""viewing_time"":5568}]","70362","","","","","","","","","","","","","","","","","","","",""
"","comprehension_check","","survey-multi-choice","2","174359","0.0-1.0-0.0-1.0","0","0","76179","","69755","{""Q0"":""True"",""Q1"":""K"",""Q2"":""Once the second image appears and while the screen 'MAKE A CHOICE' is shown"",""Q3"":""Green mark"",""Q4"":""either D or K""}","0","","","","","","","","","","","","","","","","","",""
"","start_exp","","html-keyboard-response","3","182152","0.0-1.0-1.0","0","0","76179","","7784","","","32","","","","","","","","","","","","","","","","",""
"","S1","","html-keyboard-response","4","182414","0.0-1.0-2.0","0","0","76179","","null","","","null","0","","","","","","","","","","","","","","","",""
"","ISI","","html-keyboard-response","5","183422","0.0-1.0-3.0","0","0","76179","","null","","","null","0","NaN","","","","","","","","","","","","","","",""
"","S2","","html-keyboard-response","6","183683","0.0-1.0-4.0","0","0","76179","","null","","","null","0","","NaN","","","","","","","","","","","","","",""
"","response","","html-keyboard-response","7","185440","0.0-1.0-5.0-0.0","0","0","76179","","null","","","null","0","","","1","0","training","adjacent","AB","1","2","Q.jpg","M.jpg","NaN","1","0","",""
"","too_slow_prompt","","html-keyboard-response","8","186445","0.0-1.0-7.0-0.0","1","0","76179","","null","","","null","","","","","","","","","","","","","","","","",""
"","time_out","","html-keyboard-response","9","188455","0.0-1.0-8.0-0.0","0","0","76179","","null","","","null","0","","","","","","","","","","","","","","","",""
"","ITI","","html-keyboard-response","10","189466","0.0-1.0-9.0","0","0","76179","","null","","","null","0","","","","","","","","","","","","","","","NaN",""
"","S1","","html-keyboard-response","11","189723","0.0-1.0-11.0","0","0","76179","","null","","","null","1","","","","","","","","","","","","","","","",""
"","ISI","","html-keyboard-response","12","190736","0.0-1.0-12.0","0","0","76179","","null","","","null","1","NaN","","","","","","","","","","","","","","",""
"","S2","","html-keyboard-response","13","190993","0.0-1.0-13.0","0","0","76179","","null","","","null","1","","NaN","","","","","","","","","","","","","",""
"","response","","html-keyboard-response","14","191543","0.0-1.0-14.0-0.0","0","0","76179","","546","","","68","1","","","1","1","training","adjacent","CD","3","4","L.jpg","P.jpg","0","1","0","",""
"","feedback","","html-keyboard-response","15","192557","0.0-1.0-15.0-0.0","0","0","76179","","null","","","null","1","","","","","","","","","","","","","","","",""
"","time_out","","html-keyboard-response","16","194561","0.0-1.0-17.0-0.0","0","0","76179","","null","","","null","1","","","","","","","","","","","","","","","",""
"","ITI","","html-keyboard-response","17","195567","0.0-1.0-18.0","0","0","76179","","null","","","null","1","","","","","","","","","","","","","","","NaN",""
"","S1","","html-keyboard-response","18","195836","0.0-1.0-20.0","0","0","76179","","null","","","null","2","","","","","","","","","","","","","","","",""
"","ISI","","html-keyboard-response","19","196848","0.0-1.0-21.0","0","0","76179","","null","","","null","2","NaN","","","","","","","","","","","","","","",""
"","S2","","html-keyboard-response","20","197110","0.0-1.0-22.0","0","0","76179","","null","","","null","2","","NaN","","","","","","","","","","","","","",""
"","response","","html-keyboard-response","21","198326","0.0-1.0-23.0-0.0","0","0","76179","","1212","","","68","2","","","1","2","training","adjacent","BC","2","3","M.jpg","L.jpg","0","1","0","",""
"","feedback","","html-keyboard-response","22","199336","0.0-1.0-24.0-0.0","0","0","76179","","null","","","null","2","","","","","","","","","","","","","","","",""
"","time_out","","html-keyboard-response","23","201348","0.0-1.0-26.0-0.0","0","0","76179","","null","","","null","2","","","","","","","","","","","","","","","",""
"","ITI","","html-keyboard-response","24","202359","0.0-1.0-27.0","0","0","76179","","null","","","null","2","","","","","","","","","","","","","","","NaN",""
"","S1","","html-keyboard-response","25","202621","0.0-1.0-29.0","0","0","76179","","null","","","null","3","","","","","","","","","","","","","","","",""
"","ISI","","html-keyboard-response","26","203632","0.0-1.0-30.0","0","0","76179","","null","","","null","3","NaN","","","","","","","","","","","","","","",""
"","S2","","html-keyboard-response","27","203890","0.0-1.0-31.0","0","0","76179","","null","","","null","3","","NaN","","","","","","","","","","","","","",""
"","response","","html-keyboard-response","28","204350","0.0-1.0-32.0-0.0","0","0","76179","","457","","","75","3","","","1","3","training","adjacent","AB","1","2","Q.jpg","M.jpg","1","1","1","",""
"","feedback","","html-keyboard-response","29","205359","0.0-1.0-33.0-0.0","0","0","76179","","null","","","null","3","","","","","","","","","","","","","","","",""
"","ITI","","html-keyboard-response","30","206378","0.0-1.0-36.0","0","0","76179","","null","","","null","3","","","","","","","","","","","","","","","NaN",""
"","S1","","html-keyboard-response","31","206635","0.0-1.0-38.0","0","0","76179","","null","","","null","4","","","","","","","","","","","","","","","",""
"","ISI","","html-keyboard-response","32","207648","0.0-1.0-39.0","0","0","76179","","null","","","null","4","NaN","","","","","","","","","","","","","","",""
"","S2","","html-keyboard-response","33","207907","0.0-1.0-40.0","0","0","76179","","null","","","null","4","","NaN","","","","","","","","","","","","","",""
"","response","","html-keyboard-response","34","208497","0.0-1.0-41.0-0.0","0","0","76179","","587","","","75","4","","","1","4","training","adjacent","GF","7","6","R.jpg","N.jpg","1","0","0","",""
"","feedback","","html-keyboard-response","35","209510","0.0-1.0-42.0-0.0","0","0","76179","","null","","","null","4","","","","","","","","","","","","","","","",""
"","time_out","","html-keyboard-response","36","211515","0.0-1.0-44.0-0.0","0","0","76179","","null","","","null","4","","","","","","","","","","","","","","","",""
"","ITI","","html-keyboard-response","37","212520","0.0-1.0-45.0","0","0","76179","","null","","","null","4","","","","","","","","","","","","","","","NaN",""
"","S1","","html-keyboard-response","38","212775","0.0-1.0-47.0","0","0","76179","","null","","","null","5","","","","","","","","","","","","","","","",""
"","ISI","","html-keyboard-response","39","213783","0.0-1.0-48.0","0","0","76179","","null","","","null","5","NaN","","","","","","","","","","","","","","",""
"","S2","","html-keyboard-response","40","214043","0.0-1.0-49.0","0","0","76179","","null","","","null","5","","NaN","","","","","","","","","","","","","",""
"","response","","html-keyboard-response","41","214864","0.0-1.0-50.0-0.0","0","0","76179","","817","","","68","5","","","1","5","training","adjacent","FE","6","5","N.jpg","O.jpg","0","0","1","",""
"","feedback","","html-keyboard-response","42","215872","0.0-1.0-51.0-0.0","0","0","76179","","null","","","null","5","","","","","","","","","","","","","","","",""
"","ITI","","html-keyboard-response","43","216887","0.0-1.0-54.0","0","0","76179","","null","","","null","5","","","","","","","","","","","","","","","NaN",""
"","S1","","html-keyboard-response","44","217141","0.0-1.0-56.0","0","0","76179","","null","","","null","6","","","","","","","","","","","","","","","",""
"","ISI","","html-keyboard-response","45","218145","0.0-1.0-57.0","0","0","76179","","null","","","null","6","NaN","","","","","","","","","","","","","","",""
"","S2","","html-keyboard-response","46","218407","0.0-1.0-58.0","0","0","76179","","null","","","null","6","","NaN","","","","","","","","","","","","","",""
"","response","","html-keyboard-response","47","219129","0.0-1.0-59.0-0.0","0","0","76179","","718","","","68","6","","","1","6","training","adjacent","BC","2","3","M.jpg","L.jpg","0","1","0","",""
"","feedback","","html-keyboard-response","48","220136","0.0-1.0-60.0-0.0","0","0","76179","","null","","","null","6","","","","","","","","","","","","","","","",""
"","time_out","","html-keyboard-response","49","222143","0.0-1.0-62.0-0.0","0","0","76179","","null","","","null","6","","","","","","","","","","","","","","","",""
"","ITI","","html-keyboard-response","50","223153","0.0-1.0-63.0","0","0","76179","","null","","","null","6","","","","","","","","","","","","","","","NaN",""
"","S1","","html-keyboard-response","51","223407","0.0-1.0-65.0","0","0","76179","","null","","","null","7","","","","","","","","","","","","","","","",""
"","ISI","","html-keyboard-response","52","224411","0.0-1.0-66.0","0","0","76179","","null","","","null","7","NaN","","","","","","","","","","","","","","",""
"","S2","","html-keyboard-response","53","224673","0.0-1.0-67.0","0","0","76179","","null","","","null","7","","NaN","","","","","","","","","","","","","",""
"","response","","html-keyboard-response","54","224892","0.0-1.0-68.0-0.0","0","0","76179","","215","","","75","7","","","1","7","training","adjacent","FG","6","7","N.jpg","R.jpg","1","1","1","",""
"","feedback","","html-keyboard-response","55","225902","0.0-1.0-69.0-0.0","0","0","76179","","null","","","null","7","","","","","","","","","","","","","","","",""
"","ITI","","html-keyboard-response","56","226916","0.0-1.0-72.0","0","0","76179","","null","","","null","7","","","","","","","","","","","","","","","NaN",""
"","S1","","html-keyboard-response","57","227177","0.0-1.0-74.0","0","0","76179","","null","","","null","8","","","","","","","","","","","","","","","",""
"","ISI","","html-keyboard-response","58","228182","0.0-1.0-75.0","0","0","76179","","null","","","null","8","NaN","","","","","","","","","","","","","","",""
"","S2","","html-keyboard-response","59","228444","0.0-1.0-76.0","0","0","76179","","null","","","null","8","","NaN","","","","","","","","","","","","","",""
"","response","","html-keyboard-response","60","229478","0.0-1.0-77.0-0.0","0","0","76179","","1031","","","68","8","","","1","8","training","adjacent","DE","4","5","P.jpg","O.jpg","0","1","0","",""
"","feedback","","html-keyboard-response","61","230488","0.0-1.0-78.0-0.0","0","0","76179","","null","","","null","8","","","","","","","","","","","","","","","",""
"","time_out","","html-keyboard-response","62","232500","0.0-1.0-80.0-0.0","0","0","76179","","null","","","null","8","","","","","","","","","","","","","","","",""
"","ITI","","html-keyboard-response","63","233506","0.0-1.0-81.0","0","0","76179","","null","","","null","8","","","","","","","","","","","","","","","NaN",""
"","S1","","html-keyboard-response","64","233760","0.0-1.0-83.0","0","0","76179","","null","","","null","9","","","","","","","","","","","","","","","",""
"","ISI","","html-keyboard-response","65","234771","0.0-1.0-84.0","0","0","76179","","null","","","null","9","NaN","","","","","","","","","","","","","","",""
"","S2","","html-keyboard-response","66","235025","0.0-1.0-85.0","0","0","76179","","null","","","null","9","","NaN","","","","","","","","","","","","","",""
"","response","","html-keyboard-response","67","236043","0.0-1.0-86.0-0.0","0","0","76179","","1015","","","68","9","","","1","9","training","adjacent","ED","5","4","O.jpg","P.jpg","0","0","1","",""
"","feedback","","html-keyboard-response","68","237052","0.0-1.0-87.0-0.0","0","0","76179","","null","","","null","9","","","","","","","","","","","","","","","",""
"","ITI","","html-keyboard-response","69","238066","0.0-1.0-90.0","0","0","76179","","null","","","null","9","","","","","","","","","","","","","","","NaN",""
"","S1","","html-keyboard-response","70","238327","0.0-1.0-92.0","0","0","76179","","null","","","null","10","","","","","","","","","","","","","","","",""
"","ISI","","html-keyboard-response","71","239338","0.0-1.0-93.0","0","0","76179","","null","","","null","10","NaN","","","","","","","","","","","","","","",""
"","S2","","html-keyboard-response","72","239592","0.0-1.0-94.0","0","0","76179","","null","","","null","10","","NaN","","","","","","","","","","","","","",""
"","response","","html-keyboard-response","73","240002","0.0-1.0-95.0-0.0","0","0","76179","","406","","","75","10","","","1","10","training","adjacent","EF","5","6","O.jpg","N.jpg","1","1","1","",""
"","feedback","","html-keyboard-response","74","241007","0.0-1.0-96.0-0.0","0","0","76179","","null","","","null","10","","","","","","","","","","","","","","","",""
"","ITI","","html-keyboard-response","75","242015","0.0-1.0-99.0","0","0","76179","","null","","","null","10","","","","","","","","","","","","","","","NaN",""
"","S1","","html-keyboard-response","76","242269","0.0-1.0-101.0","0","0","76179","","null","","","null","11","","","","","","","","","","","","","","","",""
"","ISI","","html-keyboard-response","77","243276","0.0-1.0-102.0","0","0","76179","","null","","","null","11","NaN","","","","","","","","","","","","","","",""
"","S2","","html-keyboard-response","78","243537","0.0-1.0-103.0","0","0","76179","","null","","","null","11","","NaN","","","","","","","","","","","","","",""
"","response","","html-keyboard-response","79","244220","0.0-1.0-104.0-0.0","0","0","76179","","679","","","68","11","","","1","11","training","adjacent","ED","5","4","O.jpg","P.jpg","0","0","1","",""
"","feedback","","html-keyboard-response","80","245226","0.0-1.0-105.0-0.0","0","0","76179","","null","","","null","11","","","","","","","","","","","","","","","",""
"","ITI","","html-keyboard-response","81","246231","0.0-1.0-108.0","0","0","76179","","null","","","null","11","","","","","","","","","","","","","","","NaN",""
"","S1","","html-keyboard-response","82","246486","0.0-1.0-110.0","0","0","76179","","null","","","null","12","","","","","","","","","","","","","","","",""
"","ISI","","html-keyboard-response","83","247490","0.0-1.0-111.0","0","0","76179","","null","","","null","12","NaN","","","","","","","","","","","","","","",""
"","S2","","html-keyboard-response","84","247746","0.0-1.0-112.0","0","0","76179","","null","","","null","12","","NaN","","","","","","","","","","","","","",""
"","response","","html-keyboard-response","85","248206","0.0-1.0-113.0-0.0","0","0","76179","","457","","","75","12","","","1","12","training","adjacent","EF","5","6","O.jpg","N.jpg","1","1","1","",""
"","feedback","","html-keyboard-response","86","249217","0.0-1.0-114.0-0.0","0","0","76179","","null","","","null","12","","","","","","","","","","","","","","","",""
"","ITI","","html-keyboard-response","87","250225","0.0-1.0-117.0","0","0","76179","","null","","","null","12","","","","","","","","","","","","","","","NaN",""
"","S1","","html-keyboard-response","88","250479","0.0-1.0-119.0","0","0","76179","","null","","","null","13","","","","","","","","","","","","","","","",""
"","ISI","","html-keyboard-response","89","251488","0.0-1.0-120.0","0","0","76179","","null","","","null","13","NaN","","","","","","","","","","","","","","",""
"","S2","","html-keyboard-response","90","251743","0.0-1.0-121.0","0","0","76179","","null","","","null","13","","NaN","","","","","","","","","","","","","",""
"","response","","html-keyboard-response","91","252477","0.0-1.0-122.0-0.0","0","0","76179","","731","","","68","13","","","1","13","training","adjacent","DC","4","3","P.jpg","L.jpg","0","0","1","",""
"","feedback","","html-keyboard-response","92","253485","0.0-1.0-123.0-0.0","0","0","76179","","null","","","null","13","","","","","","","","","","","","","","","",""
"","ITI","","html-keyboard-response","93","254492","0.0-1.0-126.0","0","0","76179","","null","","","null","13","","","","","","","","","","","","","","","NaN",""
"","S1","","html-keyboard-response","94","254747","0.0-1.0-128.0","0","0","76179","","null","","","null","14","","","","","","","","","","","","","","","",""
"","ISI","","html-keyboard-response","95","255758","0.0-1.0-129.0","0","0","76179","","null","","","null","14","NaN","","","","","","","","","","","","","","",""
"","S2","","html-keyboard-response","96","256013","0.0-1.0-130.0","0","0","76179","","null","","","null","14","","NaN","","","","","","","","","","","","","",""
"","response","","html-keyboard-response","97","256986","0.0-1.0-131.0-0.0","0","0","76179","","969","","","68","14","","","1","14","training","adjacent","BA","2","1","M.jpg","Q.jpg","0","0","1","",""
"","feedback","","html-keyboard-response","98","257997","0.0-1.0-132.0-0.0","0","0","76179","","null","","","null","14","","","","","","","","","","","","","","","",""
"","ITI","","html-keyboard-response","99","259014","0.0-1.0-135.0","0","0","76179","","null","","","null","14","","","","","","","","","","","","","","","NaN",""
"","S1","","html-keyboard-response","100","259276","0.0-1.0-137.0","0","0","76179","","null","","","null","15","","","","","","","","","","","","","","","",""
"","ISI","","html-keyboard-response","101","260282","0.0-1.0-138.0","0","0","76179","","null","","","null","15","NaN","","","","","","","","","","","","","","",""
"","S2","","html-keyboard-response","102","260536","0.0-1.0-139.0","0","0","76179","","null","","","null","15","","NaN","","","","","","","","","","","","","",""
"","response","","html-keyboard-response","103","261468","0.0-1.0-140.0-0.0","0","0","76179","","928","","","75","15","","","1","15","training","adjacent","DE","4","5","P.jpg","O.jpg","1","1","1","",""
"","feedback","","html-keyboard-response","104","262485","0.0-1.0-141.0-0.0","0","0","76179","","null","","","null","15","","","","","","","","","","","","","","","",""
"","ITI","","html-keyboard-response","105","263491","0.0-1.0-144.0","0","0","76179","","null","","","null","15","","","","","","","","","","","","","","","NaN",""
"","S1","","html-keyboard-response","106","263751","0.0-1.0-146.0","0","0","76179","","null","","","null","16","","","","","","","","","","","","","","","",""
"","ISI","","html-keyboard-response","107","264762","0.0-1.0-147.0","0","0","76179","","null","","","null","16","NaN","","","","","","","","","","","","","","",""
"","S2","","html-keyboard-response","108","265017","0.0-1.0-148.0","0","0","76179","","null","","","null","16","","NaN","","","","","","","","","","","","","",""
"","response","","html-keyboard-response","109","265504","0.0-1.0-149.0-0.0","0","0","76179","","483","","","68","16","","","1","16","training","adjacent","FG","6","7","N.jpg","R.jpg","0","1","0","",""
"","feedback","","html-keyboard-response","110","266522","0.0-1.0-150.0-0.0","0","0","76179","","null","","","null","16","","","","","","","","","","","","","","","",""
"","time_out","","html-keyboard-response","111","268527","0.0-1.0-152.0-0.0","0","0","76179","","null","","","null","16","","","","","","","","","","","","","","","",""
"","ITI","","html-keyboard-response","112","269532","0.0-1.0-153.0","0","0","76179","","null","","","null","16","","","","","","","","","","","","","","","NaN",""
"","S1","","html-keyboard-response","113","269794","0.0-1.0-155.0","0","0","76179","","null","","","null","17","","","","","","","","","","","","","","","",""
"","ISI","","html-keyboard-response","114","270798","0.0-1.0-156.0","0","0","76179","","null","","","null","17","NaN","","","","","","","","","","","","","","",""
"","S2","","html-keyboard-response","115","271053","0.0-1.0-157.0","0","0","76179","","null","","","null","17","","NaN","","","","","","","","","","","","","",""
"","response","","html-keyboard-response","116","271674","0.0-1.0-158.0-0.0","0","0","76179","","617","","","68","17","","","1","17","training","adjacent","FE","6","5","N.jpg","O.jpg","0","0","1","",""
"","feedback","","html-keyboard-response","117","272682","0.0-1.0-159.0-0.0","0","0","76179","","null","","","null","17","","","","","","","","","","","","","","","",""
"","ITI","","html-keyboard-response","118","273688","0.0-1.0-162.0","0","0","76179","","null","","","null","17","","","","","","","","","","","","","","","NaN",""
"","S1","","html-keyboard-response","119","273942","0.0-1.0-164.0","0","0","76179","","null","","","null","18","","","","","","","","","","","","","","","",""
"","ISI","","html-keyboard-response","120","274947","0.0-1.0-165.0","0","0","76179","","null","","","null","18","NaN","","","","","","","","","","","","","","",""
"","S2","","html-keyboard-response","121","275202","0.0-1.0-166.0","0","0","76179","","null","","","null","18","","NaN","","","","","","","","","","","","","",""
"","response","","html-keyboard-response","122","276461","0.0-1.0-167.0-0.0","0","0","76179","","1255","","","68","18","","","1","18","training","adjacent","FE","6","5","N.jpg","O.jpg","0","0","1","",""
"","feedback","","html-keyboard-response","123","277465","0.0-1.0-168.0-0.0","0","0","76179","","null","","","null","18","","","","","","","","","","","","","","","",""
"","ITI","","html-keyboard-response","124","278477","0.0-1.0-171.0","0","0","76179","","null","","","null","18","","","","","","","","","","","","","","","NaN",""
"","S1","","html-keyboard-response","125","278739","0.0-1.0-173.0","0","0","76179","","null","","","null","19","","","","","","","","","","","","","","","",""
"","ISI","","html-keyboard-response","126","279744","0.0-1.0-174.0","0","0","76179","","null","","","null","19","NaN","","","","","","","","","","","","","","",""
"","S2","","html-keyboard-response","127","280006","0.0-1.0-175.0","0","0","76179","","null","","","null","19","","NaN","","","","","","","","","","","","","",""
"","response","","html-keyboard-response","128","280481","0.0-1.0-176.0-0.0","0","0","76179","","472","","","68","19","","","1","19","training","adjacent","CD","3","4","L.jpg","P.jpg","0","1","0","",""
"","feedback","","html-keyboard-response","129","281486","0.0-1.0-177.0-0.0","0","0","76179","","null","","","null","19","","","","","","","","","","","","","","","",""
"","time_out","","html-keyboard-response","130","283495","0.0-1.0-179.0-0.0","0","0","76179","","null","","","null","19","","","","","","","","","","","","","","","",""
"","ITI","","html-keyboard-response","131","284501","0.0-1.0-180.0","0","0","76179","","null","","","null","19","","","","","","","","","","","","","","","NaN",""
"","S1","","html-keyboard-response","132","284763","0.0-1.0-182.0","0","0","76179","","null","","","null","20","","","","","","","","","","","","","","","",""
"","ISI","","html-keyboard-response","133","285775","0.0-1.0-183.0","0","0","76179","","null","","","null","20","NaN","","","","","","","","","","","","","","",""
"","S2","","html-keyboard-response","134","286030","0.0-1.0-184.0","0","0","76179","","null","","","null","20","","NaN","","","","","","","","","","","","","",""
"","response","","html-keyboard-response","135","286561","0.0-1.0-185.0-0.0","0","0","76179","","528","","","75","20","","","1","20","training","adjacent","DC","4","3","P.jpg","L.jpg","1","0","0","",""
"","feedback","","html-keyboard-response","136","287570","0.0-1.0-186.0-0.0","0","0","76179","","null","","","null","20","","","","","","","","","","","","","","","",""
"","time_out","","html-keyboard-response","137","289576","0.0-1.0-188.0-0.0","0","0","76179","","null","","","null","20","","","","","","","","","","","","","","","",""
"","ITI","","html-keyboard-response","138","290583","0.0-1.0-189.0","0","0","76179","","null","","","null","20","","","","","","","","","","","","","","","NaN",""
"","S1","","html-keyboard-response","139","290837","0.0-1.0-191.0","0","0","76179","","null","","","null","21","","","","","","","","","","","","","","","",""
"","ISI","","html-keyboard-response","140","291850","0.0-1.0-192.0","0","0","76179","","null","","","null","21","NaN","","","","","","","","","","","","","","",""
"","S2","","html-keyboard-response","141","292106","0.0-1.0-193.0","0","0","76179","","null","","","null","21","","NaN","","","","","","","","","","","","","",""
"","response","","html-keyboard-response","142","293860","0.0-1.0-194.0-0.0","0","0","76179","","null","","","null","21","","","1","21","training","adjacent","CB","3","2","L.jpg","M.jpg","NaN","0","0","",""
"","too_slow_prompt","","html-keyboard-response","143","294865","0.0-1.0-196.0-0.0","1","0","76179","","null","","","null","","","","","","","","","","","","","","","","",""
"","time_out","","html-keyboard-response","144","296878","0.0-1.0-197.0-0.0","0","0","76179","","null","","","null","21","","","","","","","","","","","","","","","",""
"","ITI","","html-keyboard-response","145","297884","0.0-1.0-198.0","0","0","76179","","null","","","null","21","","","","","","","","","","","","","","","NaN",""
"","S1","","html-keyboard-response","146","298138","0.0-1.0-200.0","0","0","76179","","null","","","null","22","","","","","","","","","","","","","","","",""
"","ISI","","html-keyboard-response","147","299142","0.0-1.0-201.0","0","0","76179","","null","","","null","22","NaN","","","","","","","","","","","","","","",""
"","S2","","html-keyboard-response","148","299396","0.0-1.0-202.0","0","0","76179","","null","","","null","22","","NaN","","","","","","","","","","","","","",""
"","response","","html-keyboard-response","149","299718","0.0-1.0-203.0-0.0","0","0","76179","","319","","","75","22","","","1","22","training","adjacent","AB","1","2","Q.jpg","M.jpg","1","1","1","",""
"","feedback","","html-keyboard-response","150","300722","0.0-1.0-204.0-0.0","0","0","76179","","null","","","null","22","","","","","","","","","","","","","","","",""
"","ITI","","html-keyboard-response","151","301730","0.0-1.0-207.0","0","0","76179","","null","","","null","22","","","","","","","","","","","","","","","NaN",""
"","S1","","html-keyboard-response","152","301992","0.0-1.0-209.0","0","0","76179","","null","","","null","23","","","","","","","","","","","","","","","",""
"","ISI","","html-keyboard-response","153","303004","0.0-1.0-210.0","0","0","76179","","null","","","null","23","NaN","","","","","","","","","","","","","","",""
"","S2","","html-keyboard-response","154","303265","0.0-1.0-211.0","0","0","76179","","null","","","null","23","","NaN","","","","","","","","","","","","","",""
"","response","","html-keyboard-response","155","303576","0.0-1.0-212.0-0.0","0","0","76179","","307","","","75","23","","","1","23","training","adjacent","EF","5","6","O.jpg","N.jpg","1","1","1","",""
"","feedback","","html-keyboard-response","156","304582","0.0-1.0-213.0-0.0","0","0","76179","","null","","","null","23","","","","","","","","","","","","","","","",""
"","ITI","","html-keyboard-response","157","305590","0.0-1.0-216.0","0","0","76179","","null","","","null","23","","","","","","","","","","","","","","","NaN",""
"","S1","","html-keyboard-response","158","305851","0.0-1.0-218.0","0","0","76179","","null","","","null","24","","","","","","","","","","","","","","","",""
"","ISI","","html-keyboard-response","159","306858","0.0-1.0-219.0","0","0","76179","","null","","","null","24","NaN","","","","","","","","","","","","","","",""
"","S2","","html-keyboard-response","160","307112","0.0-1.0-220.0","0","0","76179","","null","","","null","24","","NaN","","","","","","","","","","","","","",""
"","response","","html-keyboard-response","161","307498","0.0-1.0-221.0-0.0","0","0","76179","","382","","","75","24","","","1","24","training","adjacent","CB","3","2","L.jpg","M.jpg","1","0","0","",""
"","feedback","","html-keyboard-response","162","308503","0.0-1.0-222.0-0.0","0","0","76179","","null","","","null","24","","","","","","","","","","","","","","","",""
"","time_out","","html-keyboard-response","163","310506","0.0-1.0-224.0-0.0","0","0","76179","","null","","","null","24","","","","","","","","","","","","","","","",""
"","ITI","","html-keyboard-response","164","311518","0.0-1.0-225.0","0","0","76179","","null","","","null","24","","","","","","","","","","","","","","","NaN",""
"","S1","","html-keyboard-response","165","311772","0.0-1.0-227.0","0","0","76179","","null","","","null","25","","","","","","","","","","","","","","","",""
"","ISI","","html-keyboard-response","166","312781","0.0-1.0-228.0","0","0","76179","","null","","","null","25","NaN","","","","","","","","","","","","","","",""
"","S2","","html-keyboard-response","167","313036","0.0-1.0-229.0","0","0","76179","","null","","","null","25","","NaN","","","","","","","","","","","","","",""
"","response","","html-keyboard-response","168","313439","0.0-1.0-230.0-0.0","0","0","76179","","400","","","68","25","","","1","25","training","adjacent","BA","2","1","M.jpg","Q.jpg","0","0","1","",""
"","feedback","","html-keyboard-response","169","314451","0.0-1.0-231.0-0.0","0","0","76179","","null","","","null","25","","","","","","","","","","","","","","","",""
"","ITI","","html-keyboard-response","170","315455","0.0-1.0-234.0","0","0","76179","","null","","","null","25","","","","","","","","","","","","","","","NaN",""
"","S1","","html-keyboard-response","171","315710","0.0-1.0-236.0","0","0","76179","","null","","","null","26","","","","","","","","","","","","","","","",""
"","ISI","","html-keyboard-response","172","316717","0.0-1.0-237.0","0","0","76179","","null","","","null","26","NaN","","","","","","","","","","","","","","",""
"","S2","","html-keyboard-response","173","316984","0.0-1.0-238.0","0","0","76179","","null","","","null","26","","NaN","","","","","","","","","","","","","",""
"","response","","html-keyboard-response","174","317397","0.0-1.0-239.0-0.0","0","0","76179","","409","","","68","26","","","1","26","training","adjacent","ED","5","4","O.jpg","P.jpg","0","0","1","",""
"","feedback","","html-keyboard-response","175","318401","0.0-1.0-240.0-0.0","0","0","76179","","null","","","null","26","","","","","","","","","","","","","","","",""
"","ITI","","html-keyboard-response","176","319408","0.0-1.0-243.0","0","0","76179","","null","","","null","26","","","","","","","","","","","","","","","NaN",""
"","S1","","html-keyboard-response","177","319664","0.0-1.0-245.0","0","0","76179","","null","","","null","27","","","","","","","","","","","","","","","",""
"","ISI","","html-keyboard-response","178","320676","0.0-1.0-246.0","0","0","76179","","null","","","null","27","NaN","","","","","","","","","","","","","","",""
"","S2","","html-keyboard-response","179","320931","0.0-1.0-247.0","0","0","76179","","null","","","null","27","","NaN","","","","","","","","","","","","","",""
"","response","","html-keyboard-response","180","321600","0.0-1.0-248.0-0.0","0","0","76179","","665","","","75","27","","","1","27","training","adjacent","EF","5","6","O.jpg","N.jpg","1","1","1","",""
"","feedback","","html-keyboard-response","181","322607","0.0-1.0-249.0-0.0","0","0","76179","","null","","","null","27","","","","","","","","","","","","","","","",""
"","ITI","","html-keyboard-response","182","323619","0.0-1.0-252.0","0","0","76179","","null","","","null","27","","","","","","","","","","","","","","","NaN",""
"","S1","","html-keyboard-response","183","323881","0.0-1.0-254.0","0","0","76179","","null","","","null","28","","","","","","","","","","","","","","","",""
"","ISI","","html-keyboard-response","184","324898","0.0-1.0-255.0","0","0","76179","","null","","","null","28","NaN","","","","","","","","","","","","","","",""
"","S2","","html-keyboard-response","185","325154","0.0-1.0-256.0","0","0","76179","","null","","","null","28","","NaN","","","","","","","","","","","","","",""
"","response","","html-keyboard-response","186","325594","0.0-1.0-257.0-0.0","0","0","76179","","436","","","75","28","","","1","28","training","adjacent","DC","4","3","P.jpg","L.jpg","1","0","0","",""
"","feedback","","html-keyboard-response","187","326609","0.0-1.0-258.0-0.0","0","0","76179","","null","","","null","28","","","","","","","","","","","","","","","",""
"","time_out","","html-keyboard-response","188","328619","0.0-1.0-260.0-0.0","0","0","76179","","null","","","null","28","","","","","","","","","","","","","","","",""
"","ITI","","html-keyboard-response","189","329629","0.0-1.0-261.0","0","0","76179","","null","","","null","28","","","","","","","","","","","","","","","NaN",""
"","S1","","html-keyboard-response","190","329883","0.0-1.0-263.0","0","0","76179","","null","","","null","29","","","","","","","","","","","","","","","",""
"","ISI","","html-keyboard-response","191","330893","0.0-1.0-264.0","0","0","76179","","null","","","null","29","NaN","","","","","","","","","","","","","","",""
"","S2","","html-keyboard-response","192","331162","0.0-1.0-265.0","0","0","76179","","null","","","null","29","","NaN","","","","","","","","","","","","","",""
"","response","","html-keyboard-response","193","331545","0.0-1.0-266.0-0.0","0","0","76179","","380","","","75","29","","","1","29","training","adjacent","DC","4","3","P.jpg","L.jpg","1","0","0","",""
"","feedback","","html-keyboard-response","194","332553","0.0-1.0-267.0-0.0","0","0","76179","","null","","","null","29","","","","","","","","","","","","","","","",""
"","time_out","","html-keyboard-response","195","334564","0.0-1.0-269.0-0.0","0","0","76179","","null","","","null","29","","","","","","","","","","","","","","","",""
"","ITI","","html-keyboard-response","196","335569","0.0-1.0-270.0","0","0","76179","","null","","","null","29","","","","","","","","","","","","","","","NaN",""
"","S1","","html-keyboard-response","197","335831","0.0-1.0-272.0","0","0","76179","","null","","","null","30","","","","","","","","","","","","","","","",""
"","ISI","","html-keyboard-response","198","336848","0.0-1.0-273.0","0","0","76179","","null","","","null","30","NaN","","","","","","","","","","","","","","",""
"","S2","","html-keyboard-response","199","337108","0.0-1.0-274.0","0","0","76179","","null","","","null","30","","NaN","","","","","","","","","","","","","",""
"","response","","html-keyboard-response","200","337533","0.0-1.0-275.0-0.0","0","0","76179","","422","","","75","30","","","1","30","training","adjacent","GF","7","6","R.jpg","N.jpg","1","0","0","",""
"","feedback","","html-keyboard-response","201","338542","0.0-1.0-276.0-0.0","0","0","76179","","null","","","null","30","","","","","","","","","","","","","","","",""
"","time_out","","html-keyboard-response","202","340548","0.0-1.0-278.0-0.0","0","0","76179","","null","","","null","30","","","","","","","","","","","","","","","",""
"","ITI","","html-keyboard-response","203","341555","0.0-1.0-279.0","0","0","76179","","null","","","null","30","","","","","","","","","","","","","","","NaN",""
"","S1","","html-keyboard-response","204","341809","0.0-1.0-281.0","0","0","76179","","null","","","null","31","","","","","","","","","","","","","","","",""
"","ISI","","html-keyboard-response","205","342823","0.0-1.0-282.0","0","0","76179","","null","","","null","31","NaN","","","","","","","","","","","","","","",""
"","S2","","html-keyboard-response","206","343084","0.0-1.0-283.0","0","0","76179","","null","","","null","31","","NaN","","","","","","","","","","","","","",""
"","response","","html-keyboard-response","207","343673","0.0-1.0-284.0-0.0","0","0","76179","","586","","","68","31","","","1","31","training","adjacent","CD","3","4","L.jpg","P.jpg","0","1","0","",""
"","feedback","","html-keyboard-response","208","344683","0.0-1.0-285.0-0.0","0","0","76179","","null","","","null","31","","","","","","","","","","","","","","","",""
"","time_out","","html-keyboard-response","209","346691","0.0-1.0-287.0-0.0","0","0","76179","","null","","","null","31","","","","","","","","","","","","","","","",""
"","ITI","","html-keyboard-response","210","347704","0.0-1.0-288.0","0","0","76179","","null","","","null","31","","","","","","","","","","","","","","","NaN",""
"","S1","","html-keyboard-response","211","347968","0.0-1.0-290.0","0","0","76179","","null","","","null","32","","","","","","","","","","","","","","","",""
"","ISI","","html-keyboard-response","212","348972","0.0-1.0-291.0","0","0","76179","","null","","","null","32","NaN","","","","","","","","","","","","","","",""
"","S2","","html-keyboard-response","213","349227","0.0-1.0-292.0","0","0","76179","","null","","","null","32","","NaN","","","","","","","","","","","","","",""
"","response","","html-keyboard-response","214","349410","0.0-1.0-293.0-0.0","0","0","76179","","180","","","75","32","","","1","32","training","adjacent","AB","1","2","Q.jpg","M.jpg","1","1","1","",""
"","feedback","","html-keyboard-response","215","350420","0.0-1.0-294.0-0.0","0","0","76179","","null","","","null","32","","","","","","","","","","","","","","","",""
"","ITI","","html-keyboard-response","216","351425","0.0-1.0-297.0","0","0","76179","","null","","","null","32","","","","","","","","","","","","","","","NaN",""
"","S1","","html-keyboard-response","217","351680","0.0-1.0-299.0","0","0","76179","","null","","","null","33","","","","","","","","","","","","","","","",""
"","ISI","","html-keyboard-response","218","352686","0.0-1.0-300.0","0","0","76179","","null","","","null","33","NaN","","","","","","","","","","","","","","",""
"","S2","","html-keyboard-response","219","352947","0.0-1.0-301.0","0","0","76179","","null","","","null","33","","NaN","","","","","","","","","","","","","",""
"","response","","html-keyboard-response","220","353348","0.0-1.0-302.0-0.0","0","0","76179","","396","","","68","33","","","1","33","training","adjacent","FE","6","5","N.jpg","O.jpg","0","0","1","",""
"","feedback","","html-keyboard-response","221","354357","0.0-1.0-303.0-0.0","0","0","76179","","null","","","null","33","","","","","","","","","","","","","","","",""
"","ITI","","html-keyboard-response","222","355364","0.0-1.0-306.0","0","0","76179","","null","","","null","33","","","","","","","","","","","","","","","NaN",""
"","S1","","html-keyboard-response","223","355626","0.0-1.0-308.0","0","0","76179","","null","","","null","34","","","","","","","","","","","","","","","",""
"","ISI","","html-keyboard-response","224","356634","0.0-1.0-309.0","0","0","76179","","null","","","null","34","NaN","","","","","","","","","","","","","","",""
"","S2","","html-keyboard-response","225","356890","0.0-1.0-310.0","0","0","76179","","null","","","null","34","","NaN","","","","","","","","","","","","","",""
"","response","","html-keyboard-response","226","357775","0.0-1.0-311.0-0.0","0","0","76179","","881","","","68","34","","","1","34","training","adjacent","BC","2","3","M.jpg","L.jpg","0","1","0","",""
"","feedback","","html-keyboard-response","227","358792","0.0-1.0-312.0-0.0","0","0","76179","","null","","","null","34","","","","","","","","","","","","","","","",""
"","time_out","","html-keyboard-response","228","360796","0.0-1.0-314.0-0.0","0","0","76179","","null","","","null","34","","","","","","","","","","","","","","","",""
"","ITI","","html-keyboard-response","229","361802","0.0-1.0-315.0","0","0","76179","","null","","","null","34","","","","","","","","","","","","","","","NaN",""
"","S1","","html-keyboard-response","230","362063","0.0-1.0-317.0","0","0","76179","","null","","","null","35","","","","","","","","","","","","","","","",""
"","ISI","","html-keyboard-response","231","363069","0.0-1.0-318.0","0","0","76179","","null","","","null","35","NaN","","","","","","","","","","","","","","",""
"","S2","","html-keyboard-response","232","363330","0.0-1.0-319.0","0","0","76179","","null","","","null","35","","NaN","","","","","","","","","","","","","",""
"","response","","html-keyboard-response","233","363880","0.0-1.0-320.0-0.0","0","0","76179","","546","","","68","35","","","1","35","training","adjacent","BA","2","1","M.jpg","Q.jpg","0","0","1","",""
"","feedback","","html-keyboard-response","234","364893","0.0-1.0-321.0-0.0","0","0","76179","","null","","","null","35","","","","","","","","","","","","","","","",""
"","ITI","","html-keyboard-response","235","365898","0.0-1.0-324.0","0","0","76179","","null","","","null","35","","","","","","","","","","","","","","","NaN",""
"","S1","","html-keyboard-response","236","366159","0.0-1.0-326.0","0","0","76179","","null","","","null","36","","","","","","","","","","","","","","","",""
"","ISI","","html-keyboard-response","237","367164","0.0-1.0-327.0","0","0","76179","","null","","","null","36","NaN","","","","","","","","","","","","","","",""
"","S2","","html-keyboard-response","238","367419","0.0-1.0-328.0","0","0","76179","","null","","","null","36","","NaN","","","","","","","","","","","","","",""
"","response","","html-keyboard-response","239","367893","0.0-1.0-329.0-0.0","0","0","76179","","470","","","75","36","","","1","36","training","adjacent","DE","4","5","P.jpg","O.jpg","1","1","1","",""
"","feedback","","html-keyboard-response","240","368909","0.0-1.0-330.0-0.0","0","0","76179","","null","","","null","36","","","","","","","","","","","","","","","",""
"","ITI","","html-keyboard-response","241","369924","0.0-1.0-333.0","0","0","76179","","null","","","null","36","","","","","","","","","","","","","","","NaN",""
"","S1","","html-keyboard-response","242","370185","0.0-1.0-335.0","0","0","76179","","null","","","null","37","","","","","","","","","","","","","","","",""
"","ISI","","html-keyboard-response","243","371190","0.0-1.0-336.0","0","0","76179","","null","","","null","37","NaN","","","","","","","","","","","","","","",""
"","S2","","html-keyboard-response","244","371444","0.0-1.0-337.0","0","0","76179","","null","","","null","37","","NaN","","","","","","","","","","","","","",""
"","response","","html-keyboard-response","245","371984","0.0-1.0-338.0-0.0","0","0","76179","","536","","","68","37","","","1","37","training","adjacent","ED","5","4","O.jpg","P.jpg","0","0","1","",""
"","feedback","","html-keyboard-response","246","372994","0.0-1.0-339.0-0.0","0","0","76179","","null","","","null","37","","","","","","","","","","","","","","","",""
"","ITI","","html-keyboard-response","247","374002","0.0-1.0-342.0","0","0","76179","","null","","","null","37","","","","","","","","","","","","","","","NaN",""
"","S1","","html-keyboard-response","248","374257","0.0-1.0-344.0","0","0","76179","","null","","","null","38","","","","","","","","","","","","","","","",""
"","ISI","","html-keyboard-response","249","375265","0.0-1.0-345.0","0","0","76179","","null","","","null","38","NaN","","","","","","","","","","","","","","",""
"","S2","","html-keyboard-response","250","375526","0.0-1.0-346.0","0","0","76179","","null","","","null","38","","NaN","","","","","","","","","","","","","",""
"","response","","html-keyboard-response","251","375645","0.0-1.0-347.0-0.0","0","0","76179","","115","","","75","38","","","1","38","training","adjacent","GF","7","6","R.jpg","N.jpg","1","0","0","",""
"","feedback","","html-keyboard-response","252","376662","0.0-1.0-348.0-0.0","0","0","76179","","null","","","null","38","","","","","","","","","","","","","","","",""
"","time_out","","html-keyboard-response","253","378669","0.0-1.0-350.0-0.0","0","0","76179","","null","","","null","38","","","","","","","","","","","","","","","",""
"","ITI","","html-keyboard-response","254","379680","0.0-1.0-351.0","0","0","76179","","null","","","null","38","","","","","","","","","","","","","","","NaN",""
"","S1","","html-keyboard-response","255","379936","0.0-1.0-353.0","0","0","76179","","null","","","null","39","","","","","","","","","","","","","","","",""
"","ISI","","html-keyboard-response","256","380946","0.0-1.0-354.0","0","0","76179","","null","","","null","39","NaN","","","","","","","","","","","","","","",""
"","S2","","html-keyboard-response","257","381206","0.0-1.0-355.0","0","0","76179","","null","","","null","39","","NaN","","","","","","","","","","","","","",""
"","response","","html-keyboard-response","258","381629","0.0-1.0-356.0-0.0","0","0","76179","","419","","","68","39","","","1","39","training","adjacent","FG","6","7","N.jpg","R.jpg","0","1","0","",""
"","feedback","","html-keyboard-response","259","382634","0.0-1.0-357.0-0.0","0","0","76179","","null","","","null","39","","","","","","","","","","","","","","","",""
"","time_out","","html-keyboard-response","260","384639","0.0-1.0-359.0-0.0","0","0","76179","","null","","","null","39","","","","","","","","","","","","","","","",""
"","ITI","","html-keyboard-response","261","385653","0.0-1.0-360.0","0","0","76179","","null","","","null","39","","","","","","","","","","","","","","","NaN",""
"","S1","","html-keyboard-response","262","385915","0.0-1.0-362.0","0","0","76179","","null","","","null","40","","","","","","","","","","","","","","","",""
"","ISI","","html-keyboard-response","263","386934","0.0-1.0-363.0","0","0","76179","","null","","","null","40","NaN","","","","","","","","","","","","","","",""
"","S2","","html-keyboard-response","264","387188","0.0-1.0-364.0","0","0","76179","","null","","","null","40","","NaN","","","","","","","","","","","","","",""
"","response","","html-keyboard-response","265","387871","0.0-1.0-365.0-0.0","0","0","76179","","678","","","68","40","","","1","40","training","adjacent","CD","3","4","L.jpg","P.jpg","0","1","0","",""
"","feedback","","html-keyboard-response","266","388875","0.0-1.0-366.0-0.0","0","0","76179","","null","","","null","40","","","","","","","","","","","","","","","",""
"","time_out","","html-keyboard-response","267","390879","0.0-1.0-368.0-0.0","0","0","76179","","null","","","null","40","","","","","","","","","","","","","","","",""
"","ITI","","html-keyboard-response","268","391894","0.0-1.0-369.0","0","0","76179","","null","","","null","40","","","","","","","","","","","","","","","NaN",""
"","S1","","html-keyboard-response","269","392154","0.0-1.0-371.0","0","0","76179","","null","","","null","41","","","","","","","","","","","","","","","",""
"","ISI","","html-keyboard-response","270","393171","0.0-1.0-372.0","0","0","76179","","null","","","null","41","NaN","","","","","","","","","","","","","","",""
"","S2","","html-keyboard-response","271","393431","0.0-1.0-373.0","0","0","76179","","null","","","null","41","","NaN","","","","","","","","","","","","","",""
"","response","","html-keyboard-response","272","393561","0.0-1.0-374.0-0.0","0","0","76179","","126","","","75","41","","","1","41","training","adjacent","CB","3","2","L.jpg","M.jpg","1","0","0","",""
"","feedback","","html-keyboard-response","273","394575","0.0-1.0-375.0-0.0","0","0","76179","","null","","","null","41","","","","","","","","","","","","","","","",""
"","time_out","","html-keyboard-response","274","396580","0.0-1.0-377.0-0.0","0","0","76179","","null","","","null","41","","","","","","","","","","","","","","","",""
"","ITI","","html-keyboard-response","275","397592","0.0-1.0-378.0","0","0","76179","","null","","","null","41","","","","","","","","","","","","","","","NaN",""
"","S1","","html-keyboard-response","276","397854","0.0-1.0-380.0","0","0","76179","","null","","","null","42","","","","","","","","","","","","","","","",""
"","ISI","","html-keyboard-response","277","398860","0.0-1.0-381.0","0","0","76179","","null","","","null","42","NaN","","","","","","","","","","","","","","",""
"","S2","","html-keyboard-response","278","399121","0.0-1.0-382.0","0","0","76179","","null","","","null","42","","NaN","","","","","","","","","","","","","",""
"","response","","html-keyboard-response","279","399539","0.0-1.0-383.0-0.0","0","0","76179","","414","","","68","42","","","1","42","training","adjacent","FG","6","7","N.jpg","R.jpg","0","1","0","",""
"","feedback","","html-keyboard-response","280","400549","0.0-1.0-384.0-0.0","0","0","76179","","null","","","null","42","","","","","","","","","","","","","","","",""
"","time_out","","html-keyboard-response","281","402553","0.0-1.0-386.0-0.0","0","0","76179","","null","","","null","42","","","","","","","","","","","","","","","",""
"","ITI","","html-keyboard-response","282","403561","0.0-1.0-387.0","0","0","76179","","null","","","null","42","","","","","","","","","","","","","","","NaN",""
"","S1","","html-keyboard-response","283","403816","0.0-1.0-389.0","0","0","76179","","null","","","null","43","","","","","","","","","","","","","","","",""
"","ISI","","html-keyboard-response","284","404829","0.0-1.0-390.0","0","0","76179","","null","","","null","43","NaN","","","","","","","","","","","","","","",""
"","S2","","html-keyboard-response","285","405084","0.0-1.0-391.0","0","0","76179","","null","","","null","43","","NaN","","","","","","","","","","","","","",""
"","response","","html-keyboard-response","286","405817","0.0-1.0-392.0-0.0","0","0","76179","","730","","","75","43","","","1","43","training","adjacent","GF","7","6","R.jpg","N.jpg","1","0","0","",""
"","feedback","","html-keyboard-response","287","406830","0.0-1.0-393.0-0.0","0","0","76179","","null","","","null","43","","","","","","","","","","","","","","","",""
"","time_out","","html-keyboard-response","288","408838","0.0-1.0-395.0-0.0","0","0","76179","","null","","","null","43","","","","","","","","","","","","","","","",""
"","ITI","","html-keyboard-response","289","409844","0.0-1.0-396.0","0","0","76179","","null","","","null","43","","","","","","","","","","","","","","","NaN",""
"","S1","","html-keyboard-response","290","410106","0.0-1.0-398.0","0","0","76179","","null","","","null","44","","","","","","","","","","","","","","","",""
"","ISI","","html-keyboard-response","291","411120","0.0-1.0-399.0","0","0","76179","","null","","","null","44","NaN","","","","","","","","","","","","","","",""
"","S2","","html-keyboard-response","292","411382","0.0-1.0-400.0","0","0","76179","","null","","","null","44","","NaN","","","","","","","","","","","","","",""
"","response","","html-keyboard-response","293","412365","0.0-1.0-401.0-0.0","0","0","76179","","978","","","75","44","","","1","44","training","adjacent","CB","3","2","L.jpg","M.jpg","1","0","0","",""
"","feedback","","html-keyboard-response","294","413381","0.0-1.0-402.0-0.0","0","0","76179","","null","","","null","44","","","","","","","","","","","","","","","",""
"","time_out","","html-keyboard-response","295","415391","0.0-1.0-404.0-0.0","0","0","76179","","null","","","null","44","","","","","","","","","","","","","","","",""
"","ITI","","html-keyboard-response","296","416402","0.0-1.0-405.0","0","0","76179","","null","","","null","44","","","","","","","","","","","","","","","NaN",""
"","S1","","html-keyboard-response","297","416663","0.0-1.0-407.0","0","0","76179","","null","","","null","45","","","","","","","","","","","","","","","",""
"","ISI","","html-keyboard-response","298","417682","0.0-1.0-408.0","0","0","76179","","null","","","null","45","NaN","","","","","","","","","","","","","","",""
"","S2","","html-keyboard-response","299","417944","0.0-1.0-409.0","0","0","76179","","null","","","null","45","","NaN","","","","","","","","","","","","","",""
"","response","","html-keyboard-response","300","418800","0.0-1.0-410.0-0.0","0","0","76179","","852","","","68","45","","","1","45","training","adjacent","BC","2","3","M.jpg","L.jpg","0","1","0","",""
"","feedback","","html-keyboard-response","301","419808","0.0-1.0-411.0-0.0","0","0","76179","","null","","","null","45","","","","","","","","","","","","","","","",""
"","time_out","","html-keyboard-response","302","421817","0.0-1.0-413.0-0.0","0","0","76179","","null","","","null","45","","","","","","","","","","","","","","","",""
"","ITI","","html-keyboard-response","303","422836","0.0-1.0-414.0","0","0","76179","","null","","","null","45","","","","","","","","","","","","","","","NaN",""
"","S1","","html-keyboard-response","304","423097","0.0-1.0-416.0","0","0","76179","","null","","","null","46","","","","","","","","","","","","","","","",""
"","ISI","","html-keyboard-response","305","424106","0.0-1.0-417.0","0","0","76179","","null","","","null","46","NaN","","","","","","","","","","","","","","",""
"","S2","","html-keyboard-response","306","424369","0.0-1.0-418.0","0","0","76179","","null","","","null","46","","NaN","","","","","","","","","","","","","",""
"","response","","html-keyboard-response","307","425176","0.0-1.0-419.0-0.0","0","0","76179","","803","","","68","46","","","1","46","training","adjacent","BA","2","1","M.jpg","Q.jpg","0","0","1","",""
"","feedback","","html-keyboard-response","308","426192","0.0-1.0-420.0-0.0","0","0","76179","","null","","","null","46","","","","","","","","","","","","","","","",""
"","ITI","","html-keyboard-response","309","427203","0.0-1.0-423.0","0","0","76179","","null","","","null","46","","","","","","","","","","","","","","","NaN",""
"","S1","","html-keyboard-response","310","427457","0.0-1.0-425.0","0","0","76179","","null","","","null","47","","","","","","","","","","","","","","","",""
"","ISI","","html-keyboard-response","311","428461","0.0-1.0-426.0","0","0","76179","","null","","","null","47","NaN","","","","","","","","","","","","","","",""
"","S2","","html-keyboard-response","312","428724","0.0-1.0-427.0","0","0","76179","","null","","","null","47","","NaN","","","","","","","","","","","","","",""
"","response","","html-keyboard-response","313","429296","0.0-1.0-428.0-0.0","0","0","76179","","568","","","75","47","","","1","47","training","adjacent","DE","4","5","P.jpg","O.jpg","1","1","1","",""
"","feedback","","html-keyboard-response","314","430302","0.0-1.0-429.0-0.0","0","0","76179","","null","","","null","47","","","","","","","","","","","","","","","",""
"","ITI","","html-keyboard-response","315","431315","0.0-1.0-432.0","0","0","76179","","null","","","null","47","","","","","","","","","","","","","","","NaN",""
"","block_over","","html-keyboard-response","316","496397","0.0-1.0-433.0-0.0","0","0","76179","","65076","","","32","47","","","","","","","","","","","","","","","",""
"","S1","","html-keyboard-response","317","496661","0.0-1.0-434.0","0","0","76179","","null","","","null","48","","","","","","","","","","","","","","","",""
"","ISI","","html-keyboard-response","318","497676","0.0-1.0-435.0","0","0","76179","","null","","","null","48","NaN","","","","","","","","","","","","","","",""
"","S2","","html-keyboard-response","319","497931","0.0-1.0-436.0","0","0","76179","","null","","","null","48","","NaN","","","","","","","","","","","","","",""
"","response","","html-keyboard-response","320","499060","0.0-1.0-437.0-0.0","0","0","76179","","1125","","","68","48","","","2","48","training","adjacent","CD","3","4","L.jpg","P.jpg","0","1","0","",""
"","feedback","","html-keyboard-response","321","500070","0.0-1.0-438.0-0.0","0","0","76179","","null","","","null","48","","","","","","","","","","","","","","","",""
"","time_out","","html-keyboard-response","322","502078","0.0-1.0-440.0-0.0","0","0","76179","","null","","","null","48","","","","","","","","","","","","","","","",""
"","ITI","","html-keyboard-response","323","503086","0.0-1.0-441.0","0","0","76179","","null","","","null","48","","","","","","","","","","","","","","","NaN",""
"","S1","","html-keyboard-response","324","503347","0.0-1.0-443.0","0","0","76179","","null","","","null","49","","","","","","","","","","","","","","","",""
"","ISI","","html-keyboard-response","325","504352","0.0-1.0-444.0","0","0","76179","","null","","","null","49","NaN","","","","","","","","","","","","","","",""
"","S2","","html-keyboard-response","326","504613","0.0-1.0-445.0","0","0","76179","","null","","","null","49","","NaN","","","","","","","","","","","","","",""
"","response","","html-keyboard-response","327","505952","0.0-1.0-446.0-0.0","0","0","76179","","1335","","","75","49","","","2","49","training","adjacent","CB","3","2","L.jpg","M.jpg","1","0","0","",""
"","feedback","","html-keyboard-response","328","506964","0.0-1.0-447.0-0.0","0","0","76179","","null","","","null","49","","","","","","","","","","","","","","","",""
"","time_out","","html-keyboard-response","329","508970","0.0-1.0-449.0-0.0","0","0","76179","","null","","","null","49","","","","","","","","","","","","","","","",""
"","ITI","","html-keyboard-response","330","509976","0.0-1.0-450.0","0","0","76179","","null","","","null","49","","","","","","","","","","","","","","","NaN",""
"","S1","","html-keyboard-response","331","510237","0.0-1.0-452.0","0","0","76179","","null","","","null","50","","","","","","","","","","","","","","","",""
"","ISI","","html-keyboard-response","332","511242","0.0-1.0-453.0","0","0","76179","","null","","","null","50","NaN","","","","","","","","","","","","","","",""
"","S2","","html-keyboard-response","333","511497","0.0-1.0-454.0","0","0","76179","","null","","","null","50","","NaN","","","","","","","","","","","","","",""
"","response","","html-keyboard-response","334","511994","0.0-1.0-455.0-0.0","0","0","76179","","494","","","75","50","","","2","50","training","adjacent","DE","4","5","P.jpg","O.jpg","1","1","1","",""
"","feedback","","html-keyboard-response","335","513005","0.0-1.0-456.0-0.0","0","0","76179","","null","","","null","50","","","","","","","","","","","","","","","",""
"","ITI","","html-keyboard-response","336","514013","0.0-1.0-459.0","0","0","76179","","null","","","null","50","","","","","","","","","","","","","","","NaN",""
"","S1","","html-keyboard-response","337","514273","0.0-1.0-461.0","0","0","76179","","null","","","null","51","","","","","","","","","","","","","","","",""
"","ISI","","html-keyboard-response","338","515284","0.0-1.0-462.0","0","0","76179","","null","","","null","51","NaN","","","","","","","","","","","","","","",""
"","S2","","html-keyboard-response","339","515538","0.0-1.0-463.0","0","0","76179","","null","","","null","51","","NaN","","","","","","","","","","","","","",""
"","response","","html-keyboard-response","340","516393","0.0-1.0-464.0-0.0","0","0","76179","","852","","","68","51","","","2","51","training","adjacent","BC","2","3","M.jpg","L.jpg","0","1","0","",""
"","feedback","","html-keyboard-response","341","517402","0.0-1.0-465.0-0.0","0","0","76179","","null","","","null","51","","","","","","","","","","","","","","","",""
"","time_out","","html-keyboard-response","342","519411","0.0-1.0-467.0-0.0","0","0","76179","","null","","","null","51","","","","","","","","","","","","","","","",""
"","ITI","","html-keyboard-response","343","520416","0.0-1.0-468.0","0","0","76179","","null","","","null","51","","","","","","","","","","","","","","","NaN",""
"","S1","","html-keyboard-response","344","520677","0.0-1.0-470.0","0","0","76179","","null","","","null","52","","","","","","","","","","","","","","","",""
"","ISI","","html-keyboard-response","345","521681","0.0-1.0-471.0","0","0","76179","","null","","","null","52","NaN","","","","","","","","","","","","","","",""
"","S2","","html-keyboard-response","346","521936","0.0-1.0-472.0","0","0","76179","","null","","","null","52","","NaN","","","","","","","","","","","","","",""
"","response","","html-keyboard-response","347","522644","0.0-1.0-473.0-0.0","0","0","76179","","705","","","68","52","","","2","52","training","adjacent","FE","6","5","N.jpg","O.jpg","0","0","1","",""
"","feedback","","html-keyboard-response","348","523653","0.0-1.0-474.0-0.0","0","0","76179","","null","","","null","52","","","","","","","","","","","","","","","",""
"","ITI","","html-keyboard-response","349","524661","0.0-1.0-477.0","0","0","76179","","null","","","null","52","","","","","","","","","","","","","","","NaN",""
"","S1","","html-keyboard-response","350","524915","0.0-1.0-479.0","0","0","76179","","null","","","null","53","","","","","","","","","","","","","","","",""
"","ISI","","html-keyboard-response","351","525934","0.0-1.0-480.0","0","0","76179","","null","","","null","53","NaN","","","","","","","","","","","","","","",""
"","S2","","html-keyboard-response","352","526189","0.0-1.0-481.0","0","0","76179","","null","","","null","53","","NaN","","","","","","","","","","","","","",""
"","response","","html-keyboard-response","353","527071","0.0-1.0-482.0-0.0","0","0","76179","","878","","","68","53","","","2","53","training","adjacent","DC","4","3","P.jpg","L.jpg","0","0","1","",""
"","feedback","","html-keyboard-response","354","528080","0.0-1.0-483.0-0.0","0","0","76179","","null","","","null","53","","","","","","","","","","","","","","","",""
"","ITI","","html-keyboard-response","355","529084","0.0-1.0-486.0","0","0","76179","","null","","","null","53","","","","","","","","","","","","","","","NaN",""
"","S1","","html-keyboard-response","356","529347","0.0-1.0-488.0","0","0","76179","","null","","","null","54","","","","","","","","","","","","","","","",""
"","ISI","","html-keyboard-response","357","530350","0.0-1.0-489.0","0","0","76179","","null","","","null","54","NaN","","","","","","","","","","","","","","",""
"","S2","","html-keyboard-response","358","530611","0.0-1.0-490.0","0","0","76179","","null","","","null","54","","NaN","","","","","","","","","","","","","",""
"","response","","html-keyboard-response","359","532382","0.0-1.0-491.0-0.0","0","0","76179","","null","","","null","54","","","2","54","training","adjacent","CD","3","4","L.jpg","P.jpg","NaN","1","0","",""
"","too_slow_prompt","","html-keyboard-response","360","533394","0.0-1.0-493.0-0.0","1","0","76179","","null","","","null","","","","","","","","","","","","","","","","",""
"","time_out","","html-keyboard-response","361","535397","0.0-1.0-494.0-0.0","0","0","76179","","null","","","null","54","","","","","","","","","","","","","","","",""
"","ITI","","html-keyboard-response","362","536404","0.0-1.0-495.0","0","0","76179","","null","","","null","54","","","","","","","","","","","","","","","NaN",""
"","S1","","html-keyboard-response","363","536665","0.0-1.0-497.0","0","0","76179","","null","","","null","55","","","","","","","","","","","","","","","",""
"","ISI","","html-keyboard-response","364","537677","0.0-1.0-498.0","0","0","76179","","null","","","null","55","NaN","","","","","","","","","","","","","","",""
"","S2","","html-keyboard-response","365","537938","0.0-1.0-499.0","0","0","76179","","null","","","null","55","","NaN","","","","","","","","","","","","","",""
"","response","","html-keyboard-response","366","538700","0.0-1.0-500.0-0.0","0","0","76179","","758","","","75","55","","","2","55","training","adjacent","BC","2","3","M.jpg","L.jpg","1","1","1","",""
"","feedback","","html-keyboard-response","367","539706","0.0-1.0-501.0-0.0","0","0","76179","","null","","","null","55","","","","","","","","","","","","","","","",""
"","ITI","","html-keyboard-response","368","540711","0.0-1.0-504.0","0","0","76179","","null","","","null","55","","","","","","","","","","","","","","","NaN",""
"","S1","","html-keyboard-response","369","540972","0.0-1.0-506.0","0","0","76179","","null","","","null","56","","","","","","","","","","","","","","","",""
"","ISI","","html-keyboard-response","370","541978","0.0-1.0-507.0","0","0","76179","","null","","","null","56","NaN","","","","","","","","","","","","","","",""
"","S2","","html-keyboard-response","371","542238","0.0-1.0-508.0","0","0","76179","","null","","","null","56","","NaN","","","","","","","","","","","","","",""
"","response","","html-keyboard-response","372","542737","0.0-1.0-509.0-0.0","0","0","76179","","494","","","68","56","","","2","56","training","adjacent","ED","5","4","O.jpg","P.jpg","0","0","1","",""
"","feedback","","html-keyboard-response","373","543746","0.0-1.0-510.0-0.0","0","0","76179","","null","","","null","56","","","","","","","","","","","","","","","",""
"","ITI","","html-keyboard-response","374","544758","0.0-1.0-513.0","0","0","76179","","null","","","null","56","","","","","","","","","","","","","","","NaN",""
"","S1","","html-keyboard-response","375","545020","0.0-1.0-515.0","0","0","76179","","null","","","null","57","","","","","","","","","","","","","","","",""
"","ISI","","html-keyboard-response","376","546030","0.0-1.0-516.0","0","0","76179","","null","","","null","57","NaN","","","","","","","","","","","","","","",""
"","S2","","html-keyboard-response","377","546293","0.0-1.0-517.0","0","0","76179","","null","","","null","57","","NaN","","","","","","","","","","","","","",""
"","response","","html-keyboard-response","378","546796","0.0-1.0-518.0-0.0","0","0","76179","","499","","","75","57","","","2","57","training","adjacent","EF","5","6","O.jpg","N.jpg","1","1","1","",""
"","feedback","","html-keyboard-response","379","547809","0.0-1.0-519.0-0.0","0","0","76179","","null","","","null","57","","","","","","","","","","","","","","","",""
"","ITI","","html-keyboard-response","380","548819","0.0-1.0-522.0","0","0","76179","","null","","","null","57","","","","","","","","","","","","","","","NaN",""
"","S1","","html-keyboard-response","381","549080","0.0-1.0-524.0","0","0","76179","","null","","","null","58","","","","","","","","","","","","","","","",""
"","ISI","","html-keyboard-response","382","550090","0.0-1.0-525.0","0","0","76179","","null","","","null","58","NaN","","","","","","","","","","","","","","",""
"","S2","","html-keyboard-response","383","550351","0.0-1.0-526.0","0","0","76179","","null","","","null","58","","NaN","","","","","","","","","","","","","",""
"","response","","html-keyboard-response","384","550817","0.0-1.0-527.0-0.0","0","0","76179","","463","","","75","58","","","2","58","training","adjacent","BA","2","1","M.jpg","Q.jpg","1","0","0","",""
"","feedback","","html-keyboard-response","385","551829","0.0-1.0-528.0-0.0","0","0","76179","","null","","","null","58","","","","","","","","","","","","","","","",""
"","time_out","","html-keyboard-response","386","553841","0.0-1.0-530.0-0.0","0","0","76179","","null","","","null","58","","","","","","","","","","","","","","","",""
"","ITI","","html-keyboard-response","387","554853","0.0-1.0-531.0","0","0","76179","","867","","","84","58","","","","","","","","","","","","","","","t",""
"","S1","","html-keyboard-response","388","555114","0.0-1.0-533.0","0","0","76179","","null","","","null","59","","","","","","","","","","","","","","","",""
"","ISI","","html-keyboard-response","389","556124","0.0-1.0-534.0","0","0","76179","","501","","","68","59","d","","","","","","","","","","","","","","",""
"","S2","","html-keyboard-response","390","556379","0.0-1.0-535.0","0","0","76179","","null","","","null","59","","NaN","","","","","","","","","","","","","",""
"","response","","html-keyboard-response","391","556861","0.0-1.0-536.0-0.0","0","0","76179","","478","","","75","59","","","2","59","training","adjacent","FE","6","5","N.jpg","O.jpg","1","0","0","",""
"","feedback","","html-keyboard-response","392","557868","0.0-1.0-537.0-0.0","0","0","76179","","null","","","null","59","","","","","","","","","","","","","","","",""
"","time_out","","html-keyboard-response","393","559887","0.0-1.0-539.0-0.0","0","0","76179","","null","","","null","59","","","","","","","","","","","","","","","",""
"","ITI","","html-keyboard-response","394","560894","0.0-1.0-540.0","0","0","76179","","null","","","null","59","","","","","","","","","","","","","","","NaN",""
"","S1","","html-keyboard-response","395","561156","0.0-1.0-542.0","0","0","76179","","null","","","null","60","","","","","","","","","","","","","","","",""
"","ISI","","html-keyboard-response","396","562173","0.0-1.0-543.0","0","0","76179","","506","","","68","60","d","","","","","","","","","","","","","","",""
"","S2","","html-keyboard-response","397","562443","0.0-1.0-544.0","0","0","76179","","null","","","null","60","","NaN","","","","","","","","","","","","","",""
"","response","","html-keyboard-response","398","563123","0.0-1.0-545.0-0.0","0","0","76179","","677","","","68","60","","","2","60","training","adjacent","BC","2","3","M.jpg","L.jpg","0","1","0","",""
"","feedback","","html-keyboard-response","399","564135","0.0-1.0-546.0-0.0","0","0","76179","","null","","","null","60","","","","","","","","","","","","","","","",""
"","time_out","","html-keyboard-response","400","566140","0.0-1.0-548.0-0.0","0","0","76179","","null","","","null","60","","","","","","","","","","","","","","","",""
"","ITI","","html-keyboard-response","401","567153","0.0-1.0-549.0","0","0","76179","","null","","","null","60","","","","","","","","","","","","","","","NaN",""
"","S1","","html-keyboard-response","402","567415","0.0-1.0-551.0","0","0","76179","","null","","","null","61","","","","","","","","","","","","","","","",""
"","ISI","","html-keyboard-response","403","568422","0.0-1.0-552.0","0","0","76179","","null","","","null","61","NaN","","","","","","","","","","","","","","",""
"","S2","","html-keyboard-response","404","568635","0.0-1.0-553.0","0","0","76179","","208","","","75","61","","k","2","61","training","adjacent","CD","3","4","L.jpg","P.jpg","1","1","1","",""
"","feedback","","html-keyboard-response","405","569644","0.0-1.0-555.0-0.0","0","0","76179","","null","","","null","61","","","","","","","","","","","","","","","",""
"","ITI","","html-keyboard-response","406","570659","0.0-1.0-558.0","0","0","76179","","null","","","null","61","","","","","","","","","","","","","","","NaN",""
"","S1","","html-keyboard-response","407","570920","0.0-1.0-560.0","0","0","76179","","null","","","null","62","","","","","","","","","","","","","","","",""
"","ISI","","html-keyboard-response","408","571926","0.0-1.0-561.0","0","0","76179","","null","","","null","62","NaN","","","","","","","","","","","","","","",""
"","S2","","html-keyboard-response","409","572186","0.0-1.0-562.0","0","0","76179","","null","","","null","62","","NaN","","","","","","","","","","","","","",""
"","response","","html-keyboard-response","410","572699","0.0-1.0-563.0-0.0","0","0","76179","","509","","","68","62","","","2","62","training","adjacent","CB","3","2","L.jpg","M.jpg","0","0","1","",""
"","feedback","","html-keyboard-response","411","573705","0.0-1.0-564.0-0.0","0","0","76179","","null","","","null","62","","","","","","","","","","","","","","","",""
"","ITI","","html-keyboard-response","412","574718","0.0-1.0-567.0","0","0","76179","","null","","","null","62","","","","","","","","","","","","","","","NaN",""
"","S1","","html-keyboard-response","413","574988","0.0-1.0-569.0","0","0","76179","","null","","","null","63","","","","","","","","","","","","","","","",""
"","ISI","","html-keyboard-response","414","576001","0.0-1.0-570.0","0","0","76179","","null","","","null","63","NaN","","","","","","","","","","","","","","",""
"","S2","","html-keyboard-response","415","576256","0.0-1.0-571.0","0","0","76179","","null","","","null","63","","NaN","","","","","","","","","","","","","",""
"","response","","html-keyboard-response","416","578001","0.0-1.0-572.0-0.0","0","0","76179","","1740","","","68","63","","","2","63","training","adjacent","GF","7","6","R.jpg","N.jpg","0","0","1","",""
"","feedback","","html-keyboard-response","417","579011","0.0-1.0-573.0-0.0","0","0","76179","","null","","","null","63","","","","","","","","","","","","","","","",""
"","ITI","","html-keyboard-response","418","580024","0.0-1.0-576.0","0","0","76179","","null","","","null","63","","","","","","","","","","","","","","","NaN",""
"","S1","","html-keyboard-response","419","580294","0.0-1.0-578.0","0","0","76179","","null","","","null","64","","","","","","","","","","","","","","","",""
"","ISI","","html-keyboard-response","420","581306","0.0-1.0-579.0","0","0","76179","","null","","","null","64","NaN","","","","","","","","","","","","","","",""
"","S2","","html-keyboard-response","421","581560","0.0-1.0-580.0","0","0","76179","","null","","","null","64","","NaN","","","","","","","","","","","","","",""
"","response","","html-keyboard-response","422","582303","0.0-1.0-581.0-0.0","0","0","76179","","739","","","75","64","","","2","64","training","adjacent","FE","6","5","N.jpg","O.jpg","1","0","0","",""
"","feedback","","html-keyboard-response","423","583317","0.0-1.0-582.0-0.0","0","0","76179","","null","","","null","64","","","","","","","","","","","","","","","",""
"","time_out","","html-keyboard-response","424","585322","0.0-1.0-584.0-0.0","0","0","76179","","null","","","null","64","","","","","","","","","","","","","","","",""
"","ITI","","html-keyboard-response","425","586334","0.0-1.0-585.0","0","0","76179","","null","","","null","64","","","","","","","","","","","","","","","NaN",""
"","S1","","html-keyboard-response","426","586595","0.0-1.0-587.0","0","0","76179","","null","","","null","65","","","","","","","","","","","","","","","",""
"","ISI","","html-keyboard-response","427","587609","0.0-1.0-588.0","0","0","76179","","null","","","null","65","NaN","","","","","","","","","","","","","","",""
"","S2","","html-keyboard-response","428","587870","0.0-1.0-589.0","0","0","76179","","null","","","null","65","","NaN","","","","","","","","","","","","","",""
"","response","","html-keyboard-response","429","589336","0.0-1.0-590.0-0.0","0","0","76179","","1462","","","75","65","","","2","65","training","adjacent","AB","1","2","Q.jpg","M.jpg","1","1","1","",""
"","feedback","","html-keyboard-response","430","590347","0.0-1.0-591.0-0.0","0","0","76179","","null","","","null","65","","","","","","","","","","","","","","","",""
"","ITI","","html-keyboard-response","431","591352","0.0-1.0-594.0","0","0","76179","","null","","","null","65","","","","","","","","","","","","","","","NaN",""
"","S1","","html-keyboard-response","432","591606","0.0-1.0-596.0","0","0","76179","","null","","","null","66","","","","","","","","","","","","","","","",""
"","ISI","","html-keyboard-response","433","592617","0.0-1.0-597.0","0","0","76179","","null","","","null","66","NaN","","","","","","","","","","","","","","",""
"","S2","","html-keyboard-response","434","592872","0.0-1.0-598.0","0","0","76179","","null","","","null","66","","NaN","","","","","","","","","","","","","",""
"","response","","html-keyboard-response","435","593255","0.0-1.0-599.0-0.0","0","0","76179","","379","","","68","66","","","2","66","training","adjacent","FG","6","7","N.jpg","R.jpg","0","1","0","",""
"","feedback","","html-keyboard-response","436","594264","0.0-1.0-600.0-0.0","0","0","76179","","null","","","null","66","","","","","","","","","","","","","","","",""
"","time_out","","html-keyboard-response","437","596270","0.0-1.0-602.0-0.0","0","0","76179","","null","","","null","66","","","","","","","","","","","","","","","",""
"","ITI","","html-keyboard-response","438","597279","0.0-1.0-603.0","0","0","76179","","null","","","null","66","","","","","","","","","","","","","","","NaN",""
"","S1","","html-keyboard-response","439","597539","0.0-1.0-605.0","0","0","76179","","null","","","null","67","","","","","","","","","","","","","","","",""
"","ISI","","html-keyboard-response","440","598559","0.0-1.0-606.0","0","0","76179","","null","","","null","67","NaN","","","","","","","","","","","","","","",""
"","S2","","html-keyboard-response","441","598821","0.0-1.0-607.0","0","0","76179","","null","","","null","67","","NaN","","","","","","","","","","","","","",""
"","response","","html-keyboard-response","442","598974","0.0-1.0-608.0-0.0","0","0","76179","","149","","","75","67","","","2","67","training","adjacent","ED","5","4","O.jpg","P.jpg","1","0","0","",""
"","feedback","","html-keyboard-response","443","599984","0.0-1.0-609.0-0.0","0","0","76179","","null","","","null","67","","","","","","","","","","","","","","","",""
"","time_out","","html-keyboard-response","444","601996","0.0-1.0-611.0-0.0","0","0","76179","","null","","","null","67","","","","","","","","","","","","","","","",""
"","ITI","","html-keyboard-response","445","603002","0.0-1.0-612.0","0","0","76179","","null","","","null","67","","","","","","","","","","","","","","","NaN",""
"","S1","","html-keyboard-response","446","603256","0.0-1.0-614.0","0","0","76179","","null","","","null","68","","","","","","","","","","","","","","","",""
"","ISI","","html-keyboard-response","447","604269","0.0-1.0-615.0","0","0","76179","","581","","","68","68","d","","","","","","","","","","","","","","",""
"","S2","","html-keyboard-response","448","604539","0.0-1.0-616.0","0","0","76179","","null","","","null","68","","NaN","","","","","","","","","","","","","",""
"","response","","html-keyboard-response","449","605066","0.0-1.0-617.0-0.0","0","0","76179","","523","","","75","68","","","2","68","training","adjacent","FE","6","5","N.jpg","O.jpg","1","0","0","",""
"","feedback","","html-keyboard-response","450","606077","0.0-1.0-618.0-0.0","0","0","76179","","null","","","null","68","","","","","","","","","","","","","","","",""
"","time_out","","html-keyboard-response","451","608087","0.0-1.0-620.0-0.0","0","0","76179","","null","","","null","68","","","","","","","","","","","","","","","",""
"","ITI","","html-keyboard-response","452","609099","0.0-1.0-621.0","0","0","76179","","null","","","null","68","","","","","","","","","","","","","","","NaN",""
"","S1","","html-keyboard-response","453","609361","0.0-1.0-623.0","0","0","76179","","null","","","null","69","","","","","","","","","","","","","","","",""
"","ISI","","html-keyboard-response","454","610372","0.0-1.0-624.0","0","0","76179","","null","","","null","69","NaN","","","","","","","","","","","","","","",""
"","S2","","html-keyboard-response","455","610635","0.0-1.0-625.0","0","0","76179","","null","","","null","69","","NaN","","","","","","","","","","","","","",""
"","response","","html-keyboard-response","456","610647","0.0-1.0-626.0-0.0","0","0","76179","","9","","","75","69","","","2","69","training","adjacent","AB","1","2","Q.jpg","M.jpg","1","1","1","",""
"","feedback","","html-keyboard-response","457","611665","0.0-1.0-627.0-0.0","0","0","76179","","null","","","null","69","","","","","","","","","","","","","","","",""
"","ITI","","html-keyboard-response","458","612675","0.0-1.0-630.0","0","0","76179","","null","","","null","69","","","","","","","","","","","","","","","NaN",""
"","S1","","html-keyboard-response","459","612931","0.0-1.0-632.0","0","0","76179","","null","","","null","70","","","","","","","","","","","","","","","",""
"","ISI","","html-keyboard-response","460","613940","0.0-1.0-633.0","0","0","76179","","null","","","null","70","NaN","","","","","","","","","","","","","","",""
"","S2","","html-keyboard-response","461","614202","0.0-1.0-634.0","0","0","76179","","null","","","null","70","","NaN","","","","","","","","","","","","","",""
"","response","","html-keyboard-response","462","614603","0.0-1.0-635.0-0.0","0","0","76179","","397","","","75","70","","","2","70","training","adjacent","DE","4","5","P.jpg","O.jpg","1","1","1","",""
"","feedback","","html-keyboard-response","463","615615","0.0-1.0-636.0-0.0","0","0","76179","","null","","","null","70","","","","","","","","","","","","","","","",""
"","ITI","","html-keyboard-response","464","616625","0.0-1.0-639.0","0","0","76179","","null","","","null","70","","","","","","","","","","","","","","","NaN",""
"","S1","","html-keyboard-response","465","616886","0.0-1.0-641.0","0","0","76179","","null","","","null","71","","","","","","","","","","","","","","","",""
"","ISI","","html-keyboard-response","466","617893","0.0-1.0-642.0","0","0","76179","","null","","","null","71","NaN","","","","","","","","","","","","","","",""
"","S2","","html-keyboard-response","467","618161","0.0-1.0-643.0","0","0","76179","","null","","","null","71","","NaN","","","","","","","","","","","","","",""
"","response","","html-keyboard-response","468","618488","0.0-1.0-644.0-0.0","0","0","76179","","323","","","75","71","","","2","71","training","adjacent","GF","7","6","R.jpg","N.jpg","1","0","0","",""
"","feedback","","html-keyboard-response","469","619498","0.0-1.0-645.0-0.0","0","0","76179","","null","","","null","71","","","","","","","","","","","","","","","",""
"","time_out","","html-keyboard-response","470","621505","0.0-1.0-647.0-0.0","0","0","76179","","null","","","null","71","","","","","","","","","","","","","","","",""
"","ITI","","html-keyboard-response","471","622513","0.0-1.0-648.0","0","0","76179","","null","","","null","71","","","","","","","","","","","","","","","NaN",""
"","S1","","html-keyboard-response","472","622775","0.0-1.0-650.0","0","0","76179","","null","","","null","72","","","","","","","","","","","","","","","",""
"","ISI","","html-keyboard-response","473","623795","0.0-1.0-651.0","0","0","76179","","null","","","null","72","NaN","","","","","","","","","","","","","","",""
"","S2","","html-keyboard-response","474","624055","0.0-1.0-652.0","0","0","76179","","null","","","null","72","","NaN","","","","","","","","","","","","","",""
"","response","","html-keyboard-response","475","624709","0.0-1.0-653.0-0.0","0","0","76179","","650","","","68","72","","","2","72","training","adjacent","CB","3","2","L.jpg","M.jpg","0","0","1","",""
"","feedback","","html-keyboard-response","476","625717","0.0-1.0-654.0-0.0","0","0","76179","","null","","","null","72","","","","","","","","","","","","","","","",""
"","ITI","","html-keyboard-response","477","626728","0.0-1.0-657.0","0","0","76179","","null","","","null","72","","","","","","","","","","","","","","","NaN",""
"","S1","","html-keyboard-response","478","626983","0.0-1.0-659.0","0","0","76179","","null","","","null","73","","","","","","","","","","","","","","","",""
"","ISI","","html-keyboard-response","479","627993","0.0-1.0-660.0","0","0","76179","","null","","","null","73","NaN","","","","","","","","","","","","","","",""
"","S2","","html-keyboard-response","480","628254","0.0-1.0-661.0","0","0","76179","","null","","","null","73","","NaN","","","","","","","","","","","","","",""
"","response","","html-keyboard-response","481","628613","0.0-1.0-662.0-0.0","0","0","76179","","354","","","68","73","","","2","73","training","adjacent","DC","4","3","P.jpg","L.jpg","0","0","1","",""
"","feedback","","html-keyboard-response","482","629625","0.0-1.0-663.0-0.0","0","0","76179","","null","","","null","73","","","","","","","","","","","","","","","",""
"","ITI","","html-keyboard-response","483","630633","0.0-1.0-666.0","0","0","76179","","null","","","null","73","","","","","","","","","","","","","","","NaN",""
"","S1","","html-keyboard-response","484","630888","0.0-1.0-668.0","0","0","76179","","null","","","null","74","","","","","","","","","","","","","","","",""
"","ISI","","html-keyboard-response","485","631896","0.0-1.0-669.0","0","0","76179","","null","","","null","74","NaN","","","","","","","","","","","","","","",""
"","S2","","html-keyboard-response","486","632157","0.0-1.0-670.0","0","0","76179","","null","","","null","74","","NaN","","","","","","","","","","","","","",""
"","response","","html-keyboard-response","487","632805","0.0-1.0-671.0-0.0","0","0","76179","","644","","","68","74","","","2","74","training","adjacent","BA","2","1","M.jpg","Q.jpg","0","0","1","",""
"","feedback","","html-keyboard-response","488","633820","0.0-1.0-672.0-0.0","0","0","76179","","null","","","null","74","","","","","","","","","","","","","","","",""
"","ITI","","html-keyboard-response","489","634829","0.0-1.0-675.0","0","0","76179","","null","","","null","74","","","","","","","","","","","","","","","NaN",""
"","S1","","html-keyboard-response","490","635084","0.0-1.0-677.0","0","0","76179","","null","","","null","75","","","","","","","","","","","","","","","",""
"","ISI","","html-keyboard-response","491","636093","0.0-1.0-678.0","0","0","76179","","null","","","null","75","NaN","","","","","","","","","","","","","","",""
"","S2","","html-keyboard-response","492","636348","0.0-1.0-679.0","0","0","76179","","null","","","null","75","","NaN","","","","","","","","","","","","","",""
"","response","","html-keyboard-response","493","636764","0.0-1.0-680.0-0.0","0","0","76179","","413","","","75","75","","","2","75","training","adjacent","EF","5","6","O.jpg","N.jpg","1","1","1","",""
"","feedback","","html-keyboard-response","494","637776","0.0-1.0-681.0-0.0","0","0","76179","","null","","","null","75","","","","","","","","","","","","","","","",""
"","ITI","","html-keyboard-response","495","638789","0.0-1.0-684.0","0","0","76179","","null","","","null","75","","","","","","","","","","","","","","","NaN",""
"","S1","","html-keyboard-response","496","639050","0.0-1.0-686.0","0","0","76179","","null","","","null","76","","","","","","","","","","","","","","","",""
"","ISI","","html-keyboard-response","497","640063","0.0-1.0-687.0","0","0","76179","","null","","","null","76","NaN","","","","","","","","","","","","","","",""
"","S2","","html-keyboard-response","498","640317","0.0-1.0-688.0","0","0","76179","","null","","","null","76","","NaN","","","","","","","","","","","","","",""
"","response","","html-keyboard-response","499","640811","0.0-1.0-689.0-0.0","0","0","76179","","488","","","68","76","","","2","76","training","adjacent","BA","2","1","M.jpg","Q.jpg","0","0","1","",""
"","feedback","","html-keyboard-response","500","641817","0.0-1.0-690.0-0.0","0","0","76179","","null","","","null","76","","","","","","","","","","","","","","","",""
"","ITI","","html-keyboard-response","501","642827","0.0-1.0-693.0","0","0","76179","","null","","","null","76","","","","","","","","","","","","","","","NaN",""
"","S1","","html-keyboard-response","502","643088","0.0-1.0-695.0","0","0","76179","","null","","","null","77","","","","","","","","","","","","","","","",""
"","ISI","","html-keyboard-response","503","644099","0.0-1.0-696.0","0","0","76179","","null","","","null","77","NaN","","","","","","","","","","","","","","",""
"","S2","","html-keyboard-response","504","644361","0.0-1.0-697.0","0","0","76179","","null","","","null","77","","NaN","","","","","","","","","","","","","",""
"","response","","html-keyboard-response","505","645175","0.0-1.0-698.0-0.0","0","0","76179","","810","","","75","77","","","2","77","training","adjacent","EF","5","6","O.jpg","N.jpg","1","1","1","",""
"","feedback","","html-keyboard-response","506","646183","0.0-1.0-699.0-0.0","0","0","76179","","null","","","null","77","","","","","","","","","","","","","","","",""
"","ITI","","html-keyboard-response","507","647189","0.0-1.0-702.0","0","0","76179","","null","","","null","77","","","","","","","","","","","","","","","NaN",""
"","S1","","html-keyboard-response","508","647451","0.0-1.0-704.0","0","0","76179","","null","","","null","78","","","","","","","","","","","","","","","",""
"","ISI","","html-keyboard-response","509","648455","0.0-1.0-705.0","0","0","76179","","null","","","null","78","NaN","","","","","","","","","","","","","","",""
"","S2","","html-keyboard-response","510","648719","0.0-1.0-706.0","0","0","76179","","null","","","null","78","","NaN","","","","","","","","","","","","","",""
"","response","","html-keyboard-response","511","649079","0.0-1.0-707.0-0.0","0","0","76179","","356","","","75","78","","","2","78","training","adjacent","DE","4","5","P.jpg","O.jpg","1","1","1","",""
"","feedback","","html-keyboard-response","512","650091","0.0-1.0-708.0-0.0","0","0","76179","","null","","","null","78","","","","","","","","","","","","","","","",""
"","ITI","","html-keyboard-response","513","651104","0.0-1.0-711.0","0","0","76179","","null","","","null","78","","","","","","","","","","","","","","","NaN",""
"","S1","","html-keyboard-response","514","651365","0.0-1.0-713.0","0","0","76179","","null","","","null","79","","","","","","","","","","","","","","","",""
"","ISI","","html-keyboard-response","515","652385","0.0-1.0-714.0","0","0","76179","","null","","","null","79","NaN","","","","","","","","","","","","","","",""
"","S2","","html-keyboard-response","516","652645","0.0-1.0-715.0","0","0","76179","","null","","","null","79","","NaN","","","","","","","","","","","","","",""
"","response","","html-keyboard-response","517","653162","0.0-1.0-716.0-0.0","0","0","76179","","512","","","68","79","","","2","79","training","adjacent","ED","5","4","O.jpg","P.jpg","0","0","1","",""
"","feedback","","html-keyboard-response","518","654167","0.0-1.0-717.0-0.0","0","0","76179","","null","","","null","79","","","","","","","","","","","","","","","",""
"","ITI","","html-keyboard-response","519","655179","0.0-1.0-720.0","0","0","76179","","null","","","null","79","","","","","","","","","","","","","","","NaN",""
"","S1","","html-keyboard-response","520","655441","0.0-1.0-722.0","0","0","76179","","null","","","null","80","","","","","","","","","","","","","","","",""
"","ISI","","html-keyboard-response","521","656447","0.0-1.0-723.0","0","0","76179","","null","","","null","80","NaN","","","","","","","","","","","","","","",""
"","S2","","html-keyboard-response","522","656702","0.0-1.0-724.0","0","0","76179","","null","","","null","80","","NaN","","","","","","","","","","","","","",""
"","response","","html-keyboard-response","523","657166","0.0-1.0-725.0-0.0","0","0","76179","","460","","","75","80","","","2","80","training","adjacent","GF","7","6","R.jpg","N.jpg","1","0","0","",""
"","feedback","","html-keyboard-response","524","658182","0.0-1.0-726.0-0.0","0","0","76179","","null","","","null","80","","","","","","","","","","","","","","","",""
"","time_out","","html-keyboard-response","525","660192","0.0-1.0-728.0-0.0","0","0","76179","","null","","","null","80","","","","","","","","","","","","","","","",""
"","ITI","","html-keyboard-response","526","661205","0.0-1.0-729.0","0","0","76179","","null","","","null","80","","","","","","","","","","","","","","","NaN",""
"","S1","","html-keyboard-response","527","661460","0.0-1.0-731.0","0","0","76179","","null","","","null","81","","","","","","","","","","","","","","","",""
"","ISI","","html-keyboard-response","528","662465","0.0-1.0-732.0","0","0","76179","","null","","","null","81","NaN","","","","","","","","","","","","","","",""
"","S2","","html-keyboard-response","529","662728","0.0-1.0-733.0","0","0","76179","","null","","","null","81","","NaN","","","","","","","","","","","","","",""
"","response","","html-keyboard-response","530","663080","0.0-1.0-734.0-0.0","0","0","76179","","348","","","68","81","","","2","81","training","adjacent","ED","5","4","O.jpg","P.jpg","0","0","1","",""
"","feedback","","html-keyboard-response","531","664085","0.0-1.0-735.0-0.0","0","0","76179","","null","","","null","81","","","","","","","","","","","","","","","",""
"","ITI","","html-keyboard-response","532","665092","0.0-1.0-738.0","0","0","76179","","null","","","null","81","","","","","","","","","","","","","","","NaN",""
"","S1","","html-keyboard-response","533","665354","0.0-1.0-740.0","0","0","76179","","null","","","null","82","","","","","","","","","","","","","","","",""
"","ISI","","html-keyboard-response","534","666364","0.0-1.0-741.0","0","0","76179","","null","","","null","82","NaN","","","","","","","","","","","","","","",""
"","S2","","html-keyboard-response","535","666622","0.0-1.0-742.0","0","0","76179","","null","","","null","82","","NaN","","","","","","","","","","","","","",""
"","response","","html-keyboard-response","536","667220","0.0-1.0-743.0-0.0","0","0","76179","","594","","","75","82","","","2","82","training","adjacent","AB","1","2","Q.jpg","M.jpg","1","1","1","",""
"","feedback","","html-keyboard-response","537","668228","0.0-1.0-744.0-0.0","0","0","76179","","null","","","null","82","","","","","","","","","","","","","","","",""
"","ITI","","html-keyboard-response","538","669240","0.0-1.0-747.0","0","0","76179","","null","","","null","82","","","","","","","","","","","","","","","NaN",""
"","S1","","html-keyboard-response","539","669500","0.0-1.0-749.0","0","0","76179","","null","","","null","83","","","","","","","","","","","","","","","",""
"","ISI","","html-keyboard-response","540","670505","0.0-1.0-750.0","0","0","76179","","null","","","null","83","NaN","","","","","","","","","","","","","","",""
"","S2","","html-keyboard-response","541","670767","0.0-1.0-751.0","0","0","76179","","null","","","null","83","","NaN","","","","","","","","","","","","","",""
"","response","","html-keyboard-response","542","671158","0.0-1.0-752.0-0.0","0","0","76179","","387","","","68","83","","","2","83","training","adjacent","BA","2","1","M.jpg","Q.jpg","0","0","1","",""
"","feedback","","html-keyboard-response","543","672164","0.0-1.0-753.0-0.0","0","0","76179","","null","","","null","83","","","","","","","","","","","","","","","",""
"","ITI","","html-keyboard-response","544","673176","0.0-1.0-756.0","0","0","76179","","null","","","null","83","","","","","","","","","","","","","","","NaN",""
"","S1","","html-keyboard-response","545","673439","0.0-1.0-758.0","0","0","76179","","null","","","null","84","","","","","","","","","","","","","","","",""
"","ISI","","html-keyboard-response","546","674452","0.0-1.0-759.0","0","0","76179","","null","","","null","84","NaN","","","","","","","","","","","","","","",""
"","S2","","html-keyboard-response","547","674713","0.0-1.0-760.0","0","0","76179","","null","","","null","84","","NaN","","","","","","","","","","","","","",""
"","response","","html-keyboard-response","548","675352","0.0-1.0-761.0-0.0","0","0","76179","","634","","","75","84","","","2","84","training","adjacent","DC","4","3","P.jpg","L.jpg","1","0","0","",""
"","feedback","","html-keyboard-response","549","676360","0.0-1.0-762.0-0.0","0","0","76179","","null","","","null","84","","","","","","","","","","","","","","","",""
"","time_out","","html-keyboard-response","550","678370","0.0-1.0-764.0-0.0","0","0","76179","","null","","","null","84","","","","","","","","","","","","","","","",""
"","ITI","","html-keyboard-response","551","679377","0.0-1.0-765.0","0","0","76179","","null","","","null","84","","","","","","","","","","","","","","","NaN",""
"","S1","","html-keyboard-response","552","679638","0.0-1.0-767.0","0","0","76179","","null","","","null","85","","","","","","","","","","","","","","","",""
"","ISI","","html-keyboard-response","553","680649","0.0-1.0-768.0","0","0","76179","","null","","","null","85","NaN","","","","","","","","","","","","","","",""
"","S2","","html-keyboard-response","554","680911","0.0-1.0-769.0","0","0","76179","","null","","","null","85","","NaN","","","","","","","","","","","","","",""
"","response","","html-keyboard-response","555","681259","0.0-1.0-770.0-0.0","0","0","76179","","343","","","75","85","","","2","85","training","adjacent","BC","2","3","M.jpg","L.jpg","1","1","1","",""
"","feedback","","html-keyboard-response","556","682266","0.0-1.0-771.0-0.0","0","0","76179","","null","","","null","85","","","","","","","","","","","","","","","",""
"","ITI","","html-keyboard-response","557","683277","0.0-1.0-774.0","0","0","76179","","null","","","null","85","","","","","","","","","","","","","","","NaN",""
"","S1","","html-keyboard-response","558","683539","0.0-1.0-776.0","0","0","76179","","null","","","null","86","","","","","","","","","","","","","","","",""
"","ISI","","html-keyboard-response","559","684548","0.0-1.0-777.0","0","0","76179","","null","","","null","86","NaN","","","","","","","","","","","","","","",""
"","S2","","html-keyboard-response","560","684809","0.0-1.0-778.0","0","0","76179","","null","","","null","86","","NaN","","","","","","","","","","","","","",""
"","response","","html-keyboard-response","561","685144","0.0-1.0-779.0-0.0","0","0","76179","","330","","","75","86","","","2","86","training","adjacent","CB","3","2","L.jpg","M.jpg","1","0","0","",""
"","feedback","","html-keyboard-response","562","686157","0.0-1.0-780.0-0.0","0","0","76179","","null","","","null","86","","","","","","","","","","","","","","","",""
"","time_out","","html-keyboard-response","563","688165","0.0-1.0-782.0-0.0","0","0","76179","","null","","","null","86","","","","","","","","","","","","","","","",""
"","ITI","","html-keyboard-response","564","689181","0.0-1.0-783.0","0","0","76179","","null","","","null","86","","","","","","","","","","","","","","","NaN",""
"","S1","","html-keyboard-response","565","689436","0.0-1.0-785.0","0","0","76179","","null","","","null","87","","","","","","","","","","","","","","","",""
"","ISI","","html-keyboard-response","566","690451","0.0-1.0-786.0","0","0","76179","","null","","","null","87","NaN","","","","","","","","","","","","","","",""
"","S2","","html-keyboard-response","567","690705","0.0-1.0-787.0","0","0","76179","","null","","","null","87","","NaN","","","","","","","","","","","","","",""
"","response","","html-keyboard-response","568","691439","0.0-1.0-788.0-0.0","0","0","76179","","729","","","75","87","","","2","87","training","adjacent","CD","3","4","L.jpg","P.jpg","1","1","1","",""
"","feedback","","html-keyboard-response","569","692450","0.0-1.0-789.0-0.0","0","0","76179","","null","","","null","87","","","","","","","","","","","","","","","",""
"","ITI","","html-keyboard-response","570","693455","0.0-1.0-792.0","0","0","76179","","null","","","null","87","","","","","","","","","","","","","","","NaN",""
"","S1","","html-keyboard-response","571","693709","0.0-1.0-794.0","0","0","76179","","null","","","null","88","","","","","","","","","","","","","","","",""
"","ISI","","html-keyboard-response","572","694714","0.0-1.0-795.0","0","0","76179","","null","","","null","88","NaN","","","","","","","","","","","","","","",""
"","S2","","html-keyboard-response","573","694978","0.0-1.0-796.0","0","0","76179","","null","","","null","88","","NaN","","","","","","","","","","","","","",""
"","response","","html-keyboard-response","574","695414","0.0-1.0-797.0-0.0","0","0","76179","","432","","","68","88","","","2","88","training","adjacent","FG","6","7","N.jpg","R.jpg","0","1","0","",""
"","feedback","","html-keyboard-response","575","696433","0.0-1.0-798.0-0.0","0","0","76179","","null","","","null","88","","","","","","","","","","","","","","","",""
"","time_out","","html-keyboard-response","576","698444","0.0-1.0-800.0-0.0","0","0","76179","","null","","","null","88","","","","","","","","","","","","","","","",""
"","ITI","","html-keyboard-response","577","699450","0.0-1.0-801.0","0","0","76179","","null","","","null","88","","","","","","","","","","","","","","","NaN",""
"","S1","","html-keyboard-response","578","699711","0.0-1.0-803.0","0","0","76179","","null","","","null","89","","","","","","","","","","","","","","","",""
"","ISI","","html-keyboard-response","579","700730","0.0-1.0-804.0","0","0","76179","","null","","","null","89","NaN","","","","","","","","","","","","","","",""
"","S2","","html-keyboard-response","580","700992","0.0-1.0-805.0","0","0","76179","","null","","","null","89","","NaN","","","","","","","","","","","","","",""
"","response","","html-keyboard-response","581","701709","0.0-1.0-806.0-0.0","0","0","76179","","712","","","68","89","","","2","89","training","adjacent","FG","6","7","N.jpg","R.jpg","0","1","0","",""
"","feedback","","html-keyboard-response","582","702717","0.0-1.0-807.0-0.0","0","0","76179","","null","","","null","89","","","","","","","","","","","","","","","",""
