"success","ttype","start_time","trial_type","trial_index","time_elapsed","internal_node_id","warning","missed_checkup","PID","view_history","rt","responses","repeat_instructions","key_press","index","keypress_isi","keypress_S2","block","trial_num","phase","group_type","pair_type","S1_stim","S2_stim","S1_img","S2_img","S1_chosen","S1_higher","accuracy","keypress_iti","total_bonus_tally"
"true","full_screen","d04132023hr1439","fullscreen","0","5318","0.0-0.0","0","0","92678","","","","","","","","","","","","","","","","","","","","","",""
"","instructions","","instructions","1","21537","0.0-1.0-0.0-0.0","0","0","92678","[{""page_index"":0,""viewing_time"":5436},{""page_index"":1,""viewing_time"":6951},{""page_index"":2,""viewing_time"":2089},{""page_index"":3,""viewing_time"":1741}]","16217","","","","","","","","","","","","","","","","","","","",""
"","comprehension_check","","survey-multi-choice","2","37315","0.0-1.0-0.0-1.0","0","0","92678","","15773","{""Q0"":""True"",""Q1"":""D"",""Q2"":""Once the second image appears and while the screen 'MAKE A CHOICE' is shown"",""Q3"":""Green mark"",""Q4"":""either D or K""}","0","","","","","","","","","","","","","","","","","",""
"","start_exp","","html-keyboard-response","3","39147","0.0-1.0-1.0","0","0","92678","","1829","","","32","","","","","","","","","","","","","","","","",""
"","S1","","html-keyboard-response","4","39409","0.0-1.0-2.0","0","0","92678","","null","","","null","0","","","","","","","","","","","","","","","",""
"","ISI","","html-keyboard-response","5","40417","0.0-1.0-3.0","0","0","92678","","null","","","null","0","NaN","","","","","","","","","","","","","","",""
"","S2","","html-keyboard-response","6","40679","0.0-1.0-4.0","0","0","92678","","null","","","null","0","","NaN","","","","","","","","","","","","","",""
"","response","","html-keyboard-response","7","41219","0.0-1.0-5.0-0.0","0","0","92678","","537","","","68","0","","","1","0","training","adjacent","BC","2","3","M.jpg","R.jpg","1","1","1","",""
"","feedback","","html-keyboard-response","8","42230","0.0-1.0-6.0-0.0","0","0","92678","","null","","","null","0","","","","","","","","","","","","","","","",""
"","ITI","","html-keyboard-response","9","43239","0.0-1.0-9.0","0","0","92678","","null","","","null","0","","","","","","","","","","","","","","","NaN",""
"","S1","","html-keyboard-response","10","43494","0.0-1.0-11.0","0","0","92678","","null","","","null","1","","","","","","","","","","","","","","","",""
"","ISI","","html-keyboard-response","11","44504","0.0-1.0-12.0","0","0","92678","","null","","","null","1","NaN","","","","","","","","","","","","","","",""
"","S2","","html-keyboard-response","12","44760","0.0-1.0-13.0","0","0","92678","","null","","","null","1","","NaN","","","","","","","","","","","","","",""
"","response","","html-keyboard-response","13","44980","0.0-1.0-14.0-0.0","0","0","92678","","218","","","68","1","","","1","1","training","adjacent","FG","6","7","Q.jpg","P.jpg","1","1","1","",""
"","feedback","","html-keyboard-response","14","45990","0.0-1.0-15.0-0.0","0","0","92678","","null","","","null","1","","","","","","","","","","","","","","","",""
"","ITI","","html-keyboard-response","15","47000","0.0-1.0-18.0","0","0","92678","","null","","","null","1","","","","","","","","","","","","","","","NaN",""
"","S1","","html-keyboard-response","16","47256","0.0-1.0-20.0","0","0","92678","","null","","","null","2","","","","","","","","","","","","","","","",""
"","ISI","","html-keyboard-response","17","48266","0.0-1.0-21.0","0","0","92678","","null","","","null","2","NaN","","","","","","","","","","","","","","",""
"","S2","","html-keyboard-response","18","48527","0.0-1.0-22.0","0","0","92678","","null","","","null","2","","NaN","","","","","","","","","","","","","",""
"","response","","html-keyboard-response","19","48791","0.0-1.0-23.0-0.0","0","0","92678","","262","","","68","2","","","1","2","training","adjacent","ED","5","4","O.jpg","L.jpg","1","0","0","",""
"","feedback","","html-keyboard-response","20","49798","0.0-1.0-24.0-0.0","0","0","92678","","null","","","null","2","","","","","","","","","","","","","","","",""
"","time_out","","html-keyboard-response","21","51807","0.0-1.0-26.0-0.0","0","0","92678","","null","","","null","2","","","","","","","","","","","","","","","",""
"","ITI","","html-keyboard-response","22","52817","0.0-1.0-27.0","0","0","92678","","null","","","null","2","","","","","","","","","","","","","","","NaN",""
"","S1","","html-keyboard-response","23","53079","0.0-1.0-29.0","0","0","92678","","null","","","null","3","","","","","","","","","","","","","","","",""
"","ISI","","html-keyboard-response","24","54088","0.0-1.0-30.0","0","0","92678","","null","","","null","3","NaN","","","","","","","","","","","","","","",""
"","S2","","html-keyboard-response","25","54344","0.0-1.0-31.0","0","0","92678","","null","","","null","3","","NaN","","","","","","","","","","","","","",""
"","response","","html-keyboard-response","26","54817","0.0-1.0-32.0-0.0","0","0","92678","","471","","","75","3","","","1","3","training","adjacent","DE","4","5","L.jpg","O.jpg","0","1","0","",""
"","feedback","","html-keyboard-response","27","55824","0.0-1.0-33.0-0.0","0","0","92678","","null","","","null","3","","","","","","","","","","","","","","","",""
"","time_out","","html-keyboard-response","28","57833","0.0-1.0-35.0-0.0","0","0","92678","","null","","","null","3","","","","","","","","","","","","","","","",""
"","ITI","","html-keyboard-response","29","58843","0.0-1.0-36.0","0","0","92678","","null","","","null","3","","","","","","","","","","","","","","","NaN",""
"","S1","","html-keyboard-response","30","59104","0.0-1.0-38.0","0","0","92678","","null","","","null","4","","","","","","","","","","","","","","","",""
"","ISI","","html-keyboard-response","31","60114","0.0-1.0-39.0","0","0","92678","","null","","","null","4","NaN","","","","","","","","","","","","","","",""
"","S2","","html-keyboard-response","32","60375","0.0-1.0-40.0","0","0","92678","","null","","","null","4","","NaN","","","","","","","","","","","","","",""
"","response","","html-keyboard-response","33","60681","0.0-1.0-41.0-0.0","0","0","92678","","304","","","68","4","","","1","4","training","adjacent","BA","2","1","M.jpg","N.jpg","1","0","0","",""
"","feedback","","html-keyboard-response","34","61687","0.0-1.0-42.0-0.0","0","0","92678","","null","","","null","4","","","","","","","","","","","","","","","",""
"","time_out","","html-keyboard-response","35","63696","0.0-1.0-44.0-0.0","0","0","92678","","null","","","null","4","","","","","","","","","","","","","","","",""
"","ITI","","html-keyboard-response","36","64706","0.0-1.0-45.0","0","0","92678","","null","","","null","4","","","","","","","","","","","","","","","NaN",""
"","S1","","html-keyboard-response","37","64967","0.0-1.0-47.0","0","0","92678","","null","","","null","5","","","","","","","","","","","","","","","",""
"","ISI","","html-keyboard-response","38","65977","0.0-1.0-48.0","0","0","92678","","null","","","null","5","NaN","","","","","","","","","","","","","","",""
"","S2","","html-keyboard-response","39","66239","0.0-1.0-49.0","0","0","92678","","null","","","null","5","","NaN","","","","","","","","","","","","","",""
"","response","","html-keyboard-response","40","66919","0.0-1.0-50.0-0.0","0","0","92678","","678","","","75","5","","","1","5","training","adjacent","AB","1","2","N.jpg","M.jpg","0","1","0","",""
"","feedback","","html-keyboard-response","41","67928","0.0-1.0-51.0-0.0","0","0","92678","","null","","","null","5","","","","","","","","","","","","","","","",""
"","time_out","","html-keyboard-response","42","69937","0.0-1.0-53.0-0.0","0","0","92678","","null","","","null","5","","","","","","","","","","","","","","","",""
"","ITI","","html-keyboard-response","43","70947","0.0-1.0-54.0","0","0","92678","","null","","","null","5","","","","","","","","","","","","","","","NaN",""
"","S1","","html-keyboard-response","44","71208","0.0-1.0-56.0","0","0","92678","","null","","","null","6","","","","","","","","","","","","","","","",""
"","ISI","","html-keyboard-response","45","72218","0.0-1.0-57.0","0","0","92678","","null","","","null","6","NaN","","","","","","","","","","","","","","",""
"","S2","","html-keyboard-response","46","72479","0.0-1.0-58.0","0","0","92678","","null","","","null","6","","NaN","","","","","","","","","","","","","",""
"","response","","html-keyboard-response","47","72859","0.0-1.0-59.0-0.0","0","0","92678","","378","","","68","6","","","1","6","training","adjacent","FE","6","5","Q.jpg","O.jpg","1","0","0","",""
"","feedback","","html-keyboard-response","48","73866","0.0-1.0-60.0-0.0","0","0","92678","","null","","","null","6","","","","","","","","","","","","","","","",""
"","time_out","","html-keyboard-response","49","75875","0.0-1.0-62.0-0.0","0","0","92678","","null","","","null","6","","","","","","","","","","","","","","","",""
"","ITI","","html-keyboard-response","50","76880","0.0-1.0-63.0","0","0","92678","","null","","","null","6","","","","","","","","","","","","","","","NaN",""
"","S1","","html-keyboard-response","51","77135","0.0-1.0-65.0","0","0","92678","","null","","","null","7","","","","","","","","","","","","","","","",""
"","ISI","","html-keyboard-response","52","78145","0.0-1.0-66.0","0","0","92678","","null","","","null","7","NaN","","","","","","","","","","","","","","",""
"","S2","","html-keyboard-response","53","78401","0.0-1.0-67.0","0","0","92678","","null","","","null","7","","NaN","","","","","","","","","","","","","",""
"","response","","html-keyboard-response","54","78959","0.0-1.0-68.0-0.0","0","0","92678","","556","","","75","7","","","1","7","training","adjacent","GF","7","6","P.jpg","Q.jpg","0","0","1","",""
"","feedback","","html-keyboard-response","55","79967","0.0-1.0-69.0-0.0","0","0","92678","","null","","","null","7","","","","","","","","","","","","","","","",""
"","ITI","","html-keyboard-response","56","80978","0.0-1.0-72.0","0","0","92678","","null","","","null","7","","","","","","","","","","","","","","","NaN",""
"","S1","","html-keyboard-response","57","81239","0.0-1.0-74.0","0","0","92678","","null","","","null","8","","","","","","","","","","","","","","","",""
"","ISI","","html-keyboard-response","58","82249","0.0-1.0-75.0","0","0","92678","","null","","","null","8","NaN","","","","","","","","","","","","","","",""
"","S2","","html-keyboard-response","59","82505","0.0-1.0-76.0","0","0","92678","","null","","","null","8","","NaN","","","","","","","","","","","","","",""
"","response","","html-keyboard-response","60","82744","0.0-1.0-77.0-0.0","0","0","92678","","237","","","75","8","","","1","8","training","adjacent","EF","5","6","O.jpg","Q.jpg","0","1","0","",""
"","feedback","","html-keyboard-response","61","83753","0.0-1.0-78.0-0.0","0","0","92678","","null","","","null","8","","","","","","","","","","","","","","","",""
"","time_out","","html-keyboard-response","62","85761","0.0-1.0-80.0-0.0","0","0","92678","","null","","","null","8","","","","","","","","","","","","","","","",""
"","ITI","","html-keyboard-response","63","86768","0.0-1.0-81.0","0","0","92678","","null","","","null","8","","","","","","","","","","","","","","","NaN",""
"","S1","","html-keyboard-response","64","87027","0.0-1.0-83.0","0","0","92678","","null","","","null","9","","","","","","","","","","","","","","","",""
"","ISI","","html-keyboard-response","65","88031","0.0-1.0-84.0","0","0","92678","","170","","","68","9","d","","","","","","","","","","","","","","",""
"","S2","","html-keyboard-response","66","88287","0.0-1.0-85.0","0","0","92678","","null","","","null","9","","NaN","","","","","","","","","","","","","",""
"","response","","html-keyboard-response","67","88524","0.0-1.0-86.0-0.0","0","0","92678","","235","","","68","9","","","1","9","training","adjacent","DC","4","3","L.jpg","R.jpg","1","0","0","",""
"","feedback","","html-keyboard-response","68","89528","0.0-1.0-87.0-0.0","0","0","92678","","null","","","null","9","","","","","","","","","","","","","","","",""
"","time_out","","html-keyboard-response","69","91532","0.0-1.0-89.0-0.0","0","0","92678","","null","","","null","9","","","","","","","","","","","","","","","",""
"","ITI","","html-keyboard-response","70","92536","0.0-1.0-90.0","0","0","92678","","null","","","null","9","","","","","","","","","","","","","","","NaN",""
"","S1","","html-keyboard-response","71","92792","0.0-1.0-92.0","0","0","92678","","null","","","null","10","","","","","","","","","","","","","","","",""
"","ISI","","html-keyboard-response","72","93801","0.0-1.0-93.0","0","0","92678","","null","","","null","10","NaN","","","","","","","","","","","","","","",""
"","S2","","html-keyboard-response","73","94057","0.0-1.0-94.0","0","0","92678","","null","","","null","10","","NaN","","","","","","","","","","","","","",""
"","response","","html-keyboard-response","74","94215","0.0-1.0-95.0-0.0","0","0","92678","","155","","","68","10","","","1","10","training","adjacent","BC","2","3","M.jpg","R.jpg","1","1","1","",""
"","feedback","","html-keyboard-response","75","95224","0.0-1.0-96.0-0.0","0","0","92678","","null","","","null","10","","","","","","","","","","","","","","","",""
"","ITI","","html-keyboard-response","76","96234","0.0-1.0-99.0","0","0","92678","","null","","","null","10","","","","","","","","","","","","","","","NaN",""
"","S1","","html-keyboard-response","77","96489","0.0-1.0-101.0","0","0","92678","","null","","","null","11","","","","","","","","","","","","","","","",""
"","ISI","","html-keyboard-response","78","97499","0.0-1.0-102.0","0","0","92678","","null","","","null","11","NaN","","","","","","","","","","","","","","",""
"","S2","","html-keyboard-response","79","97761","0.0-1.0-103.0","0","0","92678","","null","","","null","11","","NaN","","","","","","","","","","","","","",""
"","response","","html-keyboard-response","80","98311","0.0-1.0-104.0-0.0","0","0","92678","","548","","","68","11","","","1","11","training","adjacent","EF","5","6","O.jpg","Q.jpg","1","1","1","",""
"","feedback","","html-keyboard-response","81","99322","0.0-1.0-105.0-0.0","0","0","92678","","null","","","null","11","","","","","","","","","","","","","","","",""
"","ITI","","html-keyboard-response","82","100327","0.0-1.0-108.0","0","0","92678","","null","","","null","11","","","","","","","","","","","","","","","NaN",""
"","S1","","html-keyboard-response","83","100588","0.0-1.0-110.0","0","0","92678","","null","","","null","12","","","","","","","","","","","","","","","",""
"","ISI","","html-keyboard-response","84","101592","0.0-1.0-111.0","0","0","92678","","null","","","null","12","NaN","","","","","","","","","","","","","","",""
"","S2","","html-keyboard-response","85","101848","0.0-1.0-112.0","0","0","92678","","null","","","null","12","","NaN","","","","","","","","","","","","","",""
"","response","","html-keyboard-response","86","101986","0.0-1.0-113.0-0.0","0","0","92678","","136","","","75","12","","","1","12","training","adjacent","CD","3","4","R.jpg","L.jpg","0","1","0","",""
"","feedback","","html-keyboard-response","87","102991","0.0-1.0-114.0-0.0","0","0","92678","","null","","","null","12","","","","","","","","","","","","","","","",""
"","time_out","","html-keyboard-response","88","105002","0.0-1.0-116.0-0.0","0","0","92678","","null","","","null","12","","","","","","","","","","","","","","","",""
"","ITI","","html-keyboard-response","89","106010","0.0-1.0-117.0","0","0","92678","","null","","","null","12","","","","","","","","","","","","","","","NaN",""
"","S1","","html-keyboard-response","90","106265","0.0-1.0-119.0","0","0","92678","","null","","","null","13","","","","","","","","","","","","","","","",""
"","ISI","","html-keyboard-response","91","107275","0.0-1.0-120.0","0","0","92678","","null","","","null","13","NaN","","","","","","","","","","","","","","",""
"","S2","","html-keyboard-response","92","107537","0.0-1.0-121.0","0","0","92678","","null","","","null","13","","NaN","","","","","","","","","","","","","",""
"","response","","html-keyboard-response","93","107869","0.0-1.0-122.0-0.0","0","0","92678","","330","","","75","13","","","1","13","training","adjacent","FE","6","5","Q.jpg","O.jpg","0","0","1","",""
"","feedback","","html-keyboard-response","94","108883","0.0-1.0-123.0-0.0","0","0","92678","","null","","","null","13","","","","","","","","","","","","","","","",""
"","ITI","","html-keyboard-response","95","109888","0.0-1.0-126.0","0","0","92678","","null","","","null","13","","","","","","","","","","","","","","","NaN",""
"","S1","","html-keyboard-response","96","110148","0.0-1.0-128.0","0","0","92678","","null","","","null","14","","","","","","","","","","","","","","","",""
"","ISI","","html-keyboard-response","97","111153","0.0-1.0-129.0","0","0","92678","","null","","","null","14","NaN","","","","","","","","","","","","","","",""
"","S2","","html-keyboard-response","98","111409","0.0-1.0-130.0","0","0","92678","","null","","","null","14","","NaN","","","","","","","","","","","","","",""
"","response","","html-keyboard-response","99","111791","0.0-1.0-131.0-0.0","0","0","92678","","381","","","75","14","","","1","14","training","adjacent","CD","3","4","R.jpg","L.jpg","0","1","0","",""
"","feedback","","html-keyboard-response","100","112802","0.0-1.0-132.0-0.0","0","0","92678","","null","","","null","14","","","","","","","","","","","","","","","",""
"","time_out","","html-keyboard-response","101","114810","0.0-1.0-134.0-0.0","0","0","92678","","null","","","null","14","","","","","","","","","","","","","","","",""
"","ITI","","html-keyboard-response","102","115817","0.0-1.0-135.0","0","0","92678","","null","","","null","14","","","","","","","","","","","","","","","NaN",""
"","S1","","html-keyboard-response","103","116076","0.0-1.0-137.0","0","0","92678","","null","","","null","15","","","","","","","","","","","","","","","",""
"","ISI","","html-keyboard-response","104","117080","0.0-1.0-138.0","0","0","92678","","null","","","null","15","NaN","","","","","","","","","","","","","","",""
"","S2","","html-keyboard-response","105","117336","0.0-1.0-139.0","0","0","92678","","null","","","null","15","","NaN","","","","","","","","","","","","","",""
"","response","","html-keyboard-response","106","117653","0.0-1.0-140.0-0.0","0","0","92678","","315","","","75","15","","","1","15","training","adjacent","ED","5","4","O.jpg","L.jpg","0","0","1","",""
"","feedback","","html-keyboard-response","107","118665","0.0-1.0-141.0-0.0","0","0","92678","","null","","","null","15","","","","","","","","","","","","","","","",""
"","ITI","","html-keyboard-response","108","119675","0.0-1.0-144.0","0","0","92678","","null","","","null","15","","","","","","","","","","","","","","","NaN",""
"","S1","","html-keyboard-response","109","119936","0.0-1.0-146.0","0","0","92678","","null","","","null","16","","","","","","","","","","","","","","","",""
"","ISI","","html-keyboard-response","110","120946","0.0-1.0-147.0","0","0","92678","","null","","","null","16","NaN","","","","","","","","","","","","","","",""
"","S2","","html-keyboard-response","111","121202","0.0-1.0-148.0","0","0","92678","","null","","","null","16","","NaN","","","","","","","","","","","","","",""
"","response","","html-keyboard-response","112","121508","0.0-1.0-149.0-0.0","0","0","92678","","303","","","68","16","","","1","16","training","adjacent","BC","2","3","M.jpg","R.jpg","1","1","1","",""
"","feedback","","html-keyboard-response","113","122514","0.0-1.0-150.0-0.0","0","0","92678","","null","","","null","16","","","","","","","","","","","","","","","",""
"","ITI","","html-keyboard-response","114","123523","0.0-1.0-153.0","0","0","92678","","null","","","null","16","","","","","","","","","","","","","","","NaN",""
"","S1","","html-keyboard-response","115","123785","0.0-1.0-155.0","0","0","92678","","null","","","null","17","","","","","","","","","","","","","","","",""
"","ISI","","html-keyboard-response","116","124795","0.0-1.0-156.0","0","0","92678","","null","","","null","17","NaN","","","","","","","","","","","","","","",""
"","S2","","html-keyboard-response","117","125057","0.0-1.0-157.0","0","0","92678","","null","","","null","17","","NaN","","","","","","","","","","","","","",""
"","response","","html-keyboard-response","118","125279","0.0-1.0-158.0-0.0","0","0","92678","","220","","","75","17","","","1","17","training","adjacent","ED","5","4","O.jpg","L.jpg","0","0","1","",""
"","feedback","","html-keyboard-response","119","126293","0.0-1.0-159.0-0.0","0","0","92678","","null","","","null","17","","","","","","","","","","","","","","","",""
"","ITI","","html-keyboard-response","120","127297","0.0-1.0-162.0","0","0","92678","","null","","","null","17","","","","","","","","","","","","","","","NaN",""
"","S1","","html-keyboard-response","121","127553","0.0-1.0-164.0","0","0","92678","","null","","","null","18","","","","","","","","","","","","","","","",""
"","ISI","","html-keyboard-response","122","128563","0.0-1.0-165.0","0","0","92678","","null","","","null","18","NaN","","","","","","","","","","","","","","",""
"","S2","","html-keyboard-response","123","128818","0.0-1.0-166.0","0","0","92678","","null","","","null","18","","NaN","","","","","","","","","","","","","",""
"","response","","html-keyboard-response","124","129502","0.0-1.0-167.0-0.0","0","0","92678","","681","","","68","18","","","1","18","training","adjacent","GF","7","6","P.jpg","Q.jpg","1","0","0","",""
"","feedback","","html-keyboard-response","125","130513","0.0-1.0-168.0-0.0","0","0","92678","","null","","","null","18","","","","","","","","","","","","","","","",""
"","time_out","","html-keyboard-response","126","132522","0.0-1.0-170.0-0.0","0","0","92678","","null","","","null","18","","","","","","","","","","","","","","","",""
"","ITI","","html-keyboard-response","127","133532","0.0-1.0-171.0","0","0","92678","","null","","","null","18","","","","","","","","","","","","","","","NaN",""
"","S1","","html-keyboard-response","128","133793","0.0-1.0-173.0","0","0","92678","","null","","","null","19","","","","","","","","","","","","","","","",""
"","ISI","","html-keyboard-response","129","134803","0.0-1.0-174.0","0","0","92678","","null","","","null","19","NaN","","","","","","","","","","","","","","",""
"","S2","","html-keyboard-response","130","135065","0.0-1.0-175.0","0","0","92678","","null","","","null","19","","NaN","","","","","","","","","","","","","",""
"","response","","html-keyboard-response","131","135544","0.0-1.0-176.0-0.0","0","0","92678","","478","","","75","19","","","1","19","training","adjacent","BA","2","1","M.jpg","N.jpg","0","0","1","",""
"","feedback","","html-keyboard-response","132","136557","0.0-1.0-177.0-0.0","0","0","92678","","null","","","null","19","","","","","","","","","","","","","","","",""
"","ITI","","html-keyboard-response","133","137561","0.0-1.0-180.0","0","0","92678","","null","","","null","19","","","","","","","","","","","","","","","NaN",""
"","S1","","html-keyboard-response","134","137816","0.0-1.0-182.0","0","0","92678","","null","","","null","20","","","","","","","","","","","","","","","",""
"","ISI","","html-keyboard-response","135","138827","0.0-1.0-183.0","0","0","92678","","null","","","null","20","NaN","","","","","","","","","","","","","","",""
"","S2","","html-keyboard-response","136","139082","0.0-1.0-184.0","0","0","92678","","null","","","null","20","","NaN","","","","","","","","","","","","","",""
"","response","","html-keyboard-response","137","139624","0.0-1.0-185.0-0.0","0","0","92678","","540","","","68","20","","","1","20","training","adjacent","CB","3","2","R.jpg","M.jpg","1","0","0","",""
"","feedback","","html-keyboard-response","138","140632","0.0-1.0-186.0-0.0","0","0","92678","","null","","","null","20","","","","","","","","","","","","","","","",""
"","time_out","","html-keyboard-response","139","142640","0.0-1.0-188.0-0.0","0","0","92678","","null","","","null","20","","","","","","","","","","","","","","","",""
"","ITI","","html-keyboard-response","140","143650","0.0-1.0-189.0","0","0","92678","","null","","","null","20","","","","","","","","","","","","","","","NaN",""
"","S1","","html-keyboard-response","141","143906","0.0-1.0-191.0","0","0","92678","","null","","","null","21","","","","","","","","","","","","","","","",""
"","ISI","","html-keyboard-response","142","144916","0.0-1.0-192.0","0","0","92678","","null","","","null","21","NaN","","","","","","","","","","","","","","",""
"","S2","","html-keyboard-response","143","145177","0.0-1.0-193.0","0","0","92678","","null","","","null","21","","NaN","","","","","","","","","","","","","",""
"","response","","html-keyboard-response","144","145548","0.0-1.0-194.0-0.0","0","0","92678","","368","","","68","21","","","1","21","training","adjacent","BA","2","1","M.jpg","N.jpg","1","0","0","",""
"","feedback","","html-keyboard-response","145","146553","0.0-1.0-195.0-0.0","0","0","92678","","null","","","null","21","","","","","","","","","","","","","","","",""
"","time_out","","html-keyboard-response","146","148562","0.0-1.0-197.0-0.0","0","0","92678","","null","","","null","21","","","","","","","","","","","","","","","",""
"","ITI","","html-keyboard-response","147","149572","0.0-1.0-198.0","0","0","92678","","null","","","null","21","","","","","","","","","","","","","","","NaN",""
"","S1","","html-keyboard-response","148","149826","0.0-1.0-200.0","0","0","92678","","null","","","null","22","","","","","","","","","","","","","","","",""
"","ISI","","html-keyboard-response","149","150837","0.0-1.0-201.0","0","0","92678","","null","","","null","22","NaN","","","","","","","","","","","","","","",""
"","S2","","html-keyboard-response","150","151099","0.0-1.0-202.0","0","0","92678","","null","","","null","22","","NaN","","","","","","","","","","","","","",""
"","response","","html-keyboard-response","151","151550","0.0-1.0-203.0-0.0","0","0","92678","","449","","","68","22","","","1","22","training","adjacent","GF","7","6","P.jpg","Q.jpg","1","0","0","",""
"","feedback","","html-keyboard-response","152","152556","0.0-1.0-204.0-0.0","0","0","92678","","null","","","null","22","","","","","","","","","","","","","","","",""
"","time_out","","html-keyboard-response","153","154564","0.0-1.0-206.0-0.0","0","0","92678","","null","","","null","22","","","","","","","","","","","","","","","",""
"","ITI","","html-keyboard-response","154","155568","0.0-1.0-207.0","0","0","92678","","null","","","null","22","","","","","","","","","","","","","","","NaN",""
"","S1","","html-keyboard-response","155","155830","0.0-1.0-209.0","0","0","92678","","null","","","null","23","","","","","","","","","","","","","","","",""
"","ISI","","html-keyboard-response","156","156834","0.0-1.0-210.0","0","0","92678","","null","","","null","23","NaN","","","","","","","","","","","","","","",""
"","S2","","html-keyboard-response","157","157090","0.0-1.0-211.0","0","0","92678","","null","","","null","23","","NaN","","","","","","","","","","","","","",""
"","response","","html-keyboard-response","158","158024","0.0-1.0-212.0-0.0","0","0","92678","","933","","","75","23","","","1","23","training","adjacent","ED","5","4","O.jpg","L.jpg","0","0","1","",""
"","feedback","","html-keyboard-response","159","159034","0.0-1.0-213.0-0.0","0","0","92678","","null","","","null","23","","","","","","","","","","","","","","","",""
"","ITI","","html-keyboard-response","160","160044","0.0-1.0-216.0","0","0","92678","","null","","","null","23","","","","","","","","","","","","","","","NaN",""
"","S1","","html-keyboard-response","161","160300","0.0-1.0-218.0","0","0","92678","","null","","","null","24","","","","","","","","","","","","","","","",""
"","ISI","","html-keyboard-response","162","161310","0.0-1.0-219.0","0","0","92678","","null","","","null","24","NaN","","","","","","","","","","","","","","",""
"","S2","","html-keyboard-response","163","161571","0.0-1.0-220.0","0","0","92678","","null","","","null","24","","NaN","","","","","","","","","","","","","",""
"","response","","html-keyboard-response","164","161761","0.0-1.0-221.0-0.0","0","0","92678","","187","","","68","24","","","1","24","training","adjacent","AB","1","2","N.jpg","M.jpg","1","1","1","",""
"","feedback","","html-keyboard-response","165","162773","0.0-1.0-222.0-0.0","0","0","92678","","null","","","null","24","","","","","","","","","","","","","","","",""
"","ITI","","html-keyboard-response","166","163777","0.0-1.0-225.0","0","0","92678","","null","","","null","24","","","","","","","","","","","","","","","NaN",""
"","S1","","html-keyboard-response","167","164038","0.0-1.0-227.0","0","0","92678","","null","","","null","25","","","","","","","","","","","","","","","",""
"","ISI","","html-keyboard-response","168","165042","0.0-1.0-228.0","0","0","92678","","null","","","null","25","NaN","","","","","","","","","","","","","","",""
"","S2","","html-keyboard-response","169","165298","0.0-1.0-229.0","0","0","92678","","null","","","null","25","","NaN","","","","","","","","","","","","","",""
"","response","","html-keyboard-response","170","166318","0.0-1.0-230.0-0.0","0","0","92678","","1018","","","68","25","","","1","25","training","adjacent","EF","5","6","O.jpg","Q.jpg","1","1","1","",""
"","feedback","","html-keyboard-response","171","167330","0.0-1.0-231.0-0.0","0","0","92678","","null","","","null","25","","","","","","","","","","","","","","","",""
"","ITI","","html-keyboard-response","172","168340","0.0-1.0-234.0","0","0","92678","","null","","","null","25","","","","","","","","","","","","","","","NaN",""
"","S1","","html-keyboard-response","173","168595","0.0-1.0-236.0","0","0","92678","","null","","","null","26","","","","","","","","","","","","","","","",""
"","ISI","","html-keyboard-response","174","169605","0.0-1.0-237.0","0","0","92678","","null","","","null","26","NaN","","","","","","","","","","","","","","",""
"","S2","","html-keyboard-response","175","169867","0.0-1.0-238.0","0","0","92678","","null","","","null","26","","NaN","","","","","","","","","","","","","",""
"","response","","html-keyboard-response","176","169943","0.0-1.0-239.0-0.0","0","0","92678","","74","","","68","26","","","1","26","training","adjacent","AB","1","2","N.jpg","M.jpg","1","1","1","",""
"","feedback","","html-keyboard-response","177","170958","0.0-1.0-240.0-0.0","0","0","92678","","null","","","null","26","","","","","","","","","","","","","","","",""
"","ITI","","html-keyboard-response","178","171962","0.0-1.0-243.0","0","0","92678","","null","","","null","26","","","","","","","","","","","","","","","NaN",""
"","S1","","html-keyboard-response","179","172217","0.0-1.0-245.0","0","0","92678","","null","","","null","27","","","","","","","","","","","","","","","",""
"","ISI","","html-keyboard-response","180","173228","0.0-1.0-246.0","0","0","92678","","null","","","null","27","NaN","","","","","","","","","","","","","","",""
"","S2","","html-keyboard-response","181","173483","0.0-1.0-247.0","0","0","92678","","null","","","null","27","","NaN","","","","","","","","","","","","","",""
"","response","","html-keyboard-response","182","173645","0.0-1.0-248.0-0.0","0","0","92678","","159","","","75","27","","","1","27","training","adjacent","CB","3","2","R.jpg","M.jpg","0","0","1","",""
"","feedback","","html-keyboard-response","183","174650","0.0-1.0-249.0-0.0","0","0","92678","","null","","","null","27","","","","","","","","","","","","","","","",""
"","ITI","","html-keyboard-response","184","175660","0.0-1.0-252.0","0","0","92678","","null","","","null","27","","","","","","","","","","","","","","","NaN",""
"","S1","","html-keyboard-response","185","175916","0.0-1.0-254.0","0","0","92678","","null","","","null","28","","","","","","","","","","","","","","","",""
"","ISI","","html-keyboard-response","186","176926","0.0-1.0-255.0","0","0","92678","","null","","","null","28","NaN","","","","","","","","","","","","","","",""
"","S2","","html-keyboard-response","187","177187","0.0-1.0-256.0","0","0","92678","","null","","","null","28","","NaN","","","","","","","","","","","","","",""
"","response","","html-keyboard-response","188","177763","0.0-1.0-257.0-0.0","0","0","92678","","573","","","75","28","","","1","28","training","adjacent","FG","6","7","Q.jpg","P.jpg","0","1","0","",""
"","feedback","","html-keyboard-response","189","178772","0.0-1.0-258.0-0.0","0","0","92678","","null","","","null","28","","","","","","","","","","","","","","","",""
"","time_out","","html-keyboard-response","190","180775","0.0-1.0-260.0-0.0","0","0","92678","","null","","","null","28","","","","","","","","","","","","","","","",""
"","ITI","","html-keyboard-response","191","181786","0.0-1.0-261.0","0","0","92678","","null","","","null","28","","","","","","","","","","","","","","","NaN",""
"","S1","","html-keyboard-response","192","182046","0.0-1.0-263.0","0","0","92678","","null","","","null","29","","","","","","","","","","","","","","","",""
"","ISI","","html-keyboard-response","193","183050","0.0-1.0-264.0","0","0","92678","","null","","","null","29","NaN","","","","","","","","","","","","","","",""
"","S2","","html-keyboard-response","194","183306","0.0-1.0-265.0","0","0","92678","","null","","","null","29","","NaN","","","","","","","","","","","","","",""
"","response","","html-keyboard-response","195","184050","0.0-1.0-266.0-0.0","0","0","92678","","742","","","75","29","","","1","29","training","adjacent","CD","3","4","R.jpg","L.jpg","0","1","0","",""
"","feedback","","html-keyboard-response","196","185059","0.0-1.0-267.0-0.0","0","0","92678","","null","","","null","29","","","","","","","","","","","","","","","",""
"","time_out","","html-keyboard-response","197","187067","0.0-1.0-269.0-0.0","0","0","92678","","null","","","null","29","","","","","","","","","","","","","","","",""
"","ITI","","html-keyboard-response","198","188077","0.0-1.0-270.0","0","0","92678","","null","","","null","29","","","","","","","","","","","","","","","NaN",""
"","S1","","html-keyboard-response","199","188339","0.0-1.0-272.0","0","0","92678","","null","","","null","30","","","","","","","","","","","","","","","",""
"","ISI","","html-keyboard-response","200","189349","0.0-1.0-273.0","0","0","92678","","null","","","null","30","NaN","","","","","","","","","","","","","","",""
"","S2","","html-keyboard-response","201","189604","0.0-1.0-274.0","0","0","92678","","null","","","null","30","","NaN","","","","","","","","","","","","","",""
"","response","","html-keyboard-response","202","190692","0.0-1.0-275.0-0.0","0","0","92678","","1086","","","68","30","","","1","30","training","adjacent","DE","4","5","L.jpg","O.jpg","1","1","1","",""
"","feedback","","html-keyboard-response","203","191699","0.0-1.0-276.0-0.0","0","0","92678","","null","","","null","30","","","","","","","","","","","","","","","",""
"","ITI","","html-keyboard-response","204","192710","0.0-1.0-279.0","0","0","92678","","null","","","null","30","","","","","","","","","","","","","","","NaN",""
"","S1","","html-keyboard-response","205","192971","0.0-1.0-281.0","0","0","92678","","null","","","null","31","","","","","","","","","","","","","","","",""
"","ISI","","html-keyboard-response","206","193981","0.0-1.0-282.0","0","0","92678","","null","","","null","31","NaN","","","","","","","","","","","","","","",""
"","S2","","html-keyboard-response","207","194242","0.0-1.0-283.0","0","0","92678","","null","","","null","31","","NaN","","","","","","","","","","","","","",""
"","response","","html-keyboard-response","208","194680","0.0-1.0-284.0-0.0","0","0","92678","","435","","","68","31","","","1","31","training","adjacent","DE","4","5","L.jpg","O.jpg","1","1","1","",""
"","feedback","","html-keyboard-response","209","195694","0.0-1.0-285.0-0.0","0","0","92678","","null","","","null","31","","","","","","","","","","","","","","","",""
"","ITI","","html-keyboard-response","210","196698","0.0-1.0-288.0","0","0","92678","","null","","","null","31","","","","","","","","","","","","","","","NaN",""
"","S1","","html-keyboard-response","211","196954","0.0-1.0-290.0","0","0","92678","","null","","","null","32","","","","","","","","","","","","","","","",""
"","ISI","","html-keyboard-response","212","197958","0.0-1.0-291.0","0","0","92678","","null","","","null","32","NaN","","","","","","","","","","","","","","",""
"","S2","","html-keyboard-response","213","198219","0.0-1.0-292.0","0","0","92678","","null","","","null","32","","NaN","","","","","","","","","","","","","",""
"","response","","html-keyboard-response","214","198860","0.0-1.0-293.0-0.0","0","0","92678","","638","","","75","32","","","1","32","training","adjacent","GF","7","6","P.jpg","Q.jpg","0","0","1","",""
"","feedback","","html-keyboard-response","215","199867","0.0-1.0-294.0-0.0","0","0","92678","","null","","","null","32","","","","","","","","","","","","","","","",""
"","ITI","","html-keyboard-response","216","200878","0.0-1.0-297.0","0","0","92678","","null","","","null","32","","","","","","","","","","","","","","","NaN",""
"","S1","","html-keyboard-response","217","201139","0.0-1.0-299.0","0","0","92678","","null","","","null","33","","","","","","","","","","","","","","","",""
"","ISI","","html-keyboard-response","218","202149","0.0-1.0-300.0","0","0","92678","","null","","","null","33","NaN","","","","","","","","","","","","","","",""
"","S2","","html-keyboard-response","219","202405","0.0-1.0-301.0","0","0","92678","","null","","","null","33","","NaN","","","","","","","","","","","","","",""
"","response","","html-keyboard-response","220","202787","0.0-1.0-302.0-0.0","0","0","92678","","380","","","68","33","","","1","33","training","adjacent","DC","4","3","L.jpg","R.jpg","1","0","0","",""
"","feedback","","html-keyboard-response","221","203797","0.0-1.0-303.0-0.0","0","0","92678","","null","","","null","33","","","","","","","","","","","","","","","",""
"","time_out","","html-keyboard-response","222","205806","0.0-1.0-305.0-0.0","0","0","92678","","null","","","null","33","","","","","","","","","","","","","","","",""
"","ITI","","html-keyboard-response","223","206811","0.0-1.0-306.0","0","0","92678","","null","","","null","33","","","","","","","","","","","","","","","NaN",""
"","S1","","html-keyboard-response","224","207066","0.0-1.0-308.0","0","0","92678","","null","","","null","34","","","","","","","","","","","","","","","",""
"","ISI","","html-keyboard-response","225","208076","0.0-1.0-309.0","0","0","92678","","null","","","null","34","NaN","","","","","","","","","","","","","","",""
"","S2","","html-keyboard-response","226","208332","0.0-1.0-310.0","0","0","92678","","null","","","null","34","","NaN","","","","","","","","","","","","","",""
"","response","","html-keyboard-response","227","209116","0.0-1.0-311.0-0.0","0","0","92678","","782","","","75","34","","","1","34","training","adjacent","CD","3","4","R.jpg","L.jpg","0","1","0","",""
"","feedback","","html-keyboard-response","228","210125","0.0-1.0-312.0-0.0","0","0","92678","","null","","","null","34","","","","","","","","","","","","","","","",""
"","time_out","","html-keyboard-response","229","212134","0.0-1.0-314.0-0.0","0","0","92678","","null","","","null","34","","","","","","","","","","","","","","","",""
"","ITI","","html-keyboard-response","230","213138","0.0-1.0-315.0","0","0","92678","","null","","","null","34","","","","","","","","","","","","","","","NaN",""
"","S1","","html-keyboard-response","231","213394","0.0-1.0-317.0","0","0","92678","","null","","","null","35","","","","","","","","","","","","","","","",""
"","ISI","","html-keyboard-response","232","214404","0.0-1.0-318.0","0","0","92678","","null","","","null","35","NaN","","","","","","","","","","","","","","",""
"","S2","","html-keyboard-response","233","214659","0.0-1.0-319.0","0","0","92678","","null","","","null","35","","NaN","","","","","","","","","","","","","",""
"","response","","html-keyboard-response","234","214698","0.0-1.0-320.0-0.0","0","0","92678","","37","","","68","35","","","1","35","training","adjacent","AB","1","2","N.jpg","M.jpg","1","1","1","",""
"","feedback","","html-keyboard-response","235","215711","0.0-1.0-321.0-0.0","0","0","92678","","null","","","null","35","","","","","","","","","","","","","","","",""
"","ITI","","html-keyboard-response","236","216716","0.0-1.0-324.0","0","0","92678","","null","","","null","35","","","","","","","","","","","","","","","NaN",""
"","S1","","html-keyboard-response","237","216978","0.0-1.0-326.0","0","0","92678","","null","","","null","36","","","","","","","","","","","","","","","",""
"","ISI","","html-keyboard-response","238","217982","0.0-1.0-327.0","0","0","92678","","null","","","null","36","NaN","","","","","","","","","","","","","","",""
"","S2","","html-keyboard-response","239","218238","0.0-1.0-328.0","0","0","92678","","null","","","null","36","","NaN","","","","","","","","","","","","","",""
"","response","","html-keyboard-response","240","219357","0.0-1.0-329.0-0.0","0","0","92678","","1116","","","75","36","","","1","36","training","adjacent","FE","6","5","Q.jpg","O.jpg","0","0","1","",""
"","feedback","","html-keyboard-response","241","220369","0.0-1.0-330.0-0.0","0","0","92678","","null","","","null","36","","","","","","","","","","","","","","","",""
"","ITI","","html-keyboard-response","242","221378","0.0-1.0-333.0","0","0","92678","","null","","","null","36","","","","","","","","","","","","","","","NaN",""
"","S1","","html-keyboard-response","243","221637","0.0-1.0-335.0","0","0","92678","","null","","","null","37","","","","","","","","","","","","","","","",""
"","ISI","","html-keyboard-response","244","222642","0.0-1.0-336.0","0","0","92678","","null","","","null","37","NaN","","","","","","","","","","","","","","",""
"","S2","","html-keyboard-response","245","222898","0.0-1.0-337.0","0","0","92678","","null","","","null","37","","NaN","","","","","","","","","","","","","",""
"","response","","html-keyboard-response","246","223526","0.0-1.0-338.0-0.0","0","0","92678","","626","","","68","37","","","1","37","training","adjacent","FE","6","5","Q.jpg","O.jpg","1","0","0","",""
"","feedback","","html-keyboard-response","247","224530","0.0-1.0-339.0-0.0","0","0","92678","","null","","","null","37","","","","","","","","","","","","","","","",""
"","time_out","","html-keyboard-response","248","226539","0.0-1.0-341.0-0.0","0","0","92678","","null","","","null","37","","","","","","","","","","","","","","","",""
"","ITI","","html-keyboard-response","249","227550","0.0-1.0-342.0","0","0","92678","","null","","","null","37","","","","","","","","","","","","","","","NaN",""
"","S1","","html-keyboard-response","250","227805","0.0-1.0-344.0","0","0","92678","","null","","","null","38","","","","","","","","","","","","","","","",""
"","ISI","","html-keyboard-response","251","228816","0.0-1.0-345.0","0","0","92678","","null","","","null","38","NaN","","","","","","","","","","","","","","",""
"","S2","","html-keyboard-response","252","229078","0.0-1.0-346.0","0","0","92678","","null","","","null","38","","NaN","","","","","","","","","","","","","",""
"","response","","html-keyboard-response","253","229442","0.0-1.0-347.0-0.0","0","0","92678","","362","","","68","38","","","1","38","training","adjacent","FG","6","7","Q.jpg","P.jpg","1","1","1","",""
"","feedback","","html-keyboard-response","254","230448","0.0-1.0-348.0-0.0","0","0","92678","","null","","","null","38","","","","","","","","","","","","","","","",""
"","ITI","","html-keyboard-response","255","231456","0.0-1.0-351.0","0","0","92678","","null","","","null","38","","","","","","","","","","","","","","","NaN",""
"","S1","","html-keyboard-response","256","231714","0.0-1.0-353.0","0","0","92678","","null","","","null","39","","","","","","","","","","","","","","","",""
"","ISI","","html-keyboard-response","257","232720","0.0-1.0-354.0","0","0","92678","","null","","","null","39","NaN","","","","","","","","","","","","","","",""
"","S2","","html-keyboard-response","258","232975","0.0-1.0-355.0","0","0","92678","","null","","","null","39","","NaN","","","","","","","","","","","","","",""
"","response","","html-keyboard-response","259","233356","0.0-1.0-356.0-0.0","0","0","92678","","380","","","68","39","","","1","39","training","adjacent","FG","6","7","Q.jpg","P.jpg","1","1","1","",""
"","feedback","","html-keyboard-response","260","234368","0.0-1.0-357.0-0.0","0","0","92678","","null","","","null","39","","","","","","","","","","","","","","","",""
"","ITI","","html-keyboard-response","261","235378","0.0-1.0-360.0","0","0","92678","","null","","","null","39","","","","","","","","","","","","","","","NaN",""
"","S1","","html-keyboard-response","262","235634","0.0-1.0-362.0","0","0","92678","","null","","","null","40","","","","","","","","","","","","","","","",""
"","ISI","","html-keyboard-response","263","236644","0.0-1.0-363.0","0","0","92678","","null","","","null","40","NaN","","","","","","","","","","","","","","",""
"","S2","","html-keyboard-response","264","236906","0.0-1.0-364.0","0","0","92678","","null","","","null","40","","NaN","","","","","","","","","","","","","",""
"","response","","html-keyboard-response","265","237338","0.0-1.0-365.0-0.0","0","0","92678","","431","","","75","40","","","1","40","training","adjacent","BA","2","1","M.jpg","N.jpg","0","0","1","",""
"","feedback","","html-keyboard-response","266","238346","0.0-1.0-366.0-0.0","0","0","92678","","null","","","null","40","","","","","","","","","","","","","","","",""
"","ITI","","html-keyboard-response","267","239356","0.0-1.0-369.0","0","0","92678","","null","","","null","40","","","","","","","","","","","","","","","NaN",""
"","S1","","html-keyboard-response","268","239617","0.0-1.0-371.0","0","0","92678","","null","","","null","41","","","","","","","","","","","","","","","",""
"","ISI","","html-keyboard-response","269","240627","0.0-1.0-372.0","0","0","92678","","null","","","null","41","NaN","","","","","","","","","","","","","","",""
"","S2","","html-keyboard-response","270","240883","0.0-1.0-373.0","0","0","92678","","null","","","null","41","","NaN","","","","","","","","","","","","","",""
"","response","","html-keyboard-response","271","241424","0.0-1.0-374.0-0.0","0","0","92678","","539","","","75","41","","","1","41","training","adjacent","CB","3","2","R.jpg","M.jpg","0","0","1","",""
"","feedback","","html-keyboard-response","272","242434","0.0-1.0-375.0-0.0","0","0","92678","","null","","","null","41","","","","","","","","","","","","","","","",""
"","ITI","","html-keyboard-response","273","243444","0.0-1.0-378.0","0","0","92678","","null","","","null","41","","","","","","","","","","","","","","","NaN",""
"","S1","","html-keyboard-response","274","243699","0.0-1.0-380.0","0","0","92678","","null","","","null","42","","","","","","","","","","","","","","","",""
"","ISI","","html-keyboard-response","275","244710","0.0-1.0-381.0","0","0","92678","","null","","","null","42","NaN","","","","","","","","","","","","","","",""
"","S2","","html-keyboard-response","276","244971","0.0-1.0-382.0","0","0","92678","","null","","","null","42","","NaN","","","","","","","","","","","","","",""
"","response","","html-keyboard-response","277","245387","0.0-1.0-383.0-0.0","0","0","92678","","414","","","68","42","","","1","42","training","adjacent","DE","4","5","L.jpg","O.jpg","1","1","1","",""
"","feedback","","html-keyboard-response","278","246399","0.0-1.0-384.0-0.0","0","0","92678","","null","","","null","42","","","","","","","","","","","","","","","",""
"","ITI","","html-keyboard-response","279","247403","0.0-1.0-387.0","0","0","92678","","null","","","null","42","","","","","","","","","","","","","","","NaN",""
"","S1","","html-keyboard-response","280","247659","0.0-1.0-389.0","0","0","92678","","null","","","null","43","","","","","","","","","","","","","","","",""
"","ISI","","html-keyboard-response","281","248669","0.0-1.0-390.0","0","0","92678","","null","","","null","43","NaN","","","","","","","","","","","","","","",""
"","S2","","html-keyboard-response","282","248925","0.0-1.0-391.0","0","0","92678","","null","","","null","43","","NaN","","","","","","","","","","","","","",""
"","response","","html-keyboard-response","283","249320","0.0-1.0-392.0-0.0","0","0","92678","","393","","","68","43","","","1","43","training","adjacent","BC","2","3","M.jpg","R.jpg","1","1","1","",""
"","feedback","","html-keyboard-response","284","250336","0.0-1.0-393.0-0.0","0","0","92678","","null","","","null","43","","","","","","","","","","","","","","","",""
"","ITI","","html-keyboard-response","285","251351","0.0-1.0-396.0","0","0","92678","","null","","","null","43","","","","","","","","","","","","","","","NaN",""
"","S1","","html-keyboard-response","286","251613","0.0-1.0-398.0","0","0","92678","","null","","","null","44","","","","","","","","","","","","","","","",""
"","ISI","","html-keyboard-response","287","252623","0.0-1.0-399.0","0","0","92678","","null","","","null","44","NaN","","","","","","","","","","","","","","",""
"","S2","","html-keyboard-response","288","252884","0.0-1.0-400.0","0","0","92678","","null","","","null","44","","NaN","","","","","","","","","","","","","",""
"","response","","html-keyboard-response","289","253367","0.0-1.0-401.0-0.0","0","0","92678","","481","","","75","44","","","1","44","training","adjacent","CB","3","2","R.jpg","M.jpg","0","0","1","",""
"","feedback","","html-keyboard-response","290","254373","0.0-1.0-402.0-0.0","0","0","92678","","null","","","null","44","","","","","","","","","","","","","","","",""
"","ITI","","html-keyboard-response","291","255381","0.0-1.0-405.0","0","0","92678","","null","","","null","44","","","","","","","","","","","","","","","NaN",""
"","S1","","html-keyboard-response","292","255636","0.0-1.0-407.0","0","0","92678","","null","","","null","45","","","","","","","","","","","","","","","",""
"","ISI","","html-keyboard-response","293","256646","0.0-1.0-408.0","0","0","92678","","null","","","null","45","NaN","","","","","","","","","","","","","","",""
"","S2","","html-keyboard-response","294","256902","0.0-1.0-409.0","0","0","92678","","null","","","null","45","","NaN","","","","","","","","","","","","","",""
"","response","","html-keyboard-response","295","257564","0.0-1.0-410.0-0.0","0","0","92678","","660","","","68","45","","","1","45","training","adjacent","DC","4","3","L.jpg","R.jpg","1","0","0","",""
"","feedback","","html-keyboard-response","296","258573","0.0-1.0-411.0-0.0","0","0","92678","","null","","","null","45","","","","","","","","","","","","","","","",""
"","time_out","","html-keyboard-response","297","260582","0.0-1.0-413.0-0.0","0","0","92678","","null","","","null","45","","","","","","","","","","","","","","","",""
"","ITI","","html-keyboard-response","298","261593","0.0-1.0-414.0","0","0","92678","","null","","","null","45","","","","","","","","","","","","","","","NaN",""
"","S1","","html-keyboard-response","299","261854","0.0-1.0-416.0","0","0","92678","","null","","","null","46","","","","","","","","","","","","","","","",""
"","ISI","","html-keyboard-response","300","262864","0.0-1.0-417.0","0","0","92678","","null","","","null","46","NaN","","","","","","","","","","","","","","",""
"","S2","","html-keyboard-response","301","263125","0.0-1.0-418.0","0","0","92678","","null","","","null","46","","NaN","","","","","","","","","","","","","",""
"","response","","html-keyboard-response","302","263743","0.0-1.0-419.0-0.0","0","0","92678","","615","","","75","46","","","1","46","training","adjacent","DC","4","3","L.jpg","R.jpg","0","0","1","",""
"","feedback","","html-keyboard-response","303","264751","0.0-1.0-420.0-0.0","0","0","92678","","null","","","null","46","","","","","","","","","","","","","","","",""
"","ITI","","html-keyboard-response","304","265761","0.0-1.0-423.0","0","0","92678","","null","","","null","46","","","","","","","","","","","","","","","NaN",""
"","S1","","html-keyboard-response","305","266022","0.0-1.0-425.0","0","0","92678","","null","","","null","47","","","","","","","","","","","","","","","",""
"","ISI","","html-keyboard-response","306","267032","0.0-1.0-426.0","0","0","92678","","null","","","null","47","NaN","","","","","","","","","","","","","","",""
"","S2","","html-keyboard-response","307","267293","0.0-1.0-427.0","0","0","92678","","null","","","null","47","","NaN","","","","","","","","","","","","","",""
"","response","","html-keyboard-response","308","267898","0.0-1.0-428.0-0.0","0","0","92678","","602","","","75","47","","","1","47","training","adjacent","EF","5","6","O.jpg","Q.jpg","0","1","0","",""
"","feedback","","html-keyboard-response","309","268912","0.0-1.0-429.0-0.0","0","0","92678","","null","","","null","47","","","","","","","","","","","","","","","",""
"","time_out","","html-keyboard-response","310","270921","0.0-1.0-431.0-0.0","0","0","92678","","null","","","null","47","","","","","","","","","","","","","","","",""
"","ITI","","html-keyboard-response","311","271926","0.0-1.0-432.0","0","0","92678","","null","","","null","47","","","","","","","","","","","","","","","NaN",""
"","block_over","","html-keyboard-response","312","277489","0.0-1.0-433.0-0.0","0","0","92678","","5560","","","32","47","","","","","","","","","","","","","","","",""
"","S1","","html-keyboard-response","313","277749","0.0-1.0-434.0","0","0","92678","","null","","","null","48","","","","","","","","","","","","","","","",""
"","ISI","","html-keyboard-response","314","278759","0.0-1.0-435.0","0","0","92678","","null","","","null","48","NaN","","","","","","","","","","","","","","",""
"","S2","","html-keyboard-response","315","279014","0.0-1.0-436.0","0","0","92678","","null","","","null","48","","NaN","","","","","","","","","","","","","",""
"","response","","html-keyboard-response","316","279788","0.0-1.0-437.0-0.0","0","0","92678","","772","","","68","48","","","2","48","training","adjacent","FG","6","7","Q.jpg","P.jpg","1","1","1","",""
"","feedback","","html-keyboard-response","317","280797","0.0-1.0-438.0-0.0","0","0","92678","","null","","","null","48","","","","","","","","","","","","","","","",""
"","ITI","","html-keyboard-response","318","281806","0.0-1.0-441.0","0","0","92678","","null","","","null","48","","","","","","","","","","","","","","","NaN",""
"","S1","","html-keyboard-response","319","282063","0.0-1.0-443.0","0","0","92678","","null","","","null","49","","","","","","","","","","","","","","","",""
"","ISI","","html-keyboard-response","320","283072","0.0-1.0-444.0","0","0","92678","","null","","","null","49","NaN","","","","","","","","","","","","","","",""
"","S2","","html-keyboard-response","321","283328","0.0-1.0-445.0","0","0","92678","","null","","","null","49","","NaN","","","","","","","","","","","","","",""
"","response","","html-keyboard-response","322","283766","0.0-1.0-446.0-0.0","0","0","92678","","436","","","75","49","","","2","49","training","adjacent","CD","3","4","R.jpg","L.jpg","0","1","0","",""
"","feedback","","html-keyboard-response","323","284774","0.0-1.0-447.0-0.0","0","0","92678","","null","","","null","49","","","","","","","","","","","","","","","",""
"","time_out","","html-keyboard-response","324","286782","0.0-1.0-449.0-0.0","0","0","92678","","null","","","null","49","","","","","","","","","","","","","","","",""
"","ITI","","html-keyboard-response","325","287792","0.0-1.0-450.0","0","0","92678","","null","","","null","49","","","","","","","","","","","","","","","NaN",""
"","S1","","html-keyboard-response","326","288047","0.0-1.0-452.0","0","0","92678","","null","","","null","50","","","","","","","","","","","","","","","",""
"","ISI","","html-keyboard-response","327","289057","0.0-1.0-453.0","0","0","92678","","null","","","null","50","NaN","","","","","","","","","","","","","","",""
"","S2","","html-keyboard-response","328","289319","0.0-1.0-454.0","0","0","92678","","null","","","null","50","","NaN","","","","","","","","","","","","","",""
"","response","","html-keyboard-response","329","289606","0.0-1.0-455.0-0.0","0","0","92678","","286","","","75","50","","","2","50","training","adjacent","FE","6","5","Q.jpg","O.jpg","0","0","1","",""
"","feedback","","html-keyboard-response","330","290618","0.0-1.0-456.0-0.0","0","0","92678","","null","","","null","50","","","","","","","","","","","","","","","",""
"","ITI","","html-keyboard-response","331","291623","0.0-1.0-459.0","0","0","92678","","null","","","null","50","","","","","","","","","","","","","","","NaN",""
"","S1","","html-keyboard-response","332","291879","0.0-1.0-461.0","0","0","92678","","null","","","null","51","","","","","","","","","","","","","","","",""
"","ISI","","html-keyboard-response","333","292889","0.0-1.0-462.0","0","0","92678","","null","","","null","51","NaN","","","","","","","","","","","","","","",""
"","S2","","html-keyboard-response","334","293150","0.0-1.0-463.0","0","0","92678","","null","","","null","51","","NaN","","","","","","","","","","","","","",""
"","response","","html-keyboard-response","335","293163","0.0-1.0-464.0-0.0","0","0","92678","","10","","","68","51","","","2","51","training","adjacent","AB","1","2","N.jpg","M.jpg","1","1","1","",""
"","feedback","","html-keyboard-response","336","294178","0.0-1.0-465.0-0.0","0","0","92678","","null","","","null","51","","","","","","","","","","","","","","","",""
"","ITI","","html-keyboard-response","337","295182","0.0-1.0-468.0","0","0","92678","","null","","","null","51","","","","","","","","","","","","","","","NaN",""
"","S1","","html-keyboard-response","338","295437","0.0-1.0-470.0","0","0","92678","","null","","","null","52","","","","","","","","","","","","","","","",""
"","ISI","","html-keyboard-response","339","296447","0.0-1.0-471.0","0","0","92678","","null","","","null","52","NaN","","","","","","","","","","","","","","",""
"","S2","","html-keyboard-response","340","296703","0.0-1.0-472.0","0","0","92678","","null","","","null","52","","NaN","","","","","","","","","","","","","",""
"","response","","html-keyboard-response","341","296753","0.0-1.0-473.0-0.0","0","0","92678","","48","","","75","52","","","2","52","training","adjacent","GF","7","6","P.jpg","Q.jpg","0","0","1","",""
"","feedback","","html-keyboard-response","342","297759","0.0-1.0-474.0-0.0","0","0","92678","","null","","","null","52","","","","","","","","","","","","","","","",""
"","ITI","","html-keyboard-response","343","298769","0.0-1.0-477.0","0","0","92678","","null","","","null","52","","","","","","","","","","","","","","","NaN",""
"","S1","","html-keyboard-response","344","299031","0.0-1.0-479.0","0","0","92678","","null","","","null","53","","","","","","","","","","","","","","","",""
"","ISI","","html-keyboard-response","345","300041","0.0-1.0-480.0","0","0","92678","","null","","","null","53","NaN","","","","","","","","","","","","","","",""
"","S2","","html-keyboard-response","346","300296","0.0-1.0-481.0","0","0","92678","","null","","","null","53","","NaN","","","","","","","","","","","","","",""
"","response","","html-keyboard-response","347","300379","0.0-1.0-482.0-0.0","0","0","92678","","80","","","68","53","","","2","53","training","adjacent","AB","1","2","N.jpg","M.jpg","1","1","1","",""
"","feedback","","html-keyboard-response","348","301393","0.0-1.0-483.0-0.0","0","0","92678","","null","","","null","53","","","","","","","","","","","","","","","",""
"","ITI","","html-keyboard-response","349","302398","0.0-1.0-486.0","0","0","92678","","null","","","null","53","","","","","","","","","","","","","","","NaN",""
"","S1","","html-keyboard-response","350","302655","0.0-1.0-488.0","0","0","92678","","null","","","null","54","","","","","","","","","","","","","","","",""
"","ISI","","html-keyboard-response","351","303663","0.0-1.0-489.0","0","0","92678","","null","","","null","54","NaN","","","","","","","","","","","","","","",""
"","S2","","html-keyboard-response","352","303919","0.0-1.0-490.0","0","0","92678","","null","","","null","54","","NaN","","","","","","","","","","","","","",""
"","response","","html-keyboard-response","353","304500","0.0-1.0-491.0-0.0","0","0","92678","","580","","","75","54","","","2","54","training","adjacent","DE","4","5","L.jpg","O.jpg","0","1","0","",""
"","feedback","","html-keyboard-response","354","305515","0.0-1.0-492.0-0.0","0","0","92678","","null","","","null","54","","","","","","","","","","","","","","","",""
"","time_out","","html-keyboard-response","355","307518","0.0-1.0-494.0-0.0","0","0","92678","","null","","","null","54","","","","","","","","","","","","","","","",""
"","ITI","","html-keyboard-response","356","308528","0.0-1.0-495.0","0","0","92678","","null","","","null","54","","","","","","","","","","","","","","","NaN",""
"","S1","","html-keyboard-response","357","308783","0.0-1.0-497.0","0","0","92678","","null","","","null","55","","","","","","","","","","","","","","","",""
"","ISI","","html-keyboard-response","358","309793","0.0-1.0-498.0","0","0","92678","","null","","","null","55","NaN","","","","","","","","","","","","","","",""
"","S2","","html-keyboard-response","359","310055","0.0-1.0-499.0","0","0","92678","","null","","","null","55","","NaN","","","","","","","","","","","","","",""
"","response","","html-keyboard-response","360","310220","0.0-1.0-500.0-0.0","0","0","92678","","163","","","68","55","","","2","55","training","adjacent","ED","5","4","O.jpg","L.jpg","1","0","0","",""
"","feedback","","html-keyboard-response","361","311233","0.0-1.0-501.0-0.0","0","0","92678","","null","","","null","55","","","","","","","","","","","","","","","",""
"","time_out","","html-keyboard-response","362","313242","0.0-1.0-503.0-0.0","0","0","92678","","null","","","null","55","","","","","","","","","","","","","","","",""
"","ITI","","html-keyboard-response","363","314246","0.0-1.0-504.0","0","0","92678","","null","","","null","55","","","","","","","","","","","","","","","NaN",""
"","S1","","html-keyboard-response","364","314505","0.0-1.0-506.0","0","0","92678","","null","","","null","56","","","","","","","","","","","","","","","",""
"","ISI","","html-keyboard-response","365","315515","0.0-1.0-507.0","0","0","92678","","null","","","null","56","NaN","","","","","","","","","","","","","","",""
"","S2","","html-keyboard-response","366","315779","0.0-1.0-508.0","0","0","92678","","null","","","null","56","","NaN","","","","","","","","","","","","","",""
"","response","","html-keyboard-response","367","316146","0.0-1.0-509.0-0.0","0","0","92678","","366","","","75","56","","","2","56","training","adjacent","CD","3","4","R.jpg","L.jpg","0","1","0","",""
"","feedback","","html-keyboard-response","368","317154","0.0-1.0-510.0-0.0","0","0","92678","","null","","","null","56","","","","","","","","","","","","","","","",""
"","time_out","","html-keyboard-response","369","319163","0.0-1.0-512.0-0.0","0","0","92678","","null","","","null","56","","","","","","","","","","","","","","","",""
"","ITI","","html-keyboard-response","370","320167","0.0-1.0-513.0","0","0","92678","","null","","","null","56","","","","","","","","","","","","","","","NaN",""
"","S1","","html-keyboard-response","371","320423","0.0-1.0-515.0","0","0","92678","","null","","","null","57","","","","","","","","","","","","","","","",""
"","ISI","","html-keyboard-response","372","321433","0.0-1.0-516.0","0","0","92678","","null","","","null","57","NaN","","","","","","","","","","","","","","",""
"","S2","","html-keyboard-response","373","321687","0.0-1.0-517.0","0","0","92678","","null","","","null","57","","NaN","","","","","","","","","","","","","",""
"","response","","html-keyboard-response","374","322510","0.0-1.0-518.0-0.0","0","0","92678","","820","","","75","57","","","2","57","training","adjacent","DC","4","3","L.jpg","R.jpg","0","0","1","",""
"","feedback","","html-keyboard-response","375","323523","0.0-1.0-519.0-0.0","0","0","92678","","null","","","null","57","","","","","","","","","","","","","","","",""
"","ITI","","html-keyboard-response","376","324527","0.0-1.0-522.0","0","0","92678","","null","","","null","57","","","","","","","","","","","","","","","NaN",""
"","S1","","html-keyboard-response","377","324783","0.0-1.0-524.0","0","0","92678","","null","","","null","58","","","","","","","","","","","","","","","",""
"","ISI","","html-keyboard-response","378","325793","0.0-1.0-525.0","0","0","92678","","null","","","null","58","NaN","","","","","","","","","","","","","","",""
"","S2","","html-keyboard-response","379","326048","0.0-1.0-526.0","0","0","92678","","null","","","null","58","","NaN","","","","","","","","","","","","","",""
"","response","","html-keyboard-response","380","326469","0.0-1.0-527.0-0.0","0","0","92678","","419","","","75","58","","","2","58","training","adjacent","CD","3","4","R.jpg","L.jpg","0","1","0","",""
"","feedback","","html-keyboard-response","381","327482","0.0-1.0-528.0-0.0","0","0","92678","","null","","","null","58","","","","","","","","","","","","","","","",""
"","time_out","","html-keyboard-response","382","329490","0.0-1.0-530.0-0.0","0","0","92678","","null","","","null","58","","","","","","","","","","","","","","","",""
"","ITI","","html-keyboard-response","383","330497","0.0-1.0-531.0","0","0","92678","","null","","","null","58","","","","","","","","","","","","","","","NaN",""
"","S1","","html-keyboard-response","384","330756","0.0-1.0-533.0","0","0","92678","","null","","","null","59","","","","","","","","","","","","","","","",""
"","ISI","","html-keyboard-response","385","331760","0.0-1.0-534.0","0","0","92678","","null","","","null","59","NaN","","","","","","","","","","","","","","",""
"","S2","","html-keyboard-response","386","332016","0.0-1.0-535.0","0","0","92678","","null","","","null","59","","NaN","","","","","","","","","","","","","",""
"","response","","html-keyboard-response","387","332739","0.0-1.0-536.0-0.0","0","0","92678","","720","","","68","59","","","2","59","training","adjacent","FG","6","7","Q.jpg","P.jpg","1","1","1","",""
"","feedback","","html-keyboard-response","388","333746","0.0-1.0-537.0-0.0","0","0","92678","","null","","","null","59","","","","","","","","","","","","","","","",""
"","ITI","","html-keyboard-response","389","334756","0.0-1.0-540.0","0","0","92678","","null","","","null","59","","","","","","","","","","","","","","","NaN",""
"","S1","","html-keyboard-response","390","335017","0.0-1.0-542.0","0","0","92678","","null","","","null","60","","","","","","","","","","","","","","","",""
"","ISI","","html-keyboard-response","391","336027","0.0-1.0-543.0","0","0","92678","","null","","","null","60","NaN","","","","","","","","","","","","","","",""
"","S2","","html-keyboard-response","392","336288","0.0-1.0-544.0","0","0","92678","","null","","","null","60","","NaN","","","","","","","","","","","","","",""
"","response","","html-keyboard-response","393","336985","0.0-1.0-545.0-0.0","0","0","92678","","695","","","75","60","","","2","60","training","adjacent","CB","3","2","R.jpg","M.jpg","0","0","1","",""
"","feedback","","html-keyboard-response","394","337995","0.0-1.0-546.0-0.0","0","0","92678","","null","","","null","60","","","","","","","","","","","","","","","",""
"","ITI","","html-keyboard-response","395","338999","0.0-1.0-549.0","0","0","92678","","null","","","null","60","","","","","","","","","","","","","","","NaN",""
"","S1","","html-keyboard-response","396","339255","0.0-1.0-551.0","0","0","92678","","null","","","null","61","","","","","","","","","","","","","","","",""
"","ISI","","html-keyboard-response","397","340265","0.0-1.0-552.0","0","0","92678","","null","","","null","61","NaN","","","","","","","","","","","","","","",""
"","S2","","html-keyboard-response","398","340521","0.0-1.0-553.0","0","0","92678","","null","","","null","61","","NaN","","","","","","","","","","","","","",""
"","response","","html-keyboard-response","399","341196","0.0-1.0-554.0-0.0","0","0","92678","","674","","","75","61","","","2","61","training","adjacent","ED","5","4","O.jpg","L.jpg","0","0","1","",""
"","feedback","","html-keyboard-response","400","342210","0.0-1.0-555.0-0.0","0","0","92678","","null","","","null","61","","","","","","","","","","","","","","","",""
"","ITI","","html-keyboard-response","401","343220","0.0-1.0-558.0","0","0","92678","","null","","","null","61","","","","","","","","","","","","","","","NaN",""
"","S1","","html-keyboard-response","402","343481","0.0-1.0-560.0","0","0","92678","","null","","","null","62","","","","","","","","","","","","","","","",""
"","ISI","","html-keyboard-response","403","344491","0.0-1.0-561.0","0","0","92678","","null","","","null","62","NaN","","","","","","","","","","","","","","",""
"","S2","","html-keyboard-response","404","344752","0.0-1.0-562.0","0","0","92678","","null","","","null","62","","NaN","","","","","","","","","","","","","",""
"","response","","html-keyboard-response","405","344769","0.0-1.0-563.0-0.0","0","0","92678","","14","","","68","62","","","2","62","training","adjacent","GF","7","6","P.jpg","Q.jpg","1","0","0","",""
"","feedback","","html-keyboard-response","406","345779","0.0-1.0-564.0-0.0","0","0","92678","","null","","","null","62","","","","","","","","","","","","","","","",""
"","time_out","","html-keyboard-response","407","347788","0.0-1.0-566.0-0.0","0","0","92678","","null","","","null","62","","","","","","","","","","","","","","","",""
"","ITI","","html-keyboard-response","408","348793","0.0-1.0-567.0","0","0","92678","","null","","","null","62","","","","","","","","","","","","","","","NaN",""
"","S1","","html-keyboard-response","409","349048","0.0-1.0-569.0","0","0","92678","","null","","","null","63","","","","","","","","","","","","","","","",""
"","ISI","","html-keyboard-response","410","350058","0.0-1.0-570.0","0","0","92678","","null","","","null","63","NaN","","","","","","","","","","","","","","",""
"","S2","","html-keyboard-response","411","350314","0.0-1.0-571.0","0","0","92678","","null","","","null","63","","NaN","","","","","","","","","","","","","",""
"","response","","html-keyboard-response","412","350972","0.0-1.0-572.0-0.0","0","0","92678","","656","","","68","63","","","2","63","training","adjacent","FG","6","7","Q.jpg","P.jpg","1","1","1","",""
"","feedback","","html-keyboard-response","413","351980","0.0-1.0-573.0-0.0","0","0","92678","","null","","","null","63","","","","","","","","","","","","","","","",""
"","ITI","","html-keyboard-response","414","352984","0.0-1.0-576.0","0","0","92678","","null","","","null","63","","","","","","","","","","","","","","","NaN",""
"","S1","","html-keyboard-response","415","353239","0.0-1.0-578.0","0","0","92678","","null","","","null","64","","","","","","","","","","","","","","","",""
"","ISI","","html-keyboard-response","416","354250","0.0-1.0-579.0","0","0","92678","","null","","","null","64","NaN","","","","","","","","","","","","","","",""
"","S2","","html-keyboard-response","417","354508","0.0-1.0-580.0","0","0","92678","","null","","","null","64","","NaN","","","","","","","","","","","","","",""
"","response","","html-keyboard-response","418","354776","0.0-1.0-581.0-0.0","0","0","92678","","266","","","68","64","","","2","64","training","adjacent","BC","2","3","M.jpg","R.jpg","1","1","1","",""
"","feedback","","html-keyboard-response","419","355788","0.0-1.0-582.0-0.0","0","0","92678","","null","","","null","64","","","","","","","","","","","","","","","",""
"","ITI","","html-keyboard-response","420","356792","0.0-1.0-585.0","0","0","92678","","null","","","null","64","","","","","","","","","","","","","","","NaN",""
"","S1","","html-keyboard-response","421","357048","0.0-1.0-587.0","0","0","92678","","null","","","null","65","","","","","","","","","","","","","","","",""
"","ISI","","html-keyboard-response","422","358057","0.0-1.0-588.0","0","0","92678","","null","","","null","65","NaN","","","","","","","","","","","","","","",""
"","S2","","html-keyboard-response","423","358313","0.0-1.0-589.0","0","0","92678","","null","","","null","65","","NaN","","","","","","","","","","","","","",""
"","response","","html-keyboard-response","424","359350","0.0-1.0-590.0-0.0","0","0","92678","","1035","","","75","65","","","2","65","training","adjacent","CB","3","2","R.jpg","M.jpg","0","0","1","",""
"","feedback","","html-keyboard-response","425","360362","0.0-1.0-591.0-0.0","0","0","92678","","null","","","null","65","","","","","","","","","","","","","","","",""
"","ITI","","html-keyboard-response","426","361372","0.0-1.0-594.0","0","0","92678","","null","","","null","65","","","","","","","","","","","","","","","NaN",""
"","S1","","html-keyboard-response","427","361634","0.0-1.0-596.0","0","0","92678","","null","","","null","66","","","","","","","","","","","","","","","",""
"","ISI","","html-keyboard-response","428","362643","0.0-1.0-597.0","0","0","92678","","null","","","null","66","NaN","","","","","","","","","","","","","","",""
"","S2","","html-keyboard-response","429","362899","0.0-1.0-598.0","0","0","92678","","null","","","null","66","","NaN","","","","","","","","","","","","","",""
"","response","","html-keyboard-response","430","363447","0.0-1.0-599.0-0.0","0","0","92678","","545","","","75","66","","","2","66","training","adjacent","DC","4","3","L.jpg","R.jpg","0","0","1","",""
"","feedback","","html-keyboard-response","431","364461","0.0-1.0-600.0-0.0","0","0","92678","","null","","","null","66","","","","","","","","","","","","","","","",""
"","ITI","","html-keyboard-response","432","365465","0.0-1.0-603.0","0","0","92678","","null","","","null","66","","","","","","","","","","","","","","","NaN",""
"","S1","","html-keyboard-response","433","365720","0.0-1.0-605.0","0","0","92678","","null","","","null","67","","","","","","","","","","","","","","","",""
"","ISI","","html-keyboard-response","434","366731","0.0-1.0-606.0","0","0","92678","","null","","","null","67","NaN","","","","","","","","","","","","","","",""
"","S2","","html-keyboard-response","435","366986","0.0-1.0-607.0","0","0","92678","","null","","","null","67","","NaN","","","","","","","","","","","","","",""
"","response","","html-keyboard-response","436","367371","0.0-1.0-608.0-0.0","0","0","92678","","383","","","75","67","","","2","67","training","adjacent","DC","4","3","L.jpg","R.jpg","0","0","1","",""
"","feedback","","html-keyboard-response","437","368379","0.0-1.0-609.0-0.0","0","0","92678","","null","","","null","67","","","","","","","","","","","","","","","",""
"","ITI","","html-keyboard-response","438","369384","0.0-1.0-612.0","0","0","92678","","null","","","null","67","","","","","","","","","","","","","","","NaN",""
"","S1","","html-keyboard-response","439","369644","0.0-1.0-614.0","0","0","92678","","null","","","null","68","","","","","","","","","","","","","","","",""
"","ISI","","html-keyboard-response","440","370649","0.0-1.0-615.0","0","0","92678","","null","","","null","68","NaN","","","","","","","","","","","","","","",""
"","S2","","html-keyboard-response","441","370905","0.0-1.0-616.0","0","0","92678","","null","","","null","68","","NaN","","","","","","","","","","","","","",""
"","response","","html-keyboard-response","442","371267","0.0-1.0-617.0-0.0","0","0","92678","","361","","","75","68","","","2","68","training","adjacent","ED","5","4","O.jpg","L.jpg","0","0","1","",""
"","feedback","","html-keyboard-response","443","372275","0.0-1.0-618.0-0.0","0","0","92678","","null","","","null","68","","","","","","","","","","","","","","","",""
"","ITI","","html-keyboard-response","444","373285","0.0-1.0-621.0","0","0","92678","","null","","","null","68","","","","","","","","","","","","","","","NaN",""
"","S1","","html-keyboard-response","445","373546","0.0-1.0-623.0","0","0","92678","","null","","","null","69","","","","","","","","","","","","","","","",""
"","ISI","","html-keyboard-response","446","374556","0.0-1.0-624.0","0","0","92678","","null","","","null","69","NaN","","","","","","","","","","","","","","",""
"","S2","","html-keyboard-response","447","374817","0.0-1.0-625.0","0","0","92678","","null","","","null","69","","NaN","","","","","","","","","","","","","",""
"","response","","html-keyboard-response","448","375016","0.0-1.0-626.0-0.0","0","0","92678","","196","","","68","69","","","2","69","training","adjacent","BC","2","3","M.jpg","R.jpg","1","1","1","",""
"","feedback","","html-keyboard-response","449","376025","0.0-1.0-627.0-0.0","0","0","92678","","null","","","null","69","","","","","","","","","","","","","","","",""
"","ITI","","html-keyboard-response","450","377035","0.0-1.0-630.0","0","0","92678","","null","","","null","69","","","","","","","","","","","","","","","NaN",""
"","S1","","html-keyboard-response","451","377290","0.0-1.0-632.0","0","0","92678","","null","","","null","70","","","","","","","","","","","","","","","",""
"","ISI","","html-keyboard-response","452","378301","0.0-1.0-633.0","0","0","92678","","null","","","null","70","NaN","","","","","","","","","","","","","","",""
"","S2","","html-keyboard-response","453","378562","0.0-1.0-634.0","0","0","92678","","null","","","null","70","","NaN","","","","","","","","","","","","","",""
"","response","","html-keyboard-response","454","379254","0.0-1.0-635.0-0.0","0","0","92678","","690","","","68","70","","","2","70","training","adjacent","EF","5","6","O.jpg","Q.jpg","1","1","1","",""
"","feedback","","html-keyboard-response","455","380268","0.0-1.0-636.0-0.0","0","0","92678","","null","","","null","70","","","","","","","","","","","","","","","",""
"","ITI","","html-keyboard-response","456","381273","0.0-1.0-639.0","0","0","92678","","null","","","null","70","","","","","","","","","","","","","","","NaN",""
"","S1","","html-keyboard-response","457","381528","0.0-1.0-641.0","0","0","92678","","null","","","null","71","","","","","","","","","","","","","","","",""
"","ISI","","html-keyboard-response","458","382537","0.0-1.0-642.0","0","0","92678","","null","","","null","71","NaN","","","","","","","","","","","","","","",""
"","S2","","html-keyboard-response","459","382793","0.0-1.0-643.0","0","0","92678","","null","","","null","71","","NaN","","","","","","","","","","","","","",""
"","response","","html-keyboard-response","460","383243","0.0-1.0-644.0-0.0","0","0","92678","","448","","","68","71","","","2","71","training","adjacent","DE","4","5","L.jpg","O.jpg","1","1","1","",""
"","feedback","","html-keyboard-response","461","384251","0.0-1.0-645.0-0.0","0","0","92678","","null","","","null","71","","","","","","","","","","","","","","","",""
"","ITI","","html-keyboard-response","462","385261","0.0-1.0-648.0","0","0","92678","","null","","","null","71","","","","","","","","","","","","","","","NaN",""
"","S1","","html-keyboard-response","463","385523","0.0-1.0-650.0","0","0","92678","","null","","","null","72","","","","","","","","","","","","","","","",""
"","ISI","","html-keyboard-response","464","386532","0.0-1.0-651.0","0","0","92678","","null","","","null","72","NaN","","","","","","","","","","","","","","",""
"","S2","","html-keyboard-response","465","386793","0.0-1.0-652.0","0","0","92678","","null","","","null","72","","NaN","","","","","","","","","","","","","",""
"","response","","html-keyboard-response","466","387004","0.0-1.0-653.0-0.0","0","0","92678","","209","","","68","72","","","2","72","training","adjacent","BA","2","1","M.jpg","N.jpg","1","0","0","",""
"","feedback","","html-keyboard-response","467","388012","0.0-1.0-654.0-0.0","0","0","92678","","null","","","null","72","","","","","","","","","","","","","","","",""
"","time_out","","html-keyboard-response","468","390021","0.0-1.0-656.0-0.0","0","0","92678","","null","","","null","72","","","","","","","","","","","","","","","",""
"","ITI","","html-keyboard-response","469","391025","0.0-1.0-657.0","0","0","92678","","null","","","null","72","","","","","","","","","","","","","","","NaN",""
"","S1","","html-keyboard-response","470","391281","0.0-1.0-659.0","0","0","92678","","null","","","null","73","","","","","","","","","","","","","","","",""
"","ISI","","html-keyboard-response","471","392291","0.0-1.0-660.0","0","0","92678","","null","","","null","73","NaN","","","","","","","","","","","","","","",""
"","S2","","html-keyboard-response","472","392546","0.0-1.0-661.0","0","0","92678","","null","","","null","73","","NaN","","","","","","","","","","","","","",""
"","response","","html-keyboard-response","473","393014","0.0-1.0-662.0-0.0","0","0","92678","","466","","","75","73","","","2","73","training","adjacent","DC","4","3","L.jpg","R.jpg","0","0","1","",""
"","feedback","","html-keyboard-response","474","394026","0.0-1.0-663.0-0.0","0","0","92678","","null","","","null","73","","","","","","","","","","","","","","","",""
"","ITI","","html-keyboard-response","475","395037","0.0-1.0-666.0","0","0","92678","","null","","","null","73","","","","","","","","","","","","","","","NaN",""
"","S1","","html-keyboard-response","476","395297","0.0-1.0-668.0","0","0","92678","","null","","","null","74","","","","","","","","","","","","","","","",""
"","ISI","","html-keyboard-response","477","396308","0.0-1.0-669.0","0","0","92678","","null","","","null","74","NaN","","","","","","","","","","","","","","",""
"","S2","","html-keyboard-response","478","396569","0.0-1.0-670.0","0","0","92678","","null","","","null","74","","NaN","","","","","","","","","","","","","",""
"","response","","html-keyboard-response","479","397072","0.0-1.0-671.0-0.0","0","0","92678","","500","","","75","74","","","2","74","training","adjacent","EF","5","6","O.jpg","Q.jpg","0","1","0","",""
"","feedback","","html-keyboard-response","480","398084","0.0-1.0-672.0-0.0","0","0","92678","","null","","","null","74","","","","","","","","","","","","","","","",""
"","time_out","","html-keyboard-response","481","400093","0.0-1.0-674.0-0.0","0","0","92678","","null","","","null","74","","","","","","","","","","","","","","","",""
"","ITI","","html-keyboard-response","482","401097","0.0-1.0-675.0","0","0","92678","","null","","","null","74","","","","","","","","","","","","","","","NaN",""
"","S1","","html-keyboard-response","483","401353","0.0-1.0-677.0","0","0","92678","","null","","","null","75","","","","","","","","","","","","","","","",""
"","ISI","","html-keyboard-response","484","402363","0.0-1.0-678.0","0","0","92678","","null","","","null","75","NaN","","","","","","","","","","","","","","",""
"","S2","","html-keyboard-response","485","402618","0.0-1.0-679.0","0","0","92678","","null","","","null","75","","NaN","","","","","","","","","","","","","",""
"","response","","html-keyboard-response","486","402687","0.0-1.0-680.0-0.0","0","0","92678","","66","","","68","75","","","2","75","training","adjacent","AB","1","2","N.jpg","M.jpg","1","1","1","",""
"","feedback","","html-keyboard-response","487","403698","0.0-1.0-681.0-0.0","0","0","92678","","null","","","null","75","","","","","","","","","","","","","","","",""
"","ITI","","html-keyboard-response","488","404708","0.0-1.0-684.0","0","0","92678","","null","","","null","75","","","","","","","","","","","","","","","NaN",""
"","S1","","html-keyboard-response","489","404963","0.0-1.0-686.0","0","0","92678","","null","","","null","76","","","","","","","","","","","","","","","",""
"","ISI","","html-keyboard-response","490","405974","0.0-1.0-687.0","0","0","92678","","null","","","null","76","NaN","","","","","","","","","","","","","","",""
"","S2","","html-keyboard-response","491","406235","0.0-1.0-688.0","0","0","92678","","null","","","null","76","","NaN","","","","","","","","","","","","","",""
"","response","","html-keyboard-response","492","406661","0.0-1.0-689.0-0.0","0","0","92678","","424","","","68","76","","","2","76","training","adjacent","FG","6","7","Q.jpg","P.jpg","1","1","1","",""
"","feedback","","html-keyboard-response","493","407669","0.0-1.0-690.0-0.0","0","0","92678","","null","","","null","76","","","","","","","","","","","","","","","",""
"","ITI","","html-keyboard-response","494","408673","0.0-1.0-693.0","0","0","92678","","null","","","null","76","","","","","","","","","","","","","","","NaN",""
"","S1","","html-keyboard-response","495","408934","0.0-1.0-695.0","0","0","92678","","null","","","null","77","","","","","","","","","","","","","","","",""
"","ISI","","html-keyboard-response","496","409939","0.0-1.0-696.0","0","0","92678","","null","","","null","77","NaN","","","","","","","","","","","","","","",""
"","S2","","html-keyboard-response","497","410194","0.0-1.0-697.0","0","0","92678","","null","","","null","77","","NaN","","","","","","","","","","","","","",""
"","response","","html-keyboard-response","498","410290","0.0-1.0-698.0-0.0","0","0","92678","","93","","","75","77","","","2","77","training","adjacent","GF","7","6","P.jpg","Q.jpg","0","0","1","",""
"","feedback","","html-keyboard-response","499","411297","0.0-1.0-699.0-0.0","0","0","92678","","null","","","null","77","","","","","","","","","","","","","","","",""
"","ITI","","html-keyboard-response","500","412307","0.0-1.0-702.0","0","0","92678","","null","","","null","77","","","","","","","","","","","","","","","NaN",""
"","S1","","html-keyboard-response","501","412562","0.0-1.0-704.0","0","0","92678","","null","","","null","78","","","","","","","","","","","","","","","",""
"","ISI","","html-keyboard-response","502","413573","0.0-1.0-705.0","0","0","92678","","null","","","null","78","NaN","","","","","","","","","","","","","","",""
"","S2","","html-keyboard-response","503","413834","0.0-1.0-706.0","0","0","92678","","null","","","null","78","","NaN","","","","","","","","","","","","","",""
"","response","","html-keyboard-response","504","413942","0.0-1.0-707.0-0.0","0","0","92678","","107","","","68","78","","","2","78","training","adjacent","BC","2","3","M.jpg","R.jpg","1","1","1","",""
"","feedback","","html-keyboard-response","505","414954","0.0-1.0-708.0-0.0","0","0","92678","","null","","","null","78","","","","","","","","","","","","","","","",""
"","ITI","","html-keyboard-response","506","415964","0.0-1.0-711.0","0","0","92678","","null","","","null","78","","","","","","","","","","","","","","","NaN",""
"","S1","","html-keyboard-response","507","416219","0.0-1.0-713.0","0","0","92678","","null","","","null","79","","","","","","","","","","","","","","","",""
"","ISI","","html-keyboard-response","508","417230","0.0-1.0-714.0","0","0","92678","","null","","","null","79","NaN","","","","","","","","","","","","","","",""
"","S2","","html-keyboard-response","509","417491","0.0-1.0-715.0","0","0","92678","","null","","","null","79","","NaN","","","","","","","","","","","","","",""
"","response","","html-keyboard-response","510","417884","0.0-1.0-716.0-0.0","0","0","92678","","391","","","68","79","","","2","79","training","adjacent","DE","4","5","L.jpg","O.jpg","1","1","1","",""
"","feedback","","html-keyboard-response","511","418890","0.0-1.0-717.0-0.0","0","0","92678","","null","","","null","79","","","","","","","","","","","","","","","",""
"","ITI","","html-keyboard-response","512","419900","0.0-1.0-720.0","0","0","92678","","null","","","null","79","","","","","","","","","","","","","","","NaN",""
"","S1","","html-keyboard-response","513","420156","0.0-1.0-722.0","0","0","92678","","null","","","null","80","","","","","","","","","","","","","","","",""
"","ISI","","html-keyboard-response","514","421166","0.0-1.0-723.0","0","0","92678","","null","","","null","80","NaN","","","","","","","","","","","","","","",""
"","S2","","html-keyboard-response","515","421427","0.0-1.0-724.0","0","0","92678","","null","","","null","80","","NaN","","","","","","","","","","","","","",""
"","response","","html-keyboard-response","516","421747","0.0-1.0-725.0-0.0","0","0","92678","","319","","","75","80","","","2","80","training","adjacent","EF","5","6","O.jpg","Q.jpg","0","1","0","",""
"","feedback","","html-keyboard-response","517","422756","0.0-1.0-726.0-0.0","0","0","92678","","null","","","null","80","","","","","","","","","","","","","","","",""
"","time_out","","html-keyboard-response","518","424765","0.0-1.0-728.0-0.0","0","0","92678","","null","","","null","80","","","","","","","","","","","","","","","",""
"","ITI","","html-keyboard-response","519","425771","0.0-1.0-729.0","0","0","92678","","null","","","null","80","","","","","","","","","","","","","","","NaN",""
"","S1","","html-keyboard-response","520","426030","0.0-1.0-731.0","0","0","92678","","null","","","null","81","","","","","","","","","","","","","","","",""
"","ISI","","html-keyboard-response","521","427035","0.0-1.0-732.0","0","0","92678","","null","","","null","81","NaN","","","","","","","","","","","","","","",""
"","S2","","html-keyboard-response","522","427290","0.0-1.0-733.0","0","0","92678","","null","","","null","81","","NaN","","","","","","","","","","","","","",""
"","response","","html-keyboard-response","523","427529","0.0-1.0-734.0-0.0","0","0","92678","","236","","","68","81","","","2","81","training","adjacent","CD","3","4","R.jpg","L.jpg","1","1","1","",""
"","feedback","","html-keyboard-response","524","428538","0.0-1.0-735.0-0.0","0","0","92678","","null","","","null","81","","","","","","","","","","","","","","","",""
"","ITI","","html-keyboard-response","525","429548","0.0-1.0-738.0","0","0","92678","","null","","","null","81","","","","","","","","","","","","","","","NaN",""
"","S1","","html-keyboard-response","526","429803","0.0-1.0-740.0","0","0","92678","","null","","","null","82","","","","","","","","","","","","","","","",""
"","ISI","","html-keyboard-response","527","430814","0.0-1.0-741.0","0","0","92678","","null","","","null","82","NaN","","","","","","","","","","","","","","",""
"","S2","","html-keyboard-response","528","431075","0.0-1.0-742.0","0","0","92678","","null","","","null","82","","NaN","","","","","","","","","","","","","",""
"","response","","html-keyboard-response","529","431314","0.0-1.0-743.0-0.0","0","0","92678","","236","","","75","82","","","2","82","training","adjacent","EF","5","6","O.jpg","Q.jpg","0","1","0","",""
"","feedback","","html-keyboard-response","530","432323","0.0-1.0-744.0-0.0","0","0","92678","","null","","","null","82","","","","","","","","","","","","","","","",""
"","time_out","","html-keyboard-response","531","434332","0.0-1.0-746.0-0.0","0","0","92678","","null","","","null","82","","","","","","","","","","","","","","","",""
"","ITI","","html-keyboard-response","532","435342","0.0-1.0-747.0","0","0","92678","","null","","","null","82","","","","","","","","","","","","","","","NaN",""
"","S1","","html-keyboard-response","533","435603","0.0-1.0-749.0","0","0","92678","","null","","","null","83","","","","","","","","","","","","","","","",""
"","ISI","","html-keyboard-response","534","436613","0.0-1.0-750.0","0","0","92678","","null","","","null","83","NaN","","","","","","","","","","","","","","",""
"","S2","","html-keyboard-response","535","436874","0.0-1.0-751.0","0","0","92678","","null","","","null","83","","NaN","","","","","","","","","","","","","",""
"","response","","html-keyboard-response","536","437080","0.0-1.0-752.0-0.0","0","0","92678","","203","","","68","83","","","2","83","training","adjacent","BC","2","3","M.jpg","R.jpg","1","1","1","",""
"","feedback","","html-keyboard-response","537","438093","0.0-1.0-753.0-0.0","0","0","92678","","null","","","null","83","","","","","","","","","","","","","","","",""
"","ITI","","html-keyboard-response","538","439098","0.0-1.0-756.0","0","0","92678","","null","","","null","83","","","","","","","","","","","","","","","NaN",""
"","S1","","html-keyboard-response","539","439359","0.0-1.0-758.0","0","0","92678","","null","","","null","84","","","","","","","","","","","","","","","",""
"","ISI","","html-keyboard-response","540","440363","0.0-1.0-759.0","0","0","92678","","null","","","null","84","NaN","","","","","","","","","","","","","","",""
"","S2","","html-keyboard-response","541","440619","0.0-1.0-760.0","0","0","92678","","null","","","null","84","","NaN","","","","","","","","","","","","","",""
"","response","","html-keyboard-response","542","441030","0.0-1.0-761.0-0.0","0","0","92678","","409","","","75","84","","","2","84","training","adjacent","BA","2","1","M.jpg","N.jpg","0","0","1","",""
"","feedback","","html-keyboard-response","543","442035","0.0-1.0-762.0-0.0","0","0","92678","","null","","","null","84","","","","","","","","","","","","","","","",""
"","ITI","","html-keyboard-response","544","443045","0.0-1.0-765.0","0","0","92678","","null","","","null","84","","","","","","","","","","","","","","","NaN",""
"","S1","","html-keyboard-response","545","443301","0.0-1.0-767.0","0","0","92678","","null","","","null","85","","","","","","","","","","","","","","","",""
"","ISI","","html-keyboard-response","546","444311","0.0-1.0-768.0","0","0","92678","","null","","","null","85","NaN","","","","","","","","","","","","","","",""
"","S2","","html-keyboard-response","547","444572","0.0-1.0-769.0","0","0","92678","","null","","","null","85","","NaN","","","","","","","","","","","","","",""
"","response","","html-keyboard-response","548","445334","0.0-1.0-770.0-0.0","0","0","92678","","760","","","75","85","","","2","85","training","adjacent","FE","6","5","Q.jpg","O.jpg","0","0","1","",""
"","feedback","","html-keyboard-response","549","446343","0.0-1.0-771.0-0.0","0","0","92678","","null","","","null","85","","","","","","","","","","","","","","","",""
"","ITI","","html-keyboard-response","550","447347","0.0-1.0-774.0","0","0","92678","","null","","","null","85","","","","","","","","","","","","","","","NaN",""
"","S1","","html-keyboard-response","551","447602","0.0-1.0-776.0","0","0","92678","","null","","","null","86","","","","","","","","","","","","","","","",""
"","ISI","","html-keyboard-response","552","448612","0.0-1.0-777.0","0","0","92678","","null","","","null","86","NaN","","","","","","","","","","","","","","",""
"","S2","","html-keyboard-response","553","448868","0.0-1.0-778.0","0","0","92678","","null","","","null","86","","NaN","","","","","","","","","","","","","",""
"","response","","html-keyboard-response","554","449278","0.0-1.0-779.0-0.0","0","0","92678","","407","","","75","86","","","2","86","training","adjacent","CB","3","2","R.jpg","M.jpg","0","0","1","",""
"","feedback","","html-keyboard-response","555","450284","0.0-1.0-780.0-0.0","0","0","92678","","null","","","null","86","","","","","","","","","","","","","","","",""
"","ITI","","html-keyboard-response","556","451294","0.0-1.0-783.0","0","0","92678","","null","","","null","86","","","","","","","","","","","","","","","NaN",""
"","S1","","html-keyboard-response","557","451556","0.0-1.0-785.0","0","0","92678","","null","","","null","87","","","","","","","","","","","","","","","",""
"","ISI","","html-keyboard-response","558","452566","0.0-1.0-786.0","0","0","92678","","null","","","null","87","NaN","","","","","","","","","","","","","","",""
"","S2","","html-keyboard-response","559","452830","0.0-1.0-787.0","0","0","92678","","null","","","null","87","","NaN","","","","","","","","","","","","","",""
"","response","","html-keyboard-response","560","453418","0.0-1.0-788.0-0.0","0","0","92678","","586","","","75","87","","","2","87","training","adjacent","ED","5","4","O.jpg","L.jpg","0","0","1","",""
"","feedback","","html-keyboard-response","561","454429","0.0-1.0-789.0-0.0","0","0","92678","","null","","","null","87","","","","","","","","","","","","","","","",""
"","ITI","","html-keyboard-response","562","455439","0.0-1.0-792.0","0","0","92678","","null","","","null","87","","","","","","","","","","","","","","","NaN",""
"","S1","","html-keyboard-response","563","455701","0.0-1.0-794.0","0","0","92678","","null","","","null","88","","","","","","","","","","","","","","","",""
"","ISI","","html-keyboard-response","564","456711","0.0-1.0-795.0","0","0","92678","","null","","","null","88","NaN","","","","","","","","","","","","","","",""
"","S2","","html-keyboard-response","565","456972","0.0-1.0-796.0","0","0","92678","","null","","","null","88","","NaN","","","","","","","","","","","","","",""
"","response","","html-keyboard-response","566","457228","0.0-1.0-797.0-0.0","0","0","92678","","254","","","75","88","","","2","88","training","adjacent","CB","3","2","R.jpg","M.jpg","0","0","1","",""
"","feedback","","html-keyboard-response","567","458237","0.0-1.0-798.0-0.0","0","0","92678","","null","","","null","88","","","","","","","","","","","","","","","",""
"","ITI","","html-keyboard-response","568","459243","0.0-1.0-801.0","0","0","92678","","null","","","null","88","","","","","","","","","","","","","","","NaN",""
"","S1","","html-keyboard-response","569","459503","0.0-1.0-803.0","0","0","92678","","null","","","null","89","","","","","","","","","","","","","","","",""
"","ISI","","html-keyboard-response","570","460509","0.0-1.0-804.0","0","0","92678","","null","","","null","89","NaN","","","","","","","","","","","","","","",""
"","S2","","html-keyboard-response","571","460763","0.0-1.0-805.0","0","0","92678","","null","","","null","89","","NaN","","","","","","","","","","","","","",""
"","response","","html-keyboard-response","572","461702","0.0-1.0-806.0-0.0","0","0","92678","","937","","","75","89","","","2","89","training","adjacent","FE","6","5","Q.jpg","O.jpg","0","0","1","",""
"","feedback","","html-keyboard-response","573","462706","0.0-1.0-807.0-0.0","0","0","92678","","null","","","null","89","","","","","","","","","","","","","","","",""
"","ITI","","html-keyboard-response","574","463717","0.0-1.0-810.0","0","0","92678","","null","","","null","89","","","","","","","","","","","","","","","NaN",""
"","S1","","html-keyboard-response","575","463973","0.0-1.0-812.0","0","0","92678","","null","","","null","90","","","","","","","","","","","","","","","",""
"","ISI","","html-keyboard-response","576","464983","0.0-1.0-813.0","0","0","92678","","null","","","null","90","NaN","","","","","","","","","","","","","","",""
"","S2","","html-keyboard-response","577","465244","0.0-1.0-814.0","0","0","92678","","null","","","null","90","","NaN","","","","","","","","","","","","","",""
"","response","","html-keyboard-response","578","465287","0.0-1.0-815.0-0.0","0","0","92678","","40","","","75","90","","","2","90","training","adjacent","GF","7","6","P.jpg","Q.jpg","0","0","1","",""
"","feedback","","html-keyboard-response","579","466295","0.0-1.0-816.0-0.0","0","0","92678","","null","","","null","90","","","","","","","","","","","","","","","",""
"","ITI","","html-keyboard-response","580","467299","0.0-1.0-819.0","0","0","92678","","null","","","null","90","","","","","","","","","","","","","","","NaN",""
"","S1","","html-keyboard-response","581","467555","0.0-1.0-821.0","0","0","92678","","null","","","null","91","","","","","","","","","","","","","","","",""
"","ISI","","html-keyboard-response","582","468565","0.0-1.0-822.0","0","0","92678","","null","","","null","91","NaN","","","","","","","","","","","","","","",""
"","S2","","html-keyboard-response","583","468820","0.0-1.0-823.0","0","0","92678","","null","","","null","91","","NaN","","","","","","","","","","","","","",""
