"success","ttype","start_time","trial_type","trial_index","time_elapsed","internal_node_id","warning","missed_checkup","PID","view_history","rt","responses","repeat_instructions","key_press","index","keypress_isi","keypress_S2","block","trial_num","phase","group_type","pair_type","S1_stim","S2_stim","S1_img","S2_img","S1_chosen","S1_higher","accuracy","keypress_iti","total_bonus_tally"
"true","full_screen","d04062023hr2356","fullscreen","0","9663","0.0-0.0","0","0","27687","","","","","","","","","","","","","","","","","","","","","",""
"","instructions","","instructions","1","29749","0.0-1.0-0.0-0.0","0","0","27687","[{""page_index"":0,""viewing_time"":2598},{""page_index"":1,""viewing_time"":10000},{""page_index"":2,""viewing_time"":6050},{""page_index"":3,""viewing_time"":1433}]","20082","","","","","","","","","","","","","","","","","","","",""
"","comprehension_check","","survey-multi-choice","2","42584","0.0-1.0-0.0-1.0","0","0","27687","","12827","{""Q0"":""True"",""Q1"":""D"",""Q2"":""Only when the screen 'MAKE A CHOICE' is shown"",""Q3"":""Green mark"",""Q4"":""either D or K""}","1","","","","","","","","","","","","","","","","","",""
"","missed_instruction_checkup","","html-keyboard-response","3","44134","0.0-1.0-0.0-2.0-0.0","0","1","27687","","1547","","","32","","","","","","","","","","","","","","","","",""
"","instructions","","instructions","4","58699","0.0-1.0-0.1-0.1","0","0","27687","[{""page_index"":0,""viewing_time"":1694},{""page_index"":1,""viewing_time"":10466},{""page_index"":2,""viewing_time"":1184},{""page_index"":3,""viewing_time"":1216}]","14561","","","","","","","","","","","","","","","","","","","",""
"","comprehension_check","","survey-multi-choice","5","72100","0.0-1.0-0.1-1.1","0","0","27687","","13393","{""Q0"":""True"",""Q1"":""D"",""Q2"":""Once the second image appears and while the screen 'MAKE A CHOICE' is shown"",""Q3"":""Green mark"",""Q4"":""either D or K""}","1","","","","","","","","","","","","","","","","","",""
"","missed_instruction_checkup","","html-keyboard-response","6","73311","0.0-1.0-0.1-2.1-0.1","0","1","27687","","1207","","","32","","","","","","","","","","","","","","","","",""
"","instructions","","instructions","7","82849","0.0-1.0-0.2-0.2","0","0","27687","[{""page_index"":0,""viewing_time"":1950},{""page_index"":1,""viewing_time"":3068},{""page_index"":2,""viewing_time"":2916},{""page_index"":3,""viewing_time"":1600}]","9535","","","","","","","","","","","","","","","","","","","",""
"","comprehension_check","","survey-multi-choice","8","99600","0.0-1.0-0.2-1.2","0","0","27687","","16743","{""Q0"":""True"",""Q1"":""K"",""Q2"":""Once the second image appears and while the screen 'MAKE A CHOICE' is shown"",""Q3"":""Green mark"",""Q4"":""either D or K""}","0","","","","","","","","","","","","","","","","","",""
"","start_exp","","html-keyboard-response","9","100701","0.0-1.0-1.0","0","0","27687","","1096","","","32","","","","","","","","","","","","","","","","",""
"","S1","","html-keyboard-response","10","100863","0.0-1.0-2.0","0","0","27687","","null","","","null","0","","","","","","","","","","","","","","","",""
"","ISI","","html-keyboard-response","11","102874","0.0-1.0-3.0","0","0","27687","","null","","","null","0","NaN","","","","","","","","","","","","","","",""
"","S2","","html-keyboard-response","12","103033","0.0-1.0-4.0","0","0","27687","","null","","","null","0","","NaN","","","","","","","","","","","","","",""
"","response","","html-keyboard-response","13","103683","0.0-1.0-5.0-0.0","0","0","27687","","645","","","75","0","","","1","0","training","adjacent","ED","5","4","N.jpg","P.jpg","1","0","0","",""
"","feedback","","html-keyboard-response","14","104695","0.0-1.0-6.0-0.0","0","0","27687","","null","","","null","0","","","","","","","","","","","","","","","",""
"","time_out","","html-keyboard-response","15","106703","0.0-1.0-8.0-0.0","0","0","27687","","null","","","null","0","","","","","","","","","","","","","","","",""
"","ITI","","html-keyboard-response","16","107711","0.0-1.0-9.0","0","0","27687","","null","","","null","0","","","","","","","","","","","","","","","NaN",""
"","S1","","html-keyboard-response","17","107871","0.0-1.0-11.0","0","0","27687","","null","","","null","1","","","","","","","","","","","","","","","",""
"","ISI","","html-keyboard-response","18","109882","0.0-1.0-12.0","0","0","27687","","null","","","null","1","NaN","","","","","","","","","","","","","","",""
"","S2","","html-keyboard-response","19","110042","0.0-1.0-13.0","0","0","27687","","null","","","null","1","","NaN","","","","","","","","","","","","","",""
"","response","","html-keyboard-response","20","110226","0.0-1.0-14.0-0.0","0","0","27687","","180","","","68","1","","","1","1","training","adjacent","DE","4","5","P.jpg","N.jpg","0","1","0","",""
"","feedback","","html-keyboard-response","21","111242","0.0-1.0-15.0-0.0","0","0","27687","","null","","","null","1","","","","","","","","","","","","","","","",""
"","time_out","","html-keyboard-response","22","113258","0.0-1.0-17.0-0.0","0","0","27687","","null","","","null","1","","","","","","","","","","","","","","","",""
"","ITI","","html-keyboard-response","23","114271","0.0-1.0-18.0","0","0","27687","","null","","","null","1","","","","","","","","","","","","","","","NaN",""
"","S1","","html-keyboard-response","24","114430","0.0-1.0-20.0","0","0","27687","","null","","","null","2","","","","","","","","","","","","","","","",""
"","ISI","","html-keyboard-response","25","116442","0.0-1.0-21.0","0","0","27687","","229","","","75","2","k","","","","","","","","","","","","","","",""
"","S2","","html-keyboard-response","26","116607","0.0-1.0-22.0","0","0","27687","","null","","","null","2","","NaN","","","","","","","","","","","","","",""
"","response","","html-keyboard-response","27","116732","0.0-1.0-23.0-0.0","0","0","27687","","120","","","75","2","","","1","2","training","adjacent","CD","3","4","R.jpg","P.jpg","1","1","1","",""
"","feedback","","html-keyboard-response","28","117743","0.0-1.0-24.0-0.0","0","0","27687","","null","","","null","2","","","","","","","","","","","","","","","",""
"","ITI","","html-keyboard-response","29","118751","0.0-1.0-27.0","0","0","27687","","null","","","null","2","","","","","","","","","","","","","","","NaN",""
"","S1","","html-keyboard-response","30","118911","0.0-1.0-29.0","0","0","27687","","null","","","null","3","","","","","","","","","","","","","","","",""
"","ISI","","html-keyboard-response","31","120922","0.0-1.0-30.0","0","0","27687","","null","","","null","3","NaN","","","","","","","","","","","","","","",""
"","S2","","html-keyboard-response","32","121082","0.0-1.0-31.0","0","0","27687","","null","","","null","3","","NaN","","","","","","","","","","","","","",""
"","response","","html-keyboard-response","33","121651","0.0-1.0-32.0-0.0","0","0","27687","","564","","","68","3","","","1","3","training","adjacent","AB","1","2","L.jpg","M.jpg","0","1","0","",""
"","feedback","","html-keyboard-response","34","122665","0.0-1.0-33.0-0.0","0","0","27687","","null","","","null","3","","","","","","","","","","","","","","","",""
"","time_out","","html-keyboard-response","35","124681","0.0-1.0-35.0-0.0","0","0","27687","","null","","","null","3","","","","","","","","","","","","","","","",""
"","ITI","","html-keyboard-response","36","125694","0.0-1.0-36.0","0","0","27687","","null","","","null","3","","","","","","","","","","","","","","","NaN",""
"","S1","","html-keyboard-response","37","125855","0.0-1.0-38.0","0","0","27687","","null","","","null","4","","","","","","","","","","","","","","","",""
"","ISI","","html-keyboard-response","38","127865","0.0-1.0-39.0","0","0","27687","","null","","","null","4","NaN","","","","","","","","","","","","","","",""
"","S2","","html-keyboard-response","39","128025","0.0-1.0-40.0","0","0","27687","","null","","","null","4","","NaN","","","","","","","","","","","","","",""
"","response","","html-keyboard-response","40","128432","0.0-1.0-41.0-0.0","0","0","27687","","402","","","75","4","","","1","4","training","adjacent","DC","4","3","P.jpg","R.jpg","1","0","0","",""
"","feedback","","html-keyboard-response","41","129439","0.0-1.0-42.0-0.0","0","0","27687","","null","","","null","4","","","","","","","","","","","","","","","",""
"","time_out","","html-keyboard-response","42","131449","0.0-1.0-44.0-0.0","0","0","27687","","null","","","null","4","","","","","","","","","","","","","","","",""
"","ITI","","html-keyboard-response","43","132462","0.0-1.0-45.0","0","0","27687","","null","","","null","4","","","","","","","","","","","","","","","NaN",""
"","S1","","html-keyboard-response","44","132622","0.0-1.0-47.0","0","0","27687","","null","","","null","5","","","","","","","","","","","","","","","",""
"","ISI","","html-keyboard-response","45","134633","0.0-1.0-48.0","0","0","27687","","null","","","null","5","NaN","","","","","","","","","","","","","","",""
"","S2","","html-keyboard-response","46","134790","0.0-1.0-49.0","0","0","27687","","null","","","null","5","","NaN","","","","","","","","","","","","","",""
"","response","","html-keyboard-response","47","135077","0.0-1.0-50.0-0.0","0","0","27687","","283","","","68","5","","","1","5","training","adjacent","DE","4","5","P.jpg","N.jpg","0","1","0","",""
"","feedback","","html-keyboard-response","48","136087","0.0-1.0-51.0-0.0","0","0","27687","","null","","","null","5","","","","","","","","","","","","","","","",""
"","time_out","","html-keyboard-response","49","138094","0.0-1.0-53.0-0.0","0","0","27687","","null","","","null","5","","","","","","","","","","","","","","","",""
"","ITI","","html-keyboard-response","50","139102","0.0-1.0-54.0","0","0","27687","","null","","","null","5","","","","","","","","","","","","","","","NaN",""
"","S1","","html-keyboard-response","51","139262","0.0-1.0-56.0","0","0","27687","","null","","","null","6","","","","","","","","","","","","","","","",""
"","ISI","","html-keyboard-response","52","141273","0.0-1.0-57.0","0","0","27687","","null","","","null","6","NaN","","","","","","","","","","","","","","",""
"","S2","","html-keyboard-response","53","141433","0.0-1.0-58.0","0","0","27687","","null","","","null","6","","NaN","","","","","","","","","","","","","",""
"","response","","html-keyboard-response","54","142228","0.0-1.0-59.0-0.0","0","0","27687","","790","","","75","6","","","1","6","training","adjacent","BC","2","3","M.jpg","R.jpg","1","1","1","",""
"","feedback","","html-keyboard-response","55","143241","0.0-1.0-60.0-0.0","0","0","27687","","null","","","null","6","","","","","","","","","","","","","","","",""
"","ITI","","html-keyboard-response","56","144254","0.0-1.0-63.0","0","0","27687","","null","","","null","6","","","","","","","","","","","","","","","NaN",""
"","S1","","html-keyboard-response","57","144414","0.0-1.0-65.0","0","0","27687","","null","","","null","7","","","","","","","","","","","","","","","",""
"","ISI","","html-keyboard-response","58","146425","0.0-1.0-66.0","0","0","27687","","null","","","null","7","NaN","","","","","","","","","","","","","","",""
"","S2","","html-keyboard-response","59","146585","0.0-1.0-67.0","0","0","27687","","null","","","null","7","","NaN","","","","","","","","","","","","","",""
"","response","","html-keyboard-response","60","147113","0.0-1.0-68.0-0.0","0","0","27687","","523","","","75","7","","","1","7","training","adjacent","DC","4","3","P.jpg","R.jpg","1","0","0","",""
"","feedback","","html-keyboard-response","61","148126","0.0-1.0-69.0-0.0","0","0","27687","","null","","","null","7","","","","","","","","","","","","","","","",""
"","time_out","","html-keyboard-response","62","150136","0.0-1.0-71.0-0.0","0","0","27687","","null","","","null","7","","","","","","","","","","","","","","","",""
"","ITI","","html-keyboard-response","63","151150","0.0-1.0-72.0","0","0","27687","","null","","","null","7","","","","","","","","","","","","","","","NaN",""
"","S1","","html-keyboard-response","64","151310","0.0-1.0-74.0","0","0","27687","","null","","","null","8","","","","","","","","","","","","","","","",""
"","ISI","","html-keyboard-response","65","153320","0.0-1.0-75.0","0","0","27687","","null","","","null","8","NaN","","","","","","","","","","","","","","",""
"","S2","","html-keyboard-response","66","153480","0.0-1.0-76.0","0","0","27687","","null","","","null","8","","NaN","","","","","","","","","","","","","",""
"","response","","html-keyboard-response","67","153759","0.0-1.0-77.0-0.0","0","0","27687","","274","","","68","8","","","1","8","training","adjacent","ED","5","4","N.jpg","P.jpg","0","0","1","",""
"","feedback","","html-keyboard-response","68","154766","0.0-1.0-78.0-0.0","0","0","27687","","null","","","null","8","","","","","","","","","","","","","","","",""
"","ITI","","html-keyboard-response","69","155775","0.0-1.0-81.0","0","0","27687","","null","","","null","8","","","","","","","","","","","","","","","NaN",""
"","S1","","html-keyboard-response","70","155933","0.0-1.0-83.0","0","0","27687","","null","","","null","9","","","","","","","","","","","","","","","",""
"","ISI","","html-keyboard-response","71","157944","0.0-1.0-84.0","0","0","27687","","null","","","null","9","NaN","","","","","","","","","","","","","","",""
"","S2","","html-keyboard-response","72","158104","0.0-1.0-85.0","0","0","27687","","null","","","null","9","","NaN","","","","","","","","","","","","","",""
"","response","","html-keyboard-response","73","159417","0.0-1.0-86.0-0.0","0","0","27687","","1308","","","75","9","","","1","9","training","adjacent","FE","6","5","O.jpg","N.jpg","1","0","0","",""
"","feedback","","html-keyboard-response","74","160429","0.0-1.0-87.0-0.0","0","0","27687","","null","","","null","9","","","","","","","","","","","","","","","",""
"","time_out","","html-keyboard-response","75","162440","0.0-1.0-89.0-0.0","0","0","27687","","null","","","null","9","","","","","","","","","","","","","","","",""
"","ITI","","html-keyboard-response","76","163453","0.0-1.0-90.0","0","0","27687","","null","","","null","9","","","","","","","","","","","","","","","NaN",""
"","S1","","html-keyboard-response","77","163613","0.0-1.0-92.0","0","0","27687","","null","","","null","10","","","","","","","","","","","","","","","",""
"","ISI","","html-keyboard-response","78","165624","0.0-1.0-93.0","0","0","27687","","null","","","null","10","NaN","","","","","","","","","","","","","","",""
"","S2","","html-keyboard-response","79","165784","0.0-1.0-94.0","0","0","27687","","null","","","null","10","","NaN","","","","","","","","","","","","","",""
"","response","","html-keyboard-response","80","165935","0.0-1.0-95.0-0.0","0","0","27687","","148","","","68","10","","","1","10","training","adjacent","BA","2","1","M.jpg","L.jpg","0","0","1","",""
"","feedback","","html-keyboard-response","81","166952","0.0-1.0-96.0-0.0","0","0","27687","","null","","","null","10","","","","","","","","","","","","","","","",""
"","ITI","","html-keyboard-response","82","167968","0.0-1.0-99.0","0","0","27687","","null","","","null","10","","","","","","","","","","","","","","","NaN",""
"","S1","","html-keyboard-response","83","168125","0.0-1.0-101.0","0","0","27687","","null","","","null","11","","","","","","","","","","","","","","","",""
"","ISI","","html-keyboard-response","84","170136","0.0-1.0-102.0","0","0","27687","","null","","","null","11","NaN","","","","","","","","","","","","","","",""
"","S2","","html-keyboard-response","85","170292","0.0-1.0-103.0","0","0","27687","","null","","","null","11","","NaN","","","","","","","","","","","","","",""
"","response","","html-keyboard-response","86","170627","0.0-1.0-104.0-0.0","0","0","27687","","330","","","68","11","","","1","11","training","adjacent","FG","6","7","O.jpg","Q.jpg","0","1","0","",""
"","feedback","","html-keyboard-response","87","171640","0.0-1.0-105.0-0.0","0","0","27687","","null","","","null","11","","","","","","","","","","","","","","","",""
"","time_out","","html-keyboard-response","88","173655","0.0-1.0-107.0-0.0","0","0","27687","","null","","","null","11","","","","","","","","","","","","","","","",""
"","ITI","","html-keyboard-response","89","174669","0.0-1.0-108.0","0","0","27687","","null","","","null","11","","","","","","","","","","","","","","","NaN",""
"","S1","","html-keyboard-response","90","174829","0.0-1.0-110.0","0","0","27687","","null","","","null","12","","","","","","","","","","","","","","","",""
"","ISI","","html-keyboard-response","91","176839","0.0-1.0-111.0","0","0","27687","","null","","","null","12","NaN","","","","","","","","","","","","","","",""
"","S2","","html-keyboard-response","92","176999","0.0-1.0-112.0","0","0","27687","","null","","","null","12","","NaN","","","","","","","","","","","","","",""
"","response","","html-keyboard-response","93","177229","0.0-1.0-113.0-0.0","0","0","27687","","225","","","75","12","","","1","12","training","adjacent","DE","4","5","P.jpg","N.jpg","1","1","1","",""
"","feedback","","html-keyboard-response","94","178237","0.0-1.0-114.0-0.0","0","0","27687","","null","","","null","12","","","","","","","","","","","","","","","",""
"","ITI","","html-keyboard-response","95","179245","0.0-1.0-117.0","0","0","27687","","null","","","null","12","","","","","","","","","","","","","","","NaN",""
"","S1","","html-keyboard-response","96","179405","0.0-1.0-119.0","0","0","27687","","null","","","null","13","","","","","","","","","","","","","","","",""
"","ISI","","html-keyboard-response","97","181415","0.0-1.0-120.0","0","0","27687","","null","","","null","13","NaN","","","","","","","","","","","","","","",""
"","S2","","html-keyboard-response","98","181575","0.0-1.0-121.0","0","0","27687","","null","","","null","13","","NaN","","","","","","","","","","","","","",""
"","response","","html-keyboard-response","99","181721","0.0-1.0-122.0-0.0","0","0","27687","","141","","","68","13","","","1","13","training","adjacent","CB","3","2","R.jpg","M.jpg","0","0","1","",""
"","feedback","","html-keyboard-response","100","182733","0.0-1.0-123.0-0.0","0","0","27687","","null","","","null","13","","","","","","","","","","","","","","","",""
"","ITI","","html-keyboard-response","101","183740","0.0-1.0-126.0","0","0","27687","","null","","","null","13","","","","","","","","","","","","","","","NaN",""
"","S1","","html-keyboard-response","102","183901","0.0-1.0-128.0","0","0","27687","","null","","","null","14","","","","","","","","","","","","","","","",""
"","ISI","","html-keyboard-response","103","185911","0.0-1.0-129.0","0","0","27687","","null","","","null","14","NaN","","","","","","","","","","","","","","",""
"","S2","","html-keyboard-response","104","186071","0.0-1.0-130.0","0","0","27687","","null","","","null","14","","NaN","","","","","","","","","","","","","",""
"","response","","html-keyboard-response","105","186321","0.0-1.0-131.0-0.0","0","0","27687","","245","","","75","14","","","1","14","training","adjacent","AB","1","2","L.jpg","M.jpg","1","1","1","",""
"","feedback","","html-keyboard-response","106","187335","0.0-1.0-132.0-0.0","0","0","27687","","null","","","null","14","","","","","","","","","","","","","","","",""
"","ITI","","html-keyboard-response","107","188348","0.0-1.0-135.0","0","0","27687","","null","","","null","14","","","","","","","","","","","","","","","NaN",""
"","S1","","html-keyboard-response","108","188509","0.0-1.0-137.0","0","0","27687","","null","","","null","15","","","","","","","","","","","","","","","",""
"","ISI","","html-keyboard-response","109","190519","0.0-1.0-138.0","0","0","27687","","null","","","null","15","NaN","","","","","","","","","","","","","","",""
"","S2","","html-keyboard-response","110","190679","0.0-1.0-139.0","0","0","27687","","null","","","null","15","","NaN","","","","","","","","","","","","","",""
"","response","","html-keyboard-response","111","190823","0.0-1.0-140.0-0.0","0","0","27687","","139","","","68","15","","","1","15","training","adjacent","GF","7","6","Q.jpg","O.jpg","0","0","1","",""
"","feedback","","html-keyboard-response","112","191836","0.0-1.0-141.0-0.0","0","0","27687","","null","","","null","15","","","","","","","","","","","","","","","",""
"","ITI","","html-keyboard-response","113","192844","0.0-1.0-144.0","0","0","27687","","941","","","68","15","","","","","","","","","","","","","","","d",""
"","S1","","html-keyboard-response","114","193004","0.0-1.0-146.0","0","0","27687","","null","","","null","16","","","","","","","","","","","","","","","",""
"","ISI","","html-keyboard-response","115","195015","0.0-1.0-147.0","0","0","27687","","null","","","null","16","NaN","","","","","","","","","","","","","","",""
"","S2","","html-keyboard-response","116","195174","0.0-1.0-148.0","0","0","27687","","null","","","null","16","","NaN","","","","","","","","","","","","","",""
"","response","","html-keyboard-response","117","195357","0.0-1.0-149.0-0.0","0","0","27687","","178","","","75","16","","","1","16","training","adjacent","FG","6","7","O.jpg","Q.jpg","1","1","1","",""
"","feedback","","html-keyboard-response","118","196364","0.0-1.0-150.0-0.0","0","0","27687","","null","","","null","16","","","","","","","","","","","","","","","",""
"","ITI","","html-keyboard-response","119","197372","0.0-1.0-153.0","0","0","27687","","null","","","null","16","","","","","","","","","","","","","","","NaN",""
"","S1","","html-keyboard-response","120","197532","0.0-1.0-155.0","0","0","27687","","null","","","null","17","","","","","","","","","","","","","","","",""
"","ISI","","html-keyboard-response","121","199542","0.0-1.0-156.0","0","0","27687","","null","","","null","17","NaN","","","","","","","","","","","","","","",""
"","S2","","html-keyboard-response","122","199702","0.0-1.0-157.0","0","0","27687","","null","","","null","17","","NaN","","","","","","","","","","","","","",""
"","response","","html-keyboard-response","123","199842","0.0-1.0-158.0-0.0","0","0","27687","","135","","","68","17","","","1","17","training","adjacent","GF","7","6","Q.jpg","O.jpg","0","0","1","",""
"","feedback","","html-keyboard-response","124","200854","0.0-1.0-159.0-0.0","0","0","27687","","null","","","null","17","","","","","","","","","","","","","","","",""
"","ITI","","html-keyboard-response","125","201868","0.0-1.0-162.0","0","0","27687","","null","","","null","17","","","","","","","","","","","","","","","NaN",""
"","S1","","html-keyboard-response","126","202027","0.0-1.0-164.0","0","0","27687","","null","","","null","18","","","","","","","","","","","","","","","",""
"","ISI","","html-keyboard-response","127","204038","0.0-1.0-165.0","0","0","27687","","null","","","null","18","NaN","","","","","","","","","","","","","","",""
"","S2","","html-keyboard-response","128","204197","0.0-1.0-166.0","0","0","27687","","null","","","null","18","","NaN","","","","","","","","","","","","","",""
"","response","","html-keyboard-response","129","204427","0.0-1.0-167.0-0.0","0","0","27687","","225","","","75","18","","","1","18","training","adjacent","BC","2","3","M.jpg","R.jpg","1","1","1","",""
"","feedback","","html-keyboard-response","130","205435","0.0-1.0-168.0-0.0","0","0","27687","","null","","","null","18","","","","","","","","","","","","","","","",""
"","ITI","","html-keyboard-response","131","206443","0.0-1.0-171.0","0","0","27687","","null","","","null","18","","","","","","","","","","","","","","","NaN",""
"","S1","","html-keyboard-response","132","206603","0.0-1.0-173.0","0","0","27687","","null","","","null","19","","","","","","","","","","","","","","","",""
"","ISI","","html-keyboard-response","133","208614","0.0-1.0-174.0","0","0","27687","","null","","","null","19","NaN","","","","","","","","","","","","","","",""
"","S2","","html-keyboard-response","134","208774","0.0-1.0-175.0","0","0","27687","","null","","","null","19","","NaN","","","","","","","","","","","","","",""
"","response","","html-keyboard-response","135","208973","0.0-1.0-176.0-0.0","0","0","27687","","194","","","68","19","","","1","19","training","adjacent","BC","2","3","M.jpg","R.jpg","0","1","0","",""
"","feedback","","html-keyboard-response","136","209979","0.0-1.0-177.0-0.0","0","0","27687","","null","","","null","19","","","","","","","","","","","","","","","",""
"","time_out","","html-keyboard-response","137","211988","0.0-1.0-179.0-0.0","0","0","27687","","null","","","null","19","","","","","","","","","","","","","","","",""
"","ITI","","html-keyboard-response","138","212997","0.0-1.0-180.0","0","0","27687","","null","","","null","19","","","","","","","","","","","","","","","NaN",""
"","S1","","html-keyboard-response","139","213158","0.0-1.0-182.0","0","0","27687","","null","","","null","20","","","","","","","","","","","","","","","",""
"","ISI","","html-keyboard-response","140","215174","0.0-1.0-183.0","0","0","27687","","null","","","null","20","NaN","","","","","","","","","","","","","","",""
"","S2","","html-keyboard-response","141","215334","0.0-1.0-184.0","0","0","27687","","null","","","null","20","","NaN","","","","","","","","","","","","","",""
"","response","","html-keyboard-response","142","215464","0.0-1.0-185.0-0.0","0","0","27687","","127","","","68","20","","","1","20","training","adjacent","DC","4","3","P.jpg","R.jpg","0","0","1","",""
"","feedback","","html-keyboard-response","143","216475","0.0-1.0-186.0-0.0","0","0","27687","","null","","","null","20","","","","","","","","","","","","","","","",""
"","ITI","","html-keyboard-response","144","217483","0.0-1.0-189.0","0","0","27687","","null","","","null","20","","","","","","","","","","","","","","","NaN",""
"","S1","","html-keyboard-response","145","217643","0.0-1.0-191.0","0","0","27687","","null","","","null","21","","","","","","","","","","","","","","","",""
"","ISI","","html-keyboard-response","146","219654","0.0-1.0-192.0","0","0","27687","","null","","","null","21","NaN","","","","","","","","","","","","","","",""
"","S2","","html-keyboard-response","147","219814","0.0-1.0-193.0","0","0","27687","","null","","","null","21","","NaN","","","","","","","","","","","","","",""
"","response","","html-keyboard-response","148","220115","0.0-1.0-194.0-0.0","0","0","27687","","297","","","75","21","","","1","21","training","adjacent","EF","5","6","N.jpg","O.jpg","1","1","1","",""
"","feedback","","html-keyboard-response","149","221126","0.0-1.0-195.0-0.0","0","0","27687","","null","","","null","21","","","","","","","","","","","","","","","",""
"","ITI","","html-keyboard-response","150","222139","0.0-1.0-198.0","0","0","27687","","null","","","null","21","","","","","","","","","","","","","","","NaN",""
"","S1","","html-keyboard-response","151","222299","0.0-1.0-200.0","0","0","27687","","null","","","null","22","","","","","","","","","","","","","","","",""
"","ISI","","html-keyboard-response","152","224309","0.0-1.0-201.0","0","0","27687","","null","","","null","22","NaN","","","","","","","","","","","","","","",""
"","S2","","html-keyboard-response","153","224469","0.0-1.0-202.0","0","0","27687","","null","","","null","22","","NaN","","","","","","","","","","","","","",""
"","response","","html-keyboard-response","154","224660","0.0-1.0-203.0-0.0","0","0","27687","","186","","","68","22","","","1","22","training","adjacent","DC","4","3","P.jpg","R.jpg","0","0","1","",""
"","feedback","","html-keyboard-response","155","225669","0.0-1.0-204.0-0.0","0","0","27687","","null","","","null","22","","","","","","","","","","","","","","","",""
"","ITI","","html-keyboard-response","156","226677","0.0-1.0-207.0","0","0","27687","","null","","","null","22","","","","","","","","","","","","","","","NaN",""
"","S1","","html-keyboard-response","157","226837","0.0-1.0-209.0","0","0","27687","","null","","","null","23","","","","","","","","","","","","","","","",""
"","ISI","","html-keyboard-response","158","228853","0.0-1.0-210.0","0","0","27687","","null","","","null","23","NaN","","","","","","","","","","","","","","",""
"","S2","","html-keyboard-response","159","229013","0.0-1.0-211.0","0","0","27687","","null","","","null","23","","NaN","","","","","","","","","","","","","",""
"","response","","html-keyboard-response","160","229228","0.0-1.0-212.0-0.0","0","0","27687","","210","","","75","23","","","1","23","training","adjacent","EF","5","6","N.jpg","O.jpg","1","1","1","",""
"","feedback","","html-keyboard-response","161","230234","0.0-1.0-213.0-0.0","0","0","27687","","null","","","null","23","","","","","","","","","","","","","","","",""
"","ITI","","html-keyboard-response","162","231242","0.0-1.0-216.0","0","0","27687","","null","","","null","23","","","","","","","","","","","","","","","NaN",""
"","S1","","html-keyboard-response","163","231402","0.0-1.0-218.0","0","0","27687","","null","","","null","24","","","","","","","","","","","","","","","",""
"","ISI","","html-keyboard-response","164","233413","0.0-1.0-219.0","0","0","27687","","null","","","null","24","NaN","","","","","","","","","","","","","","",""
"","S2","","html-keyboard-response","165","233573","0.0-1.0-220.0","0","0","27687","","null","","","null","24","","NaN","","","","","","","","","","","","","",""
"","response","","html-keyboard-response","166","233764","0.0-1.0-221.0-0.0","0","0","27687","","186","","","68","24","","","1","24","training","adjacent","AB","1","2","L.jpg","M.jpg","0","1","0","",""
"","feedback","","html-keyboard-response","167","234778","0.0-1.0-222.0-0.0","0","0","27687","","null","","","null","24","","","","","","","","","","","","","","","",""
"","time_out","","html-keyboard-response","168","236787","0.0-1.0-224.0-0.0","0","0","27687","","null","","","null","24","","","","","","","","","","","","","","","",""
"","ITI","","html-keyboard-response","169","237796","0.0-1.0-225.0","0","0","27687","","null","","","null","24","","","","","","","","","","","","","","","NaN",""
"","S1","","html-keyboard-response","170","237957","0.0-1.0-227.0","0","0","27687","","null","","","null","25","","","","","","","","","","","","","","","",""
"","ISI","","html-keyboard-response","171","239973","0.0-1.0-228.0","0","0","27687","","255","","","75","25","k","","","","","","","","","","","","","","",""
"","S2","","html-keyboard-response","172","240133","0.0-1.0-229.0","0","0","27687","","null","","","null","25","","NaN","","","","","","","","","","","","","",""
"","response","","html-keyboard-response","173","240267","0.0-1.0-230.0-0.0","0","0","27687","","129","","","75","25","","","1","25","training","adjacent","FG","6","7","O.jpg","Q.jpg","1","1","1","",""
"","feedback","","html-keyboard-response","174","241274","0.0-1.0-231.0-0.0","0","0","27687","","null","","","null","25","","","","","","","","","","","","","","","",""
"","ITI","","html-keyboard-response","175","242281","0.0-1.0-234.0","0","0","27687","","null","","","null","25","","","","","","","","","","","","","","","NaN",""
"","S1","","html-keyboard-response","176","242442","0.0-1.0-236.0","0","0","27687","","null","","","null","26","","","","","","","","","","","","","","","",""
"","ISI","","html-keyboard-response","177","244453","0.0-1.0-237.0","0","0","27687","","null","","","null","26","NaN","","","","","","","","","","","","","","",""
"","S2","","html-keyboard-response","178","244613","0.0-1.0-238.0","0","0","27687","","null","","","null","26","","NaN","","","","","","","","","","","","","",""
"","response","","html-keyboard-response","179","245056","0.0-1.0-239.0-0.0","0","0","27687","","440","","","68","26","","","1","26","training","adjacent","GF","7","6","Q.jpg","O.jpg","0","0","1","",""
"","feedback","","html-keyboard-response","180","246069","0.0-1.0-240.0-0.0","0","0","27687","","null","","","null","26","","","","","","","","","","","","","","","",""
"","ITI","","html-keyboard-response","181","247077","0.0-1.0-243.0","0","0","27687","","null","","","null","26","","","","","","","","","","","","","","","NaN",""
"","S1","","html-keyboard-response","182","247236","0.0-1.0-245.0","0","0","27687","","null","","","null","27","","","","","","","","","","","","","","","",""
"","ISI","","html-keyboard-response","183","249252","0.0-1.0-246.0","0","0","27687","","null","","","null","27","NaN","","","","","","","","","","","","","","",""
"","S2","","html-keyboard-response","184","249412","0.0-1.0-247.0","0","0","27687","","null","","","null","27","","NaN","","","","","","","","","","","","","",""
"","response","","html-keyboard-response","185","249707","0.0-1.0-248.0-0.0","0","0","27687","","290","","","75","27","","","1","27","training","adjacent","CD","3","4","R.jpg","P.jpg","1","1","1","",""
"","feedback","","html-keyboard-response","186","250714","0.0-1.0-249.0-0.0","0","0","27687","","null","","","null","27","","","","","","","","","","","","","","","",""
"","ITI","","html-keyboard-response","187","251721","0.0-1.0-252.0","0","0","27687","","null","","","null","27","","","","","","","","","","","","","","","NaN",""
"","S1","","html-keyboard-response","188","251876","0.0-1.0-254.0","0","0","27687","","null","","","null","28","","","","","","","","","","","","","","","",""
"","ISI","","html-keyboard-response","189","253891","0.0-1.0-255.0","0","0","27687","","null","","","null","28","NaN","","","","","","","","","","","","","","",""
"","S2","","html-keyboard-response","190","254052","0.0-1.0-256.0","0","0","27687","","null","","","null","28","","NaN","","","","","","","","","","","","","",""
"","response","","html-keyboard-response","191","254785","0.0-1.0-257.0-0.0","0","0","27687","","728","","","68","28","","","1","28","training","adjacent","ED","5","4","N.jpg","P.jpg","0","0","1","",""
"","feedback","","html-keyboard-response","192","255795","0.0-1.0-258.0-0.0","0","0","27687","","null","","","null","28","","","","","","","","","","","","","","","",""
"","ITI","","html-keyboard-response","193","256804","0.0-1.0-261.0","0","0","27687","","null","","","null","28","","","","","","","","","","","","","","","NaN",""
"","S1","","html-keyboard-response","194","256964","0.0-1.0-263.0","0","0","27687","","null","","","null","29","","","","","","","","","","","","","","","",""
"","ISI","","html-keyboard-response","195","258980","0.0-1.0-264.0","0","0","27687","","null","","","null","29","NaN","","","","","","","","","","","","","","",""
"","S2","","html-keyboard-response","196","259140","0.0-1.0-265.0","0","0","27687","","null","","","null","29","","NaN","","","","","","","","","","","","","",""
"","response","","html-keyboard-response","197","259300","0.0-1.0-266.0-0.0","0","0","27687","","155","","","75","29","","","1","29","training","adjacent","BA","2","1","M.jpg","L.jpg","1","0","0","",""
"","feedback","","html-keyboard-response","198","260314","0.0-1.0-267.0-0.0","0","0","27687","","null","","","null","29","","","","","","","","","","","","","","","",""
"","time_out","","html-keyboard-response","199","262324","0.0-1.0-269.0-0.0","0","0","27687","","null","","","null","29","","","","","","","","","","","","","","","",""
"","ITI","","html-keyboard-response","200","263337","0.0-1.0-270.0","0","0","27687","","null","","","null","29","","","","","","","","","","","","","","","NaN",""
"","S1","","html-keyboard-response","201","263497","0.0-1.0-272.0","0","0","27687","","null","","","null","30","","","","","","","","","","","","","","","",""
"","ISI","","html-keyboard-response","202","265508","0.0-1.0-273.0","0","0","27687","","null","","","null","30","NaN","","","","","","","","","","","","","","",""
"","S2","","html-keyboard-response","203","265668","0.0-1.0-274.0","0","0","27687","","null","","","null","30","","NaN","","","","","","","","","","","","","",""
"","response","","html-keyboard-response","204","265817","0.0-1.0-275.0-0.0","0","0","27687","","145","","","68","30","","","1","30","training","adjacent","DE","4","5","P.jpg","N.jpg","0","1","0","",""
"","feedback","","html-keyboard-response","205","266825","0.0-1.0-276.0-0.0","0","0","27687","","null","","","null","30","","","","","","","","","","","","","","","",""
"","time_out","","html-keyboard-response","206","268835","0.0-1.0-278.0-0.0","0","0","27687","","null","","","null","30","","","","","","","","","","","","","","","",""
"","ITI","","html-keyboard-response","207","269849","0.0-1.0-279.0","0","0","27687","","null","","","null","30","","","","","","","","","","","","","","","NaN",""
"","S1","","html-keyboard-response","208","270009","0.0-1.0-281.0","0","0","27687","","null","","","null","31","","","","","","","","","","","","","","","",""
"","ISI","","html-keyboard-response","209","272020","0.0-1.0-282.0","0","0","27687","","375","","","75","31","k","","","","","","","","","","","","","","",""
"","S2","","html-keyboard-response","210","272180","0.0-1.0-283.0","0","0","27687","","null","","","null","31","","NaN","","","","","","","","","","","","","",""
"","response","","html-keyboard-response","211","272318","0.0-1.0-284.0-0.0","0","0","27687","","133","","","68","31","","","1","31","training","adjacent","GF","7","6","Q.jpg","O.jpg","0","0","1","",""
"","feedback","","html-keyboard-response","212","273332","0.0-1.0-285.0-0.0","0","0","27687","","null","","","null","31","","","","","","","","","","","","","","","",""
"","ITI","","html-keyboard-response","213","274345","0.0-1.0-288.0","0","0","27687","","null","","","null","31","","","","","","","","","","","","","","","NaN",""
"","S1","","html-keyboard-response","214","274505","0.0-1.0-290.0","0","0","27687","","null","","","null","32","","","","","","","","","","","","","","","",""
"","ISI","","html-keyboard-response","215","276515","0.0-1.0-291.0","0","0","27687","","null","","","null","32","NaN","","","","","","","","","","","","","","",""
"","S2","","html-keyboard-response","216","276675","0.0-1.0-292.0","0","0","27687","","null","","","null","32","","NaN","","","","","","","","","","","","","",""
"","response","","html-keyboard-response","217","276918","0.0-1.0-293.0-0.0","0","0","27687","","239","","","75","32","","","1","32","training","adjacent","FE","6","5","O.jpg","N.jpg","1","0","0","",""
"","feedback","","html-keyboard-response","218","277929","0.0-1.0-294.0-0.0","0","0","27687","","null","","","null","32","","","","","","","","","","","","","","","",""
"","time_out","","html-keyboard-response","219","279939","0.0-1.0-296.0-0.0","0","0","27687","","null","","","null","32","","","","","","","","","","","","","","","",""
"","ITI","","html-keyboard-response","220","280952","0.0-1.0-297.0","0","0","27687","","null","","","null","32","","","","","","","","","","","","","","","NaN",""
"","S1","","html-keyboard-response","221","281112","0.0-1.0-299.0","0","0","27687","","null","","","null","33","","","","","","","","","","","","","","","",""
"","ISI","","html-keyboard-response","222","283123","0.0-1.0-300.0","0","0","27687","","null","","","null","33","NaN","","","","","","","","","","","","","","",""
"","S2","","html-keyboard-response","223","283281","0.0-1.0-301.0","0","0","27687","","null","","","null","33","","NaN","","","","","","","","","","","","","",""
"","response","","html-keyboard-response","224","283499","0.0-1.0-302.0-0.0","0","0","27687","","213","","","75","33","","","1","33","training","adjacent","CD","3","4","R.jpg","P.jpg","1","1","1","",""
"","feedback","","html-keyboard-response","225","284515","0.0-1.0-303.0-0.0","0","0","27687","","null","","","null","33","","","","","","","","","","","","","","","",""
"","ITI","","html-keyboard-response","226","285528","0.0-1.0-306.0","0","0","27687","","null","","","null","33","","","","","","","","","","","","","","","NaN",""
"","S1","","html-keyboard-response","227","285688","0.0-1.0-308.0","0","0","27687","","null","","","null","34","","","","","","","","","","","","","","","",""
"","ISI","","html-keyboard-response","228","287699","0.0-1.0-309.0","0","0","27687","","null","","","null","34","NaN","","","","","","","","","","","","","","",""
"","S2","","html-keyboard-response","229","287859","0.0-1.0-310.0","0","0","27687","","null","","","null","34","","NaN","","","","","","","","","","","","","",""
"","response","","html-keyboard-response","230","287998","0.0-1.0-311.0-0.0","0","0","27687","","134","","","68","34","","","1","34","training","adjacent","EF","5","6","N.jpg","O.jpg","0","1","0","",""
"","feedback","","html-keyboard-response","231","289011","0.0-1.0-312.0-0.0","0","0","27687","","null","","","null","34","","","","","","","","","","","","","","","",""
"","time_out","","html-keyboard-response","232","291027","0.0-1.0-314.0-0.0","0","0","27687","","null","","","null","34","","","","","","","","","","","","","","","",""
"","ITI","","html-keyboard-response","233","292040","0.0-1.0-315.0","0","0","27687","","null","","","null","34","","","","","","","","","","","","","","","NaN",""
"","S1","","html-keyboard-response","234","292200","0.0-1.0-317.0","0","0","27687","","null","","","null","35","","","","","","","","","","","","","","","",""
"","ISI","","html-keyboard-response","235","294211","0.0-1.0-318.0","0","0","27687","","148","","","75","35","k","","","","","","","","","","","","","","",""
"","S2","","html-keyboard-response","236","294371","0.0-1.0-319.0","0","0","27687","","null","","","null","35","","NaN","","","","","","","","","","","","","",""
"","response","","html-keyboard-response","237","294703","0.0-1.0-320.0-0.0","0","0","27687","","327","","","68","35","","","1","35","training","adjacent","CB","3","2","R.jpg","M.jpg","0","0","1","",""
"","feedback","","html-keyboard-response","238","295715","0.0-1.0-321.0-0.0","0","0","27687","","null","","","null","35","","","","","","","","","","","","","","","",""
"","ITI","","html-keyboard-response","239","296728","0.0-1.0-324.0","0","0","27687","","null","","","null","35","","","","","","","","","","","","","","","NaN",""
"","S1","","html-keyboard-response","240","296888","0.0-1.0-326.0","0","0","27687","","null","","","null","36","","","","","","","","","","","","","","","",""
"","ISI","","html-keyboard-response","241","298898","0.0-1.0-327.0","0","0","27687","","null","","","null","36","NaN","","","","","","","","","","","","","","",""
"","S2","","html-keyboard-response","242","299058","0.0-1.0-328.0","0","0","27687","","null","","","null","36","","NaN","","","","","","","","","","","","","",""
"","response","","html-keyboard-response","243","299221","0.0-1.0-329.0-0.0","0","0","27687","","158","","","68","36","","","1","36","training","adjacent","AB","1","2","L.jpg","M.jpg","0","1","0","",""
"","feedback","","html-keyboard-response","244","300232","0.0-1.0-330.0-0.0","0","0","27687","","null","","","null","36","","","","","","","","","","","","","","","",""
"","time_out","","html-keyboard-response","245","302242","0.0-1.0-332.0-0.0","0","0","27687","","null","","","null","36","","","","","","","","","","","","","","","",""
"","ITI","","html-keyboard-response","246","303256","0.0-1.0-333.0","0","0","27687","","null","","","null","36","","","","","","","","","","","","","","","NaN",""
"","S1","","html-keyboard-response","247","303415","0.0-1.0-335.0","0","0","27687","","null","","","null","37","","","","","","","","","","","","","","","",""
"","ISI","","html-keyboard-response","248","305424","0.0-1.0-336.0","0","0","27687","","190","","","75","37","k","","","","","","","","","","","","","","",""
"","S2","","html-keyboard-response","249","305584","0.0-1.0-337.0","0","0","27687","","null","","","null","37","","NaN","","","","","","","","","","","","","",""
"","response","","html-keyboard-response","250","306018","0.0-1.0-338.0-0.0","0","0","27687","","430","","","75","37","","","1","37","training","adjacent","BC","2","3","M.jpg","R.jpg","1","1","1","",""
"","feedback","","html-keyboard-response","251","307031","0.0-1.0-339.0-0.0","0","0","27687","","null","","","null","37","","","","","","","","","","","","","","","",""
"","ITI","","html-keyboard-response","252","308039","0.0-1.0-342.0","0","0","27687","","null","","","null","37","","","","","","","","","","","","","","","NaN",""
"","S1","","html-keyboard-response","253","308199","0.0-1.0-344.0","0","0","27687","","null","","","null","38","","","","","","","","","","","","","","","",""
"","ISI","","html-keyboard-response","254","310211","0.0-1.0-345.0","0","0","27687","","null","","","null","38","NaN","","","","","","","","","","","","","","",""
"","S2","","html-keyboard-response","255","310375","0.0-1.0-346.0","0","0","27687","","null","","","null","38","","NaN","","","","","","","","","","","","","",""
"","response","","html-keyboard-response","256","310415","0.0-1.0-347.0-0.0","0","0","27687","","35","","","68","38","","","1","38","training","adjacent","FG","6","7","O.jpg","Q.jpg","0","1","0","",""
"","feedback","","html-keyboard-response","257","311426","0.0-1.0-348.0-0.0","0","0","27687","","null","","","null","38","","","","","","","","","","","","","","","",""
"","time_out","","html-keyboard-response","258","313442","0.0-1.0-350.0-0.0","0","0","27687","","null","","","null","38","","","","","","","","","","","","","","","",""
"","ITI","","html-keyboard-response","259","314455","0.0-1.0-351.0","0","0","27687","","null","","","null","38","","","","","","","","","","","","","","","NaN",""
"","S1","","html-keyboard-response","260","314615","0.0-1.0-353.0","0","0","27687","","null","","","null","39","","","","","","","","","","","","","","","",""
"","ISI","","html-keyboard-response","261","316626","0.0-1.0-354.0","0","0","27687","","566","","","75","39","k","","","","","","","","","","","","","","",""
"","S2","","html-keyboard-response","262","316783","0.0-1.0-355.0","0","0","27687","","null","","","null","39","","NaN","","","","","","","","","","","","","",""
"","response","","html-keyboard-response","263","317937","0.0-1.0-356.0-0.0","0","0","27687","","1149","","","75","39","","","1","39","training","adjacent","CD","3","4","R.jpg","P.jpg","1","1","1","",""
"","feedback","","html-keyboard-response","264","318946","0.0-1.0-357.0-0.0","0","0","27687","","null","","","null","39","","","","","","","","","","","","","","","",""
"","ITI","","html-keyboard-response","265","319959","0.0-1.0-360.0","0","0","27687","","null","","","null","39","","","","","","","","","","","","","","","NaN",""
"","S1","","html-keyboard-response","266","320119","0.0-1.0-362.0","0","0","27687","","null","","","null","40","","","","","","","","","","","","","","","",""
"","ISI","","html-keyboard-response","267","322130","0.0-1.0-363.0","0","0","27687","","1706","","","75","40","k","","","","","","","","","","","","","","",""
"","S2","","html-keyboard-response","268","322289","0.0-1.0-364.0","0","0","27687","","null","","","null","40","","NaN","","","","","","","","","","","","","",""
"","response","","html-keyboard-response","269","322430","0.0-1.0-365.0-0.0","0","0","27687","","136","","","68","40","","","1","40","training","adjacent","EF","5","6","N.jpg","O.jpg","0","1","0","",""
"","feedback","","html-keyboard-response","270","323441","0.0-1.0-366.0-0.0","0","0","27687","","null","","","null","40","","","","","","","","","","","","","","","",""
"","time_out","","html-keyboard-response","271","325457","0.0-1.0-368.0-0.0","0","0","27687","","null","","","null","40","","","","","","","","","","","","","","","",""
"","ITI","","html-keyboard-response","272","326471","0.0-1.0-369.0","0","0","27687","","null","","","null","40","","","","","","","","","","","","","","","NaN",""
"","S1","","html-keyboard-response","273","326630","0.0-1.0-371.0","0","0","27687","","null","","","null","41","","","","","","","","","","","","","","","",""
"","ISI","","html-keyboard-response","274","328641","0.0-1.0-372.0","0","0","27687","","535","","","75","41","k","","","","","","","","","","","","","","",""
"","S2","","html-keyboard-response","275","328801","0.0-1.0-373.0","0","0","27687","","null","","","null","41","","NaN","","","","","","","","","","","","","",""
"","response","","html-keyboard-response","276","329367","0.0-1.0-374.0-0.0","0","0","27687","","561","","","68","41","","","1","41","training","adjacent","BA","2","1","M.jpg","L.jpg","0","0","1","",""
"","feedback","","html-keyboard-response","277","330374","0.0-1.0-375.0-0.0","0","0","27687","","null","","","null","41","","","","","","","","","","","","","","","",""
"","ITI","","html-keyboard-response","278","331382","0.0-1.0-378.0","0","0","27687","","null","","","null","41","","","","","","","","","","","","","","","NaN",""
"","S1","","html-keyboard-response","279","331542","0.0-1.0-380.0","0","0","27687","","null","","","null","42","","","","","","","","","","","","","","","",""
"","ISI","","html-keyboard-response","280","333553","0.0-1.0-381.0","0","0","27687","","379","","","75","42","k","","","","","","","","","","","","","","",""
"","S2","","html-keyboard-response","281","333713","0.0-1.0-382.0","0","0","27687","","null","","","null","42","","NaN","","","","","","","","","","","","","",""
"","response","","html-keyboard-response","282","334016","0.0-1.0-383.0-0.0","0","0","27687","","298","","","75","42","","","1","42","training","adjacent","CB","3","2","R.jpg","M.jpg","1","0","0","",""
"","feedback","","html-keyboard-response","283","335030","0.0-1.0-384.0-0.0","0","0","27687","","null","","","null","42","","","","","","","","","","","","","","","",""
"","time_out","","html-keyboard-response","284","337041","0.0-1.0-386.0-0.0","0","0","27687","","null","","","null","42","","","","","","","","","","","","","","","",""
"","ITI","","html-keyboard-response","285","338054","0.0-1.0-387.0","0","0","27687","","null","","","null","42","","","","","","","","","","","","","","","NaN",""
"","S1","","html-keyboard-response","286","338214","0.0-1.0-389.0","0","0","27687","","null","","","null","43","","","","","","","","","","","","","","","",""
"","ISI","","html-keyboard-response","287","340225","0.0-1.0-390.0","0","0","27687","","501","","","75","43","k","","","","","","","","","","","","","","",""
"","S2","","html-keyboard-response","288","340383","0.0-1.0-391.0","0","0","27687","","null","","","null","43","","NaN","","","","","","","","","","","","","",""
"","response","","html-keyboard-response","289","340664","0.0-1.0-392.0-0.0","0","0","27687","","276","","","75","43","","","1","43","training","adjacent","FE","6","5","O.jpg","N.jpg","1","0","0","",""
"","feedback","","html-keyboard-response","290","341670","0.0-1.0-393.0-0.0","0","0","27687","","null","","","null","43","","","","","","","","","","","","","","","",""
"","time_out","","html-keyboard-response","291","343678","0.0-1.0-395.0-0.0","0","0","27687","","null","","","null","43","","","","","","","","","","","","","","","",""
"","ITI","","html-keyboard-response","292","344688","0.0-1.0-396.0","0","0","27687","","976","","","68","43","","","","","","","","","","","","","","","d",""
"","S1","","html-keyboard-response","293","344849","0.0-1.0-398.0","0","0","27687","","null","","","null","44","","","","","","","","","","","","","","","",""
"","ISI","","html-keyboard-response","294","346864","0.0-1.0-399.0","0","0","27687","","438","","","68","44","d","","","","","","","","","","","","","","",""
"","S2","","html-keyboard-response","295","347025","0.0-1.0-400.0","0","0","27687","","null","","","null","44","","NaN","","","","","","","","","","","","","",""
"","response","","html-keyboard-response","296","347402","0.0-1.0-401.0-0.0","0","0","27687","","372","","","68","44","","","1","44","training","adjacent","FE","6","5","O.jpg","N.jpg","0","0","1","",""
"","feedback","","html-keyboard-response","297","348417","0.0-1.0-402.0-0.0","0","0","27687","","null","","","null","44","","","","","","","","","","","","","","","",""
"","ITI","","html-keyboard-response","298","349430","0.0-1.0-405.0","0","0","27687","","null","","","null","44","","","","","","","","","","","","","","","NaN",""
"","S1","","html-keyboard-response","299","349591","0.0-1.0-407.0","0","0","27687","","null","","","null","45","","","","","","","","","","","","","","","",""
"","ISI","","html-keyboard-response","300","351601","0.0-1.0-408.0","0","0","27687","","null","","","null","45","NaN","","","","","","","","","","","","","","",""
"","S2","","html-keyboard-response","301","351760","0.0-1.0-409.0","0","0","27687","","null","","","null","45","","NaN","","","","","","","","","","","","","",""
"","response","","html-keyboard-response","302","351984","0.0-1.0-410.0-0.0","0","0","27687","","219","","","75","45","","","1","45","training","adjacent","CB","3","2","R.jpg","M.jpg","1","0","0","",""
"","feedback","","html-keyboard-response","303","352998","0.0-1.0-411.0-0.0","0","0","27687","","null","","","null","45","","","","","","","","","","","","","","","",""
"","time_out","","html-keyboard-response","304","355008","0.0-1.0-413.0-0.0","0","0","27687","","null","","","null","45","","","","","","","","","","","","","","","",""
"","ITI","","html-keyboard-response","305","356022","0.0-1.0-414.0","0","0","27687","","null","","","null","45","","","","","","","","","","","","","","","NaN",""
"","S1","","html-keyboard-response","306","356181","0.0-1.0-416.0","0","0","27687","","null","","","null","46","","","","","","","","","","","","","","","",""
"","ISI","","html-keyboard-response","307","358191","0.0-1.0-417.0","0","0","27687","","188","","","68","46","d","","","","","","","","","","","","","","",""
"","S2","","html-keyboard-response","308","358352","0.0-1.0-418.0","0","0","27687","","null","","","null","46","","NaN","","","","","","","","","","","","","",""
"","response","","html-keyboard-response","309","358497","0.0-1.0-419.0-0.0","0","0","27687","","140","","","68","46","","","1","46","training","adjacent","ED","5","4","N.jpg","P.jpg","0","0","1","",""
"","feedback","","html-keyboard-response","310","359509","0.0-1.0-420.0-0.0","0","0","27687","","null","","","null","46","","","","","","","","","","","","","","","",""
"","ITI","","html-keyboard-response","311","360517","0.0-1.0-423.0","0","0","27687","","null","","","null","46","","","","","","","","","","","","","","","NaN",""
"","S1","","html-keyboard-response","312","360672","0.0-1.0-425.0","0","0","27687","","null","","","null","47","","","","","","","","","","","","","","","",""
"","ISI","","html-keyboard-response","313","362685","0.0-1.0-426.0","0","0","27687","","null","","","null","47","NaN","","","","","","","","","","","","","","",""
"","S2","","html-keyboard-response","314","362848","0.0-1.0-427.0","0","0","27687","","null","","","null","47","","NaN","","","","","","","","","","","","","",""
"","response","","html-keyboard-response","315","363474","0.0-1.0-428.0-0.0","0","0","27687","","622","","","75","47","","","1","47","training","adjacent","BA","2","1","M.jpg","L.jpg","1","0","0","",""
"","feedback","","html-keyboard-response","316","364485","0.0-1.0-429.0-0.0","0","0","27687","","null","","","null","47","","","","","","","","","","","","","","","",""
"","time_out","","html-keyboard-response","317","366496","0.0-1.0-431.0-0.0","0","0","27687","","null","","","null","47","","","","","","","","","","","","","","","",""
"","ITI","","html-keyboard-response","318","367509","0.0-1.0-432.0","0","0","27687","","null","","","null","47","","","","","","","","","","","","","","","NaN",""
"","block_over","","html-keyboard-response","319","391312","0.0-1.0-433.0-0.0","0","0","27687","","23797","","","32","47","","","","","","","","","","","","","","","",""
"","S1","","html-keyboard-response","320","391471","0.0-1.0-434.0","0","0","27687","","null","","","null","48","","","","","","","","","","","","","","","",""
"","ISI","","html-keyboard-response","321","393486","0.0-1.0-435.0","0","0","27687","","null","","","null","48","NaN","","","","","","","","","","","","","","",""
"","S2","","html-keyboard-response","322","393647","0.0-1.0-436.0","0","0","27687","","null","","","null","48","","NaN","","","","","","","","","","","","","",""
"","response","","html-keyboard-response","323","394070","0.0-1.0-437.0-0.0","0","0","27687","","419","","","68","48","","","2","48","training","adjacent","BA","2","1","M.jpg","L.jpg","0","0","1","",""
"","feedback","","html-keyboard-response","324","395086","0.0-1.0-438.0-0.0","0","0","27687","","null","","","null","48","","","","","","","","","","","","","","","",""
"","ITI","","html-keyboard-response","325","396091","0.0-1.0-441.0","0","0","27687","","null","","","null","48","","","","","","","","","","","","","","","NaN",""
"","S1","","html-keyboard-response","326","396254","0.0-1.0-443.0","0","0","27687","","null","","","null","49","","","","","","","","","","","","","","","",""
"","ISI","","html-keyboard-response","327","398270","0.0-1.0-444.0","0","0","27687","","null","","","null","49","NaN","","","","","","","","","","","","","","",""
"","S2","","html-keyboard-response","328","398430","0.0-1.0-445.0","0","0","27687","","null","","","null","49","","NaN","","","","","","","","","","","","","",""
"","response","","html-keyboard-response","329","398650","0.0-1.0-446.0-0.0","0","0","27687","","215","","","75","49","","","2","49","training","adjacent","GF","7","6","Q.jpg","O.jpg","1","0","0","",""
"","feedback","","html-keyboard-response","330","399662","0.0-1.0-447.0-0.0","0","0","27687","","null","","","null","49","","","","","","","","","","","","","","","",""
"","time_out","","html-keyboard-response","331","401668","0.0-1.0-449.0-0.0","0","0","27687","","null","","","null","49","","","","","","","","","","","","","","","",""
"","ITI","","html-keyboard-response","332","402675","0.0-1.0-450.0","0","0","27687","","28","","","75","49","","","","","","","","","","","","","","","k",""
"","S1","","html-keyboard-response","333","402836","0.0-1.0-452.0","0","0","27687","","null","","","null","50","","","","","","","","","","","","","","","",""
"","ISI","","html-keyboard-response","334","404846","0.0-1.0-453.0","0","0","27687","","157","","","68","50","d","","","","","","","","","","","","","","",""
"","S2","","html-keyboard-response","335","405006","0.0-1.0-454.0","0","0","27687","","null","","","null","50","","NaN","","","","","","","","","","","","","",""
"","response","","html-keyboard-response","336","405135","0.0-1.0-455.0-0.0","0","0","27687","","124","","","68","50","","","2","50","training","adjacent","GF","7","6","Q.jpg","O.jpg","0","0","1","",""
"","feedback","","html-keyboard-response","337","406147","0.0-1.0-456.0-0.0","0","0","27687","","null","","","null","50","","","","","","","","","","","","","","","",""
"","ITI","","html-keyboard-response","338","407155","0.0-1.0-459.0","0","0","27687","","null","","","null","50","","","","","","","","","","","","","","","NaN",""
"","S1","","html-keyboard-response","339","407313","0.0-1.0-461.0","0","0","27687","","null","","","null","51","","","","","","","","","","","","","","","",""
"","ISI","","html-keyboard-response","340","409326","0.0-1.0-462.0","0","0","27687","","null","","","null","51","NaN","","","","","","","","","","","","","","",""
"","S2","","html-keyboard-response","341","409485","0.0-1.0-463.0","0","0","27687","","null","","","null","51","","NaN","","","","","","","","","","","","","",""
"","response","","html-keyboard-response","342","409644","0.0-1.0-464.0-0.0","0","0","27687","","154","","","68","51","","","2","51","training","adjacent","FG","6","7","O.jpg","Q.jpg","0","1","0","",""
"","feedback","","html-keyboard-response","343","410654","0.0-1.0-465.0-0.0","0","0","27687","","null","","","null","51","","","","","","","","","","","","","","","",""
"","time_out","","html-keyboard-response","344","412670","0.0-1.0-467.0-0.0","0","0","27687","","null","","","null","51","","","","","","","","","","","","","","","",""
"","ITI","","html-keyboard-response","345","413683","0.0-1.0-468.0","0","0","27687","","null","","","null","51","","","","","","","","","","","","","","","NaN",""
"","S1","","html-keyboard-response","346","413843","0.0-1.0-470.0","0","0","27687","","null","","","null","52","","","","","","","","","","","","","","","",""
"","ISI","","html-keyboard-response","347","415855","0.0-1.0-471.0","0","0","27687","","null","","","null","52","NaN","","","","","","","","","","","","","","",""
"","S2","","html-keyboard-response","348","416014","0.0-1.0-472.0","0","0","27687","","null","","","null","52","","NaN","","","","","","","","","","","","","",""
"","response","","html-keyboard-response","349","416171","0.0-1.0-473.0-0.0","0","0","27687","","152","","","75","52","","","2","52","training","adjacent","EF","5","6","N.jpg","O.jpg","1","1","1","",""
"","feedback","","html-keyboard-response","350","417180","0.0-1.0-474.0-0.0","0","0","27687","","null","","","null","52","","","","","","","","","","","","","","","",""
"","ITI","","html-keyboard-response","351","418189","0.0-1.0-477.0","0","0","27687","","null","","","null","52","","","","","","","","","","","","","","","NaN",""
"","S1","","html-keyboard-response","352","418350","0.0-1.0-479.0","0","0","27687","","null","","","null","53","","","","","","","","","","","","","","","",""
"","ISI","","html-keyboard-response","353","420366","0.0-1.0-480.0","0","0","27687","","null","","","null","53","NaN","","","","","","","","","","","","","","",""
"","S2","","html-keyboard-response","354","420526","0.0-1.0-481.0","0","0","27687","","null","","","null","53","","NaN","","","","","","","","","","","","","",""
"","response","","html-keyboard-response","355","420716","0.0-1.0-482.0-0.0","0","0","27687","","186","","","75","53","","","2","53","training","adjacent","BA","2","1","M.jpg","L.jpg","1","0","0","",""
"","feedback","","html-keyboard-response","356","421731","0.0-1.0-483.0-0.0","0","0","27687","","null","","","null","53","","","","","","","","","","","","","","","",""
"","time_out","","html-keyboard-response","357","423741","0.0-1.0-485.0-0.0","0","0","27687","","null","","","null","53","","","","","","","","","","","","","","","",""
"","ITI","","html-keyboard-response","358","424755","0.0-1.0-486.0","0","0","27687","","null","","","null","53","","","","","","","","","","","","","","","NaN",""
"","S1","","html-keyboard-response","359","424917","0.0-1.0-488.0","0","0","27687","","null","","","null","54","","","","","","","","","","","","","","","",""
"","ISI","","html-keyboard-response","360","426931","0.0-1.0-489.0","0","0","27687","","163","","","75","54","k","","","","","","","","","","","","","","",""
"","S2","","html-keyboard-response","361","427090","0.0-1.0-490.0","0","0","27687","","null","","","null","54","","NaN","","","","","","","","","","","","","",""
"","response","","html-keyboard-response","362","427515","0.0-1.0-491.0-0.0","0","0","27687","","421","","","75","54","","","2","54","training","adjacent","FG","6","7","O.jpg","Q.jpg","1","1","1","",""
"","feedback","","html-keyboard-response","363","428526","0.0-1.0-492.0-0.0","0","0","27687","","null","","","null","54","","","","","","","","","","","","","","","",""
"","ITI","","html-keyboard-response","364","429539","0.0-1.0-495.0","0","0","27687","","null","","","null","54","","","","","","","","","","","","","","","NaN",""
"","S1","","html-keyboard-response","365","429698","0.0-1.0-497.0","0","0","27687","","null","","","null","55","","","","","","","","","","","","","","","",""
"","ISI","","html-keyboard-response","366","431709","0.0-1.0-498.0","0","0","27687","","1047","","","75","55","k","","","","","","","","","","","","","","",""
"","S2","","html-keyboard-response","367","431869","0.0-1.0-499.0","0","0","27687","","null","","","null","55","","NaN","","","","","","","","","","","","","",""
"","response","","html-keyboard-response","368","432054","0.0-1.0-500.0-0.0","0","0","27687","","180","","","68","55","","","2","55","training","adjacent","GF","7","6","Q.jpg","O.jpg","0","0","1","",""
"","feedback","","html-keyboard-response","369","433069","0.0-1.0-501.0-0.0","0","0","27687","","null","","","null","55","","","","","","","","","","","","","","","",""
"","ITI","","html-keyboard-response","370","434082","0.0-1.0-504.0","0","0","27687","","null","","","null","55","","","","","","","","","","","","","","","NaN",""
"","S1","","html-keyboard-response","371","434242","0.0-1.0-506.0","0","0","27687","","null","","","null","56","","","","","","","","","","","","","","","",""
"","ISI","","html-keyboard-response","372","436253","0.0-1.0-507.0","0","0","27687","","1406","","","68","56","d","","","","","","","","","","","","","","",""
"","S2","","html-keyboard-response","373","436413","0.0-1.0-508.0","0","0","27687","","null","","","null","56","","NaN","","","","","","","","","","","","","",""
"","response","","html-keyboard-response","374","436566","0.0-1.0-509.0-0.0","0","0","27687","","148","","","75","56","","","2","56","training","adjacent","AB","1","2","L.jpg","M.jpg","1","1","1","",""
"","feedback","","html-keyboard-response","375","437579","0.0-1.0-510.0-0.0","0","0","27687","","null","","","null","56","","","","","","","","","","","","","","","",""
"","ITI","","html-keyboard-response","376","438588","0.0-1.0-513.0","0","0","27687","","324","","","75","56","","","","","","","","","","","","","","","k",""
"","S1","","html-keyboard-response","377","438749","0.0-1.0-515.0","0","0","27687","","null","","","null","57","","","","","","","","","","","","","","","",""
"","ISI","","html-keyboard-response","378","440765","0.0-1.0-516.0","0","0","27687","","1522","","","75","57","k","","","","","","","","","","","","","","",""
"","S2","","html-keyboard-response","379","440926","0.0-1.0-517.0","0","0","27687","","null","","","null","57","","NaN","","","","","","","","","","","","","",""
"","response","","html-keyboard-response","380","441255","0.0-1.0-518.0-0.0","0","0","27687","","324","","","75","57","","","2","57","training","adjacent","FE","6","5","O.jpg","N.jpg","1","0","0","",""
"","feedback","","html-keyboard-response","381","442270","0.0-1.0-519.0-0.0","0","0","27687","","null","","","null","57","","","","","","","","","","","","","","","",""
"","time_out","","html-keyboard-response","382","444283","0.0-1.0-521.0-0.0","0","0","27687","","null","","","null","57","","","","","","","","","","","","","","","",""
"","ITI","","html-keyboard-response","383","445293","0.0-1.0-522.0","0","0","27687","","720","","","75","57","","","","","","","","","","","","","","","k",""
"","S1","","html-keyboard-response","384","445460","0.0-1.0-524.0","0","0","27687","","null","","","null","58","","","","","","","","","","","","","","","",""
"","ISI","","html-keyboard-response","385","447469","0.0-1.0-525.0","0","0","27687","","164","","","68","58","d","","","","","","","","","","","","","","",""
"","S2","","html-keyboard-response","386","447634","0.0-1.0-526.0","0","0","27687","","null","","","null","58","","NaN","","","","","","","","","","","","","",""
"","response","","html-keyboard-response","387","447956","0.0-1.0-527.0-0.0","0","0","27687","","317","","","75","58","","","2","58","training","adjacent","ED","5","4","N.jpg","P.jpg","1","0","0","",""
"","feedback","","html-keyboard-response","388","448972","0.0-1.0-528.0-0.0","0","0","27687","","null","","","null","58","","","","","","","","","","","","","","","",""
"","time_out","","html-keyboard-response","389","450987","0.0-1.0-530.0-0.0","0","0","27687","","null","","","null","58","","","","","","","","","","","","","","","",""
"","ITI","","html-keyboard-response","390","451996","0.0-1.0-531.0","0","0","27687","","null","","","null","58","","","","","","","","","","","","","","","NaN",""
"","S1","","html-keyboard-response","391","452156","0.0-1.0-533.0","0","0","27687","","null","","","null","59","","","","","","","","","","","","","","","",""
"","ISI","","html-keyboard-response","392","454172","0.0-1.0-534.0","0","0","27687","","290","","","68","59","d","","","","","","","","","","","","","","",""
"","S2","","html-keyboard-response","393","454332","0.0-1.0-535.0","0","0","27687","","null","","","null","59","","NaN","","","","","","","","","","","","","",""
"","response","","html-keyboard-response","394","454492","0.0-1.0-536.0-0.0","0","0","27687","","154","","","68","59","","","2","59","training","adjacent","DE","4","5","P.jpg","N.jpg","0","1","0","",""
"","feedback","","html-keyboard-response","395","455506","0.0-1.0-537.0-0.0","0","0","27687","","null","","","null","59","","","","","","","","","","","","","","","",""
"","time_out","","html-keyboard-response","396","457516","0.0-1.0-539.0-0.0","0","0","27687","","null","","","null","59","","","","","","","","","","","","","","","",""
"","ITI","","html-keyboard-response","397","458531","0.0-1.0-540.0","0","0","27687","","null","","","null","59","","","","","","","","","","","","","","","NaN",""
"","S1","","html-keyboard-response","398","458693","0.0-1.0-542.0","0","0","27687","","null","","","null","60","","","","","","","","","","","","","","","",""
"","ISI","","html-keyboard-response","399","460706","0.0-1.0-543.0","0","0","27687","","299","","","75","60","k","","","","","","","","","","","","","","",""
"","S2","","html-keyboard-response","400","460868","0.0-1.0-544.0","0","0","27687","","null","","","null","60","","NaN","","","","","","","","","","","","","",""
"","response","","html-keyboard-response","401","461536","0.0-1.0-545.0-0.0","0","0","27687","","663","","","68","60","","","2","60","training","adjacent","ED","5","4","N.jpg","P.jpg","0","0","1","",""
"","feedback","","html-keyboard-response","402","462547","0.0-1.0-546.0-0.0","0","0","27687","","null","","","null","60","","","","","","","","","","","","","","","",""
"","ITI","","html-keyboard-response","403","463562","0.0-1.0-549.0","0","0","27687","","null","","","null","60","","","","","","","","","","","","","","","NaN",""
"","S1","","html-keyboard-response","404","463722","0.0-1.0-551.0","0","0","27687","","null","","","null","61","","","","","","","","","","","","","","","",""
"","ISI","","html-keyboard-response","405","465731","0.0-1.0-552.0","0","0","27687","","null","","","null","61","NaN","","","","","","","","","","","","","","",""
"","S2","","html-keyboard-response","406","465893","0.0-1.0-553.0","0","0","27687","","null","","","null","61","","NaN","","","","","","","","","","","","","",""
"","response","","html-keyboard-response","407","466113","0.0-1.0-554.0-0.0","0","0","27687","","216","","","75","61","","","2","61","training","adjacent","AB","1","2","L.jpg","M.jpg","1","1","1","",""
"","feedback","","html-keyboard-response","408","467121","0.0-1.0-555.0-0.0","0","0","27687","","null","","","null","61","","","","","","","","","","","","","","","",""
"","ITI","","html-keyboard-response","409","468131","0.0-1.0-558.0","0","0","27687","","null","","","null","61","","","","","","","","","","","","","","","NaN",""
"","S1","","html-keyboard-response","410","468293","0.0-1.0-560.0","0","0","27687","","null","","","null","62","","","","","","","","","","","","","","","",""
"","ISI","","html-keyboard-response","411","470305","0.0-1.0-561.0","0","0","27687","","null","","","null","62","NaN","","","","","","","","","","","","","","",""
"","S2","","html-keyboard-response","412","470465","0.0-1.0-562.0","0","0","27687","","null","","","null","62","","NaN","","","","","","","","","","","","","",""
"","response","","html-keyboard-response","413","471676","0.0-1.0-563.0-0.0","0","0","27687","","1206","","","75","62","","","2","62","training","adjacent","AB","1","2","L.jpg","M.jpg","1","1","1","",""
"","feedback","","html-keyboard-response","414","472689","0.0-1.0-564.0-0.0","0","0","27687","","null","","","null","62","","","","","","","","","","","","","","","",""
"","ITI","","html-keyboard-response","415","473697","0.0-1.0-567.0","0","0","27687","","null","","","null","62","","","","","","","","","","","","","","","NaN",""
"","S1","","html-keyboard-response","416","473857","0.0-1.0-569.0","0","0","27687","","null","","","null","63","","","","","","","","","","","","","","","",""
"","ISI","","html-keyboard-response","417","475868","0.0-1.0-570.0","0","0","27687","","null","","","null","63","NaN","","","","","","","","","","","","","","",""
"","S2","","html-keyboard-response","418","476027","0.0-1.0-571.0","0","0","27687","","null","","","null","63","","NaN","","","","","","","","","","","","","",""
"","response","","html-keyboard-response","419","476181","0.0-1.0-572.0-0.0","0","0","27687","","150","","","68","63","","","2","63","training","adjacent","BC","2","3","M.jpg","R.jpg","0","1","0","",""
"","feedback","","html-keyboard-response","420","477195","0.0-1.0-573.0-0.0","0","0","27687","","null","","","null","63","","","","","","","","","","","","","","","",""
"","time_out","","html-keyboard-response","421","479211","0.0-1.0-575.0-0.0","0","0","27687","","null","","","null","63","","","","","","","","","","","","","","","",""
"","ITI","","html-keyboard-response","422","480225","0.0-1.0-576.0","0","0","27687","","null","","","null","63","","","","","","","","","","","","","","","NaN",""
"","S1","","html-keyboard-response","423","480385","0.0-1.0-578.0","0","0","27687","","null","","","null","64","","","","","","","","","","","","","","","",""
"","ISI","","html-keyboard-response","424","482395","0.0-1.0-579.0","0","0","27687","","null","","","null","64","NaN","","","","","","","","","","","","","","",""
"","S2","","html-keyboard-response","425","482555","0.0-1.0-580.0","0","0","27687","","null","","","null","64","","NaN","","","","","","","","","","","","","",""
"","response","","html-keyboard-response","426","482736","0.0-1.0-581.0-0.0","0","0","27687","","177","","","75","64","","","2","64","training","adjacent","DC","4","3","P.jpg","R.jpg","1","0","0","",""
"","feedback","","html-keyboard-response","427","483744","0.0-1.0-582.0-0.0","0","0","27687","","null","","","null","64","","","","","","","","","","","","","","","",""
"","time_out","","html-keyboard-response","428","485755","0.0-1.0-584.0-0.0","0","0","27687","","null","","","null","64","","","","","","","","","","","","","","","",""
"","ITI","","html-keyboard-response","429","486768","0.0-1.0-585.0","0","0","27687","","null","","","null","64","","","","","","","","","","","","","","","NaN",""
"","S1","","html-keyboard-response","430","486928","0.0-1.0-587.0","0","0","27687","","null","","","null","65","","","","","","","","","","","","","","","",""
"","ISI","","html-keyboard-response","431","488939","0.0-1.0-588.0","0","0","27687","","null","","","null","65","NaN","","","","","","","","","","","","","","",""
"","S2","","html-keyboard-response","432","489099","0.0-1.0-589.0","0","0","27687","","null","","","null","65","","NaN","","","","","","","","","","","","","",""
"","response","","html-keyboard-response","433","489252","0.0-1.0-590.0-0.0","0","0","27687","","148","","","68","65","","","2","65","training","adjacent","BC","2","3","M.jpg","R.jpg","0","1","0","",""
"","feedback","","html-keyboard-response","434","490267","0.0-1.0-591.0-0.0","0","0","27687","","null","","","null","65","","","","","","","","","","","","","","","",""
"","time_out","","html-keyboard-response","435","492282","0.0-1.0-593.0-0.0","0","0","27687","","null","","","null","65","","","","","","","","","","","","","","","",""
"","ITI","","html-keyboard-response","436","493291","0.0-1.0-594.0","0","0","27687","","null","","","null","65","","","","","","","","","","","","","","","NaN",""
"","S1","","html-keyboard-response","437","493451","0.0-1.0-596.0","0","0","27687","","null","","","null","66","","","","","","","","","","","","","","","",""
"","ISI","","html-keyboard-response","438","495467","0.0-1.0-597.0","0","0","27687","","670","","","75","66","k","","","","","","","","","","","","","","",""
"","S2","","html-keyboard-response","439","495627","0.0-1.0-598.0","0","0","27687","","null","","","null","66","","NaN","","","","","","","","","","","","","",""
"","response","","html-keyboard-response","440","495894","0.0-1.0-599.0-0.0","0","0","27687","","262","","","75","66","","","2","66","training","adjacent","FE","6","5","O.jpg","N.jpg","1","0","0","",""
"","feedback","","html-keyboard-response","441","496906","0.0-1.0-600.0-0.0","0","0","27687","","null","","","null","66","","","","","","","","","","","","","","","",""
"","time_out","","html-keyboard-response","442","498923","0.0-1.0-602.0-0.0","0","0","27687","","null","","","null","66","","","","","","","","","","","","","","","",""
"","ITI","","html-keyboard-response","443","499939","0.0-1.0-603.0","0","0","27687","","null","","","null","66","","","","","","","","","","","","","","","NaN",""
"","S1","","html-keyboard-response","444","500096","0.0-1.0-605.0","0","0","27687","","null","","","null","67","","","","","","","","","","","","","","","",""
"","ISI","","html-keyboard-response","445","502106","0.0-1.0-606.0","0","0","27687","","1944","","","75","67","k","","","","","","","","","","","","","","",""
"","S2","","html-keyboard-response","446","502266","0.0-1.0-607.0","0","0","27687","","null","","","null","67","","NaN","","","","","","","","","","","","","",""
"","response","","html-keyboard-response","447","502553","0.0-1.0-608.0-0.0","0","0","27687","","281","","","75","67","","","2","67","training","adjacent","DE","4","5","P.jpg","N.jpg","1","1","1","",""
"","feedback","","html-keyboard-response","448","503562","0.0-1.0-609.0-0.0","0","0","27687","","null","","","null","67","","","","","","","","","","","","","","","",""
"","ITI","","html-keyboard-response","449","504570","0.0-1.0-612.0","0","0","27687","","null","","","null","67","","","","","","","","","","","","","","","NaN",""
"","S1","","html-keyboard-response","450","504730","0.0-1.0-614.0","0","0","27687","","null","","","null","68","","","","","","","","","","","","","","","",""
"","ISI","","html-keyboard-response","451","506746","0.0-1.0-615.0","0","0","27687","","null","","","null","68","NaN","","","","","","","","","","","","","","",""
"","S2","","html-keyboard-response","452","506906","0.0-1.0-616.0","0","0","27687","","null","","","null","68","","NaN","","","","","","","","","","","","","",""
"","response","","html-keyboard-response","453","508577","0.0-1.0-617.0-0.0","0","0","27687","","1667","","","68","68","","","2","68","training","adjacent","FG","6","7","O.jpg","Q.jpg","0","1","0","",""
"","feedback","","html-keyboard-response","454","509594","0.0-1.0-618.0-0.0","0","0","27687","","null","","","null","68","","","","","","","","","","","","","","","",""
"","time_out","","html-keyboard-response","455","511610","0.0-1.0-620.0-0.0","0","0","27687","","null","","","null","68","","","","","","","","","","","","","","","",""
"","ITI","","html-keyboard-response","456","512623","0.0-1.0-621.0","0","0","27687","","null","","","null","68","","","","","","","","","","","","","","","NaN",""
"","S1","","html-keyboard-response","457","512784","0.0-1.0-623.0","0","0","27687","","null","","","null","69","","","","","","","","","","","","","","","",""
"","ISI","","html-keyboard-response","458","514794","0.0-1.0-624.0","0","0","27687","","null","","","null","69","NaN","","","","","","","","","","","","","","",""
"","S2","","html-keyboard-response","459","514954","0.0-1.0-625.0","0","0","27687","","null","","","null","69","","NaN","","","","","","","","","","","","","",""
"","response","","html-keyboard-response","460","515523","0.0-1.0-626.0-0.0","0","0","27687","","565","","","75","69","","","2","69","training","adjacent","ED","5","4","N.jpg","P.jpg","1","0","0","",""
"","feedback","","html-keyboard-response","461","516538","0.0-1.0-627.0-0.0","0","0","27687","","null","","","null","69","","","","","","","","","","","","","","","",""
"","time_out","","html-keyboard-response","462","518553","0.0-1.0-629.0-0.0","0","0","27687","","null","","","null","69","","","","","","","","","","","","","","","",""
"","ITI","","html-keyboard-response","463","519568","0.0-1.0-630.0","0","0","27687","","null","","","null","69","","","","","","","","","","","","","","","NaN",""
"","S1","","html-keyboard-response","464","519729","0.0-1.0-632.0","0","0","27687","","null","","","null","70","","","","","","","","","","","","","","","",""
"","ISI","","html-keyboard-response","465","521737","0.0-1.0-633.0","0","0","27687","","307","","","68","70","d","","","","","","","","","","","","","","",""
"","S2","","html-keyboard-response","466","521898","0.0-1.0-634.0","0","0","27687","","null","","","null","70","","NaN","","","","","","","","","","","","","",""
"","response","","html-keyboard-response","467","522472","0.0-1.0-635.0-0.0","0","0","27687","","569","","","68","70","","","2","70","training","adjacent","BA","2","1","M.jpg","L.jpg","0","0","1","",""
"","feedback","","html-keyboard-response","468","523479","0.0-1.0-636.0-0.0","0","0","27687","","null","","","null","70","","","","","","","","","","","","","","","",""
"","ITI","","html-keyboard-response","469","524489","0.0-1.0-639.0","0","0","27687","","null","","","null","70","","","","","","","","","","","","","","","NaN",""
"","S1","","html-keyboard-response","470","524650","0.0-1.0-641.0","0","0","27687","","null","","","null","71","","","","","","","","","","","","","","","",""
"","ISI","","html-keyboard-response","471","526665","0.0-1.0-642.0","0","0","27687","","null","","","null","71","NaN","","","","","","","","","","","","","","",""
"","S2","","html-keyboard-response","472","526826","0.0-1.0-643.0","0","0","27687","","null","","","null","71","","NaN","","","","","","","","","","","","","",""
"","response","","html-keyboard-response","473","527459","0.0-1.0-644.0-0.0","0","0","27687","","628","","","75","71","","","2","71","training","adjacent","DC","4","3","P.jpg","R.jpg","1","0","0","",""
"","feedback","","html-keyboard-response","474","528471","0.0-1.0-645.0-0.0","0","0","27687","","null","","","null","71","","","","","","","","","","","","","","","",""
"","time_out","","html-keyboard-response","475","530478","0.0-1.0-647.0-0.0","0","0","27687","","null","","","null","71","","","","","","","","","","","","","","","",""
"","ITI","","html-keyboard-response","476","531489","0.0-1.0-648.0","0","0","27687","","null","","","null","71","","","","","","","","","","","","","","","NaN",""
"","S1","","html-keyboard-response","477","531648","0.0-1.0-650.0","0","0","27687","","null","","","null","72","","","","","","","","","","","","","","","",""
"","ISI","","html-keyboard-response","478","533657","0.0-1.0-651.0","0","0","27687","","null","","","null","72","NaN","","","","","","","","","","","","","","",""
"","S2","","html-keyboard-response","479","533818","0.0-1.0-652.0","0","0","27687","","null","","","null","72","","NaN","","","","","","","","","","","","","",""
"","response","","html-keyboard-response","480","534243","0.0-1.0-653.0-0.0","0","0","27687","","420","","","75","72","","","2","72","training","adjacent","DC","4","3","P.jpg","R.jpg","1","0","0","",""
"","feedback","","html-keyboard-response","481","535257","0.0-1.0-654.0-0.0","0","0","27687","","null","","","null","72","","","","","","","","","","","","","","","",""
"","time_out","","html-keyboard-response","482","537262","0.0-1.0-656.0-0.0","0","0","27687","","null","","","null","72","","","","","","","","","","","","","","","",""
"","ITI","","html-keyboard-response","483","538270","0.0-1.0-657.0","0","0","27687","","null","","","null","72","","","","","","","","","","","","","","","NaN",""
"","S1","","html-keyboard-response","484","538430","0.0-1.0-659.0","0","0","27687","","null","","","null","73","","","","","","","","","","","","","","","",""
"","ISI","","html-keyboard-response","485","540441","0.0-1.0-660.0","0","0","27687","","null","","","null","73","NaN","","","","","","","","","","","","","","",""
"","S2","","html-keyboard-response","486","540601","0.0-1.0-661.0","0","0","27687","","null","","","null","73","","NaN","","","","","","","","","","","","","",""
"","response","","html-keyboard-response","487","542048","0.0-1.0-662.0-0.0","0","0","27687","","1442","","","68","73","","","2","73","training","adjacent","BC","2","3","M.jpg","R.jpg","0","1","0","",""
"","feedback","","html-keyboard-response","488","543065","0.0-1.0-663.0-0.0","0","0","27687","","null","","","null","73","","","","","","","","","","","","","","","",""
"","time_out","","html-keyboard-response","489","545079","0.0-1.0-665.0-0.0","0","0","27687","","null","","","null","73","","","","","","","","","","","","","","","",""
"","ITI","","html-keyboard-response","490","546087","0.0-1.0-666.0","0","0","27687","","null","","","null","73","","","","","","","","","","","","","","","NaN",""
"","S1","","html-keyboard-response","491","546248","0.0-1.0-668.0","0","0","27687","","null","","","null","74","","","","","","","","","","","","","","","",""
"","ISI","","html-keyboard-response","492","548264","0.0-1.0-669.0","0","0","27687","","null","","","null","74","NaN","","","","","","","","","","","","","","",""
"","S2","","html-keyboard-response","493","548425","0.0-1.0-670.0","0","0","27687","","null","","","null","74","","NaN","","","","","","","","","","","","","",""
"","response","","html-keyboard-response","494","549967","0.0-1.0-671.0-0.0","0","0","27687","","1538","","","75","74","","","2","74","training","adjacent","CB","3","2","R.jpg","M.jpg","1","0","0","",""
"","feedback","","html-keyboard-response","495","550973","0.0-1.0-672.0-0.0","0","0","27687","","null","","","null","74","","","","","","","","","","","","","","","",""
"","time_out","","html-keyboard-response","496","552983","0.0-1.0-674.0-0.0","0","0","27687","","null","","","null","74","","","","","","","","","","","","","","","",""
"","ITI","","html-keyboard-response","497","553992","0.0-1.0-675.0","0","0","27687","","null","","","null","74","","","","","","","","","","","","","","","NaN",""
"","S1","","html-keyboard-response","498","554152","0.0-1.0-677.0","0","0","27687","","null","","","null","75","","","","","","","","","","","","","","","",""
"","ISI","","html-keyboard-response","499","556158","0.0-1.0-678.0","0","0","27687","","250","","","68","75","d","","","","","","","","","","","","","","",""
"","S2","","html-keyboard-response","500","556317","0.0-1.0-679.0","0","0","27687","","null","","","null","75","","NaN","","","","","","","","","","","","","",""
"","response","","html-keyboard-response","501","557082","0.0-1.0-680.0-0.0","0","0","27687","","760","","","68","75","","","2","75","training","adjacent","FE","6","5","O.jpg","N.jpg","0","0","1","",""
"","feedback","","html-keyboard-response","502","558094","0.0-1.0-681.0-0.0","0","0","27687","","null","","","null","75","","","","","","","","","","","","","","","",""
"","ITI","","html-keyboard-response","503","559101","0.0-1.0-684.0","0","0","27687","","null","","","null","75","","","","","","","","","","","","","","","NaN",""
"","S1","","html-keyboard-response","504","559261","0.0-1.0-686.0","0","0","27687","","null","","","null","76","","","","","","","","","","","","","","","",""
"","ISI","","html-keyboard-response","505","561270","0.0-1.0-687.0","0","0","27687","","398","","","68","76","d","","","","","","","","","","","","","","",""
"","S2","","html-keyboard-response","506","561432","0.0-1.0-688.0","0","0","27687","","null","","","null","76","","NaN","","","","","","","","","","","","","",""
"","response","","html-keyboard-response","507","561568","0.0-1.0-689.0-0.0","0","0","27687","","131","","","68","76","","","2","76","training","adjacent","CB","3","2","R.jpg","M.jpg","0","0","1","",""
"","feedback","","html-keyboard-response","508","562583","0.0-1.0-690.0-0.0","0","0","27687","","null","","","null","76","","","","","","","","","","","","","","","",""
"","ITI","","html-keyboard-response","509","563597","0.0-1.0-693.0","0","0","27687","","null","","","null","76","","","","","","","","","","","","","","","NaN",""
"","S1","","html-keyboard-response","510","563757","0.0-1.0-695.0","0","0","27687","","null","","","null","77","","","","","","","","","","","","","","","",""
"","ISI","","html-keyboard-response","511","565768","0.0-1.0-696.0","0","0","27687","","null","","","null","77","NaN","","","","","","","","","","","","","","",""
"","S2","","html-keyboard-response","512","565928","0.0-1.0-697.0","0","0","27687","","null","","","null","77","","NaN","","","","","","","","","","","","","",""
"","response","","html-keyboard-response","513","566129","0.0-1.0-698.0-0.0","0","0","27687","","196","","","68","77","","","2","77","training","adjacent","EF","5","6","N.jpg","O.jpg","0","1","0","",""
"","feedback","","html-keyboard-response","514","567144","0.0-1.0-699.0-0.0","0","0","27687","","null","","","null","77","","","","","","","","","","","","","","","",""
"","time_out","","html-keyboard-response","515","569160","0.0-1.0-701.0-0.0","0","0","27687","","null","","","null","77","","","","","","","","","","","","","","","",""
"","ITI","","html-keyboard-response","516","570168","0.0-1.0-702.0","0","0","27687","","null","","","null","77","","","","","","","","","","","","","","","NaN",""
"","S1","","html-keyboard-response","517","570328","0.0-1.0-704.0","0","0","27687","","null","","","null","78","","","","","","","","","","","","","","","",""
"","ISI","","html-keyboard-response","518","572344","0.0-1.0-705.0","0","0","27687","","null","","","null","78","NaN","","","","","","","","","","","","","","",""
"","S2","","html-keyboard-response","519","572504","0.0-1.0-706.0","0","0","27687","","null","","","null","78","","NaN","","","","","","","","","","","","","",""
"","response","","html-keyboard-response","520","572636","0.0-1.0-707.0-0.0","0","0","27687","","127","","","75","78","","","2","78","training","adjacent","CD","3","4","R.jpg","P.jpg","1","1","1","",""
"","feedback","","html-keyboard-response","521","573645","0.0-1.0-708.0-0.0","0","0","27687","","null","","","null","78","","","","","","","","","","","","","","","",""
"","ITI","","html-keyboard-response","522","574653","0.0-1.0-711.0","0","0","27687","","null","","","null","78","","","","","","","","","","","","","","","NaN",""
"","S1","","html-keyboard-response","523","574813","0.0-1.0-713.0","0","0","27687","","null","","","null","79","","","","","","","","","","","","","","","",""
"","ISI","","html-keyboard-response","524","576823","0.0-1.0-714.0","0","0","27687","","null","","","null","79","NaN","","","","","","","","","","","","","","",""
"","S2","","html-keyboard-response","525","576983","0.0-1.0-715.0","0","0","27687","","null","","","null","79","","NaN","","","","","","","","","","","","","",""
"","response","","html-keyboard-response","526","577198","0.0-1.0-716.0-0.0","0","0","27687","","210","","","68","79","","","2","79","training","adjacent","AB","1","2","L.jpg","M.jpg","0","1","0","",""
"","feedback","","html-keyboard-response","527","578216","0.0-1.0-717.0-0.0","0","0","27687","","null","","","null","79","","","","","","","","","","","","","","","",""
"","time_out","","html-keyboard-response","528","580231","0.0-1.0-719.0-0.0","0","0","27687","","null","","","null","79","","","","","","","","","","","","","","","",""
"","ITI","","html-keyboard-response","529","581245","0.0-1.0-720.0","0","0","27687","","null","","","null","79","","","","","","","","","","","","","","","NaN",""
"","S1","","html-keyboard-response","530","581405","0.0-1.0-722.0","0","0","27687","","null","","","null","80","","","","","","","","","","","","","","","",""
"","ISI","","html-keyboard-response","531","583415","0.0-1.0-723.0","0","0","27687","","143","","","75","80","k","","","","","","","","","","","","","","",""
"","S2","","html-keyboard-response","532","583573","0.0-1.0-724.0","0","0","27687","","null","","","null","80","","NaN","","","","","","","","","","","","","",""
"","response","","html-keyboard-response","533","583746","0.0-1.0-725.0-0.0","0","0","27687","","168","","","75","80","","","2","80","training","adjacent","GF","7","6","Q.jpg","O.jpg","1","0","0","",""
"","feedback","","html-keyboard-response","534","584759","0.0-1.0-726.0-0.0","0","0","27687","","null","","","null","80","","","","","","","","","","","","","","","",""
"","time_out","","html-keyboard-response","535","586773","0.0-1.0-728.0-0.0","0","0","27687","","null","","","null","80","","","","","","","","","","","","","","","",""
"","ITI","","html-keyboard-response","536","587782","0.0-1.0-729.0","0","0","27687","","null","","","null","80","","","","","","","","","","","","","","","NaN",""
"","S1","","html-keyboard-response","537","587943","0.0-1.0-731.0","0","0","27687","","null","","","null","81","","","","","","","","","","","","","","","",""
"","ISI","","html-keyboard-response","538","589959","0.0-1.0-732.0","0","0","27687","","null","","","null","81","NaN","","","","","","","","","","","","","","",""
"","S2","","html-keyboard-response","539","590119","0.0-1.0-733.0","0","0","27687","","null","","","null","81","","NaN","","","","","","","","","","","","","",""
"","response","","html-keyboard-response","540","590260","0.0-1.0-734.0-0.0","0","0","27687","","136","","","75","81","","","2","81","training","adjacent","EF","5","6","N.jpg","O.jpg","1","1","1","",""
"","feedback","","html-keyboard-response","541","591269","0.0-1.0-735.0-0.0","0","0","27687","","null","","","null","81","","","","","","","","","","","","","","","",""
"","ITI","","html-keyboard-response","542","592278","0.0-1.0-738.0","0","0","27687","","null","","","null","81","","","","","","","","","","","","","","","NaN",""
"","S1","","html-keyboard-response","543","592439","0.0-1.0-740.0","0","0","27687","","null","","","null","82","","","","","","","","","","","","","","","",""
"","ISI","","html-keyboard-response","544","594455","0.0-1.0-741.0","0","0","27687","","null","","","null","82","NaN","","","","","","","","","","","","","","",""
"","S2","","html-keyboard-response","545","594616","0.0-1.0-742.0","0","0","27687","","null","","","null","82","","NaN","","","","","","","","","","","","","",""
"","response","","html-keyboard-response","546","594800","0.0-1.0-743.0-0.0","0","0","27687","","179","","","75","82","","","2","82","training","adjacent","DE","4","5","P.jpg","N.jpg","1","1","1","",""
"","feedback","","html-keyboard-response","547","595815","0.0-1.0-744.0-0.0","0","0","27687","","null","","","null","82","","","","","","","","","","","","","","","",""
"","ITI","","html-keyboard-response","548","596828","0.0-1.0-747.0","0","0","27687","","null","","","null","82","","","","","","","","","","","","","","","NaN",""
"","S1","","html-keyboard-response","549","596988","0.0-1.0-749.0","0","0","27687","","null","","","null","83","","","","","","","","","","","","","","","",""
"","ISI","","html-keyboard-response","550","598999","0.0-1.0-750.0","0","0","27687","","918","","","75","83","k","","","","","","","","","","","","","","",""
"","S2","","html-keyboard-response","551","599159","0.0-1.0-751.0","0","0","27687","","null","","","null","83","","NaN","","","","","","","","","","","","","",""
"","response","","html-keyboard-response","552","599354","0.0-1.0-752.0-0.0","0","0","27687","","190","","","68","83","","","2","83","training","adjacent","EF","5","6","N.jpg","O.jpg","0","1","0","",""
"","feedback","","html-keyboard-response","553","600364","0.0-1.0-753.0-0.0","0","0","27687","","null","","","null","83","","","","","","","","","","","","","","","",""
"","time_out","","html-keyboard-response","554","602372","0.0-1.0-755.0-0.0","0","0","27687","","null","","","null","83","","","","","","","","","","","","","","","",""
"","ITI","","html-keyboard-response","555","603381","0.0-1.0-756.0","0","0","27687","","null","","","null","83","","","","","","","","","","","","","","","NaN",""
"","S1","","html-keyboard-response","556","603543","0.0-1.0-758.0","0","0","27687","","null","","","null","84","","","","","","","","","","","","","","","",""
"","ISI","","html-keyboard-response","557","605558","0.0-1.0-759.0","0","0","27687","","310","","","68","84","d","","","","","","","","","","","","","","",""
"","S2","","html-keyboard-response","558","605718","0.0-1.0-760.0","0","0","27687","","null","","","null","84","","NaN","","","","","","","","","","","","","",""
"","response","","html-keyboard-response","559","605824","0.0-1.0-761.0-0.0","0","0","27687","","100","","","75","84","","","2","84","training","adjacent","CD","3","4","R.jpg","P.jpg","1","1","1","",""
"","feedback","","html-keyboard-response","560","606839","0.0-1.0-762.0-0.0","0","0","27687","","null","","","null","84","","","","","","","","","","","","","","","",""
"","ITI","","html-keyboard-response","561","607852","0.0-1.0-765.0","0","0","27687","","null","","","null","84","","","","","","","","","","","","","","","NaN",""
"","S1","","html-keyboard-response","562","608012","0.0-1.0-767.0","0","0","27687","","null","","","null","85","","","","","","","","","","","","","","","",""
"","ISI","","html-keyboard-response","563","610020","0.0-1.0-768.0","0","0","27687","","437","","","68","85","d","","","","","","","","","","","","","","",""
"","S2","","html-keyboard-response","564","610179","0.0-1.0-769.0","0","0","27687","","null","","","null","85","","NaN","","","","","","","","","","","","","",""
"","response","","html-keyboard-response","565","610419","0.0-1.0-770.0-0.0","0","0","27687","","236","","","75","85","","","2","85","training","adjacent","DC","4","3","P.jpg","R.jpg","1","0","0","",""
"","feedback","","html-keyboard-response","566","611430","0.0-1.0-771.0-0.0","0","0","27687","","null","","","null","85","","","","","","","","","","","","","","","",""
"","time_out","","html-keyboard-response","567","613446","0.0-1.0-773.0-0.0","0","0","27687","","null","","","null","85","","","","","","","","","","","","","","","",""
"","ITI","","html-keyboard-response","568","614459","0.0-1.0-774.0","0","0","27687","","null","","","null","85","","","","","","","","","","","","","","","NaN",""
"","S1","","html-keyboard-response","569","614619","0.0-1.0-776.0","0","0","27687","","null","","","null","86","","","","","","","","","","","","","","","",""
"","ISI","","html-keyboard-response","570","616630","0.0-1.0-777.0","0","0","27687","","232","","","68","86","d","","","","","","","","","","","","","","",""
"","S2","","html-keyboard-response","571","616790","0.0-1.0-778.0","0","0","27687","","null","","","null","86","","NaN","","","","","","","","","","","","","",""
"","response","","html-keyboard-response","572","616954","0.0-1.0-779.0-0.0","0","0","27687","","159","","","68","86","","","2","86","training","adjacent","CD","3","4","R.jpg","P.jpg","0","1","0","",""
"","feedback","","html-keyboard-response","573","617963","0.0-1.0-780.0-0.0","0","0","27687","","null","","","null","86","","","","","","","","","","","","","","","",""
"","time_out","","html-keyboard-response","574","619971","0.0-1.0-782.0-0.0","0","0","27687","","null","","","null","86","","","","","","","","","","","","","","","",""
"","ITI","","html-keyboard-response","575","620981","0.0-1.0-783.0","0","0","27687","","null","","","null","86","","","","","","","","","","","","","","","NaN",""
"","S1","","html-keyboard-response","576","621141","0.0-1.0-785.0","0","0","27687","","null","","","null","87","","","","","","","","","","","","","","","",""
"","ISI","","html-keyboard-response","577","623158","0.0-1.0-786.0","0","0","27687","","null","","","null","87","NaN","","","","","","","","","","","","","","",""
"","S2","","html-keyboard-response","578","623317","0.0-1.0-787.0","0","0","27687","","null","","","null","87","","NaN","","","","","","","","","","","","","",""
"","response","","html-keyboard-response","579","623511","0.0-1.0-788.0-0.0","0","0","27687","","189","","","75","87","","","2","87","training","adjacent","DE","4","5","P.jpg","N.jpg","1","1","1","",""
