"success","ttype","start_time","trial_type","trial_index","time_elapsed","internal_node_id","warning","missed_checkup","PID","view_history","rt","responses","repeat_instructions","key_press","index","keypress_isi","keypress_S2","block","trial_num","phase","group_type","pair_type","S1_stim","S2_stim","S1_img","S2_img","S1_chosen","S1_higher","accuracy","keypress_iti","total_bonus_tally"
"true","full_screen","d03032023hr2007","fullscreen","0","17597","0.0-0.0","0","0","15615","","","","","","","","","","","","","","","","","","","","","",""
"","instructions","","instructions","1","94490","0.0-1.0-0.0-0.0","0","0","15615","[{""page_index"":0,""viewing_time"":7457},{""page_index"":1,""viewing_time"":53732},{""page_index"":2,""viewing_time"":7585},{""page_index"":3,""viewing_time"":8102}]","76877","","","","","","","","","","","","","","","","","","","",""
"","comprehension_check","","survey-multi-choice","2","216436","0.0-1.0-0.0-1.0","0","0","15615","","121928","{""Q0"":""True"",""Q1"":""D"",""Q2"":""Only when the screen 'MAKE A CHOICE' is shown"",""Q3"":""Green mark"",""Q4"":""either D or K""}","1","","","","","","","","","","","","","","","","","",""
"","missed_instruction_checkup","","html-keyboard-response","3","220712","0.0-1.0-0.0-2.0-0.0","0","1","15615","","4261","","","32","","","","","","","","","","","","","","","","",""
"","instructions","","instructions","4","244679","0.0-1.0-0.1-0.1","0","0","15615","[{""page_index"":0,""viewing_time"":2483},{""page_index"":1,""viewing_time"":12844},{""page_index"":2,""viewing_time"":6385},{""page_index"":3,""viewing_time"":2244}]","23956","","","","","","","","","","","","","","","","","","","",""
"","comprehension_check","","survey-multi-choice","5","257573","0.0-1.0-0.1-1.1","0","0","15615","","12872","{""Q0"":""True"",""Q1"":""K"",""Q2"":""Only when the screen 'MAKE A CHOICE' is shown"",""Q3"":""Green mark"",""Q4"":""either D or K""}","1","","","","","","","","","","","","","","","","","",""
"","missed_instruction_checkup","","html-keyboard-response","6","262297","0.0-1.0-0.1-2.1-0.1","0","1","15615","","4715","","","32","","","","","","","","","","","","","","","","",""
"","instructions","","instructions","7","270585","0.0-1.0-0.2-0.2","0","0","15615","[{""page_index"":0,""viewing_time"":3077},{""page_index"":1,""viewing_time"":1855},{""page_index"":2,""viewing_time"":1367},{""page_index"":3,""viewing_time"":1985}]","8284","","","","","","","","","","","","","","","","","","","",""
"","comprehension_check","","survey-multi-choice","8","285687","0.0-1.0-0.2-1.2","0","0","15615","","15087","{""Q0"":""True"",""Q1"":""K"",""Q2"":""Once the second image appears and while the screen 'MAKE A CHOICE' is shown"",""Q3"":""Green mark"",""Q4"":""either D or K""}","0","","","","","","","","","","","","","","","","","",""
"","start_exp","","html-keyboard-response","9","289123","0.0-1.0-1.0","0","0","15615","","3430","","","32","","","","","","","","","","","","","","","","",""
"","S1","","html-keyboard-response","10","289379","0.0-1.0-2.0","0","0","15615","","null","","","null","0","","","","","","","","","","","","","","","",""
"","ISI","","html-keyboard-response","11","289882","0.0-1.0-3.0","0","0","15615","","null","","","null","0","NaN","","","","","","","","","","","","","","",""
"","S2","","html-keyboard-response","12","290136","0.0-1.0-4.0","0","0","15615","","null","","","null","0","","NaN","","","","","","","","","","","","","",""
"","response","","html-keyboard-response","13","291892","0.0-1.0-5.0-0.0","0","0","15615","","null","","","null","0","","","1","0","training","adjacent","CB","3","2","Q.jpg","P.jpg","NaN","0","0","",""
"","too_slow_prompt","","html-keyboard-response","14","292897","0.0-1.0-7.0-0.0","1","0","15615","","null","","","null","","","","","","","","","","","","","","","","",""
"","time_out","","html-keyboard-response","15","294903","0.0-1.0-8.0-0.0","0","0","15615","","null","","","null","0","","","","","","","","","","","","","","","",""
"","ITI","","html-keyboard-response","16","295909","0.0-1.0-9.0","0","0","15615","","null","","","null","0","","","","","","","","","","","","","","","NaN",""
"","S1","","html-keyboard-response","17","296168","0.0-1.0-11.0","0","0","15615","","null","","","null","1","","","","","","","","","","","","","","","",""
"","ISI","","html-keyboard-response","18","296673","0.0-1.0-12.0","0","0","15615","","476","","","75","1","k","","","","","","","","","","","","","","",""
"","S2","","html-keyboard-response","19","296930","0.0-1.0-13.0","0","0","15615","","null","","","null","1","","NaN","","","","","","","","","","","","","",""
"","response","","html-keyboard-response","20","297530","0.0-1.0-14.0-0.0","0","0","15615","","595","","","75","1","","","1","1","training","adjacent","AB","1","2","N.jpg","P.jpg","1","1","1","",""
"","feedback","","html-keyboard-response","21","298534","0.0-1.0-15.0-0.0","0","0","15615","","null","","","null","1","","","","","","","","","","","","","","","",""
"","ITI","","html-keyboard-response","22","299540","0.0-1.0-18.0","0","0","15615","","null","","","null","1","","","","","","","","","","","","","","","NaN",""
"","S1","","html-keyboard-response","23","299794","0.0-1.0-20.0","0","0","15615","","null","","","null","2","","","","","","","","","","","","","","","",""
"","ISI","","html-keyboard-response","24","300297","0.0-1.0-21.0","0","0","15615","","497","","","75","2","k","","","","","","","","","","","","","","",""
"","S2","","html-keyboard-response","25","300551","0.0-1.0-22.0","0","0","15615","","null","","","null","2","","NaN","","","","","","","","","","","","","",""
"","response","","html-keyboard-response","26","300755","0.0-1.0-23.0-0.0","0","0","15615","","199","","","75","2","","","1","2","training","adjacent","DE","4","5","O.jpg","R.jpg","1","1","1","",""
"","feedback","","html-keyboard-response","27","301758","0.0-1.0-24.0-0.0","0","0","15615","","null","","","null","2","","","","","","","","","","","","","","","",""
"","ITI","","html-keyboard-response","28","302761","0.0-1.0-27.0","0","0","15615","","156","","","75","2","","","","","","","","","","","","","","","k",""
"","S1","","html-keyboard-response","29","303015","0.0-1.0-29.0","0","0","15615","","null","","","null","3","","","","","","","","","","","","","","","",""
"","ISI","","html-keyboard-response","30","303521","0.0-1.0-30.0","0","0","15615","","242","","","75","3","k","","","","","","","","","","","","","","",""
"","S2","","html-keyboard-response","31","303710","0.0-1.0-31.0","0","0","15615","","185","","","75","3","","k","1","3","training","adjacent","FE","6","5","L.jpg","R.jpg","1","0","0","",""
"","feedback","","html-keyboard-response","32","304716","0.0-1.0-33.0-0.0","0","0","15615","","null","","","null","3","","","","","","","","","","","","","","","",""
"","time_out","","html-keyboard-response","33","306721","0.0-1.0-35.0-0.0","0","0","15615","","null","","","null","3","","","","","","","","","","","","","","","",""
"","ITI","","html-keyboard-response","34","307784","0.0-1.0-36.0","0","0","15615","","null","","","null","3","","","","","","","","","","","","","","","NaN",""
"","S1","","html-keyboard-response","35","308043","0.0-1.0-38.0","0","0","15615","","null","","","null","4","","","","","","","","","","","","","","","",""
"","ISI","","html-keyboard-response","36","308545","0.0-1.0-39.0","0","0","15615","","317","","","68","4","d","","","","","","","","","","","","","","",""
"","S2","","html-keyboard-response","37","308799","0.0-1.0-40.0","0","0","15615","","null","","","null","4","","NaN","","","","","","","","","","","","","",""
"","response","","html-keyboard-response","38","309082","0.0-1.0-41.0-0.0","0","0","15615","","279","","","68","4","","","1","4","training","adjacent","DC","4","3","O.jpg","Q.jpg","0","0","1","",""
"","feedback","","html-keyboard-response","39","310086","0.0-1.0-42.0-0.0","0","0","15615","","null","","","null","4","","","","","","","","","","","","","","","",""
"","ITI","","html-keyboard-response","40","311089","0.0-1.0-45.0","0","0","15615","","null","","","null","4","","","","","","","","","","","","","","","NaN",""
"","S1","","html-keyboard-response","41","311347","0.0-1.0-47.0","0","0","15615","","null","","","null","5","","","","","","","","","","","","","","","",""
"","ISI","","html-keyboard-response","42","311852","0.0-1.0-48.0","0","0","15615","","null","","","null","5","NaN","","","","","","","","","","","","","","",""
"","S2","","html-keyboard-response","43","312113","0.0-1.0-49.0","0","0","15615","","null","","","null","5","","NaN","","","","","","","","","","","","","",""
"","response","","html-keyboard-response","44","312506","0.0-1.0-50.0-0.0","0","0","15615","","387","","","68","5","","","1","5","training","adjacent","DE","4","5","O.jpg","R.jpg","0","1","0","",""
"","feedback","","html-keyboard-response","45","313513","0.0-1.0-51.0-0.0","0","0","15615","","null","","","null","5","","","","","","","","","","","","","","","",""
"","time_out","","html-keyboard-response","46","315519","0.0-1.0-53.0-0.0","0","0","15615","","null","","","null","5","","","","","","","","","","","","","","","",""
"","ITI","","html-keyboard-response","47","316524","0.0-1.0-54.0","0","0","15615","","null","","","null","5","","","","","","","","","","","","","","","NaN",""
"","S1","","html-keyboard-response","48","316779","0.0-1.0-56.0","0","0","15615","","null","","","null","6","","","","","","","","","","","","","","","",""
"","ISI","","html-keyboard-response","49","317283","0.0-1.0-57.0","0","0","15615","","null","","","null","6","NaN","","","","","","","","","","","","","","",""
"","S2","","html-keyboard-response","50","317538","0.0-1.0-58.0","0","0","15615","","null","","","null","6","","NaN","","","","","","","","","","","","","",""
"","response","","html-keyboard-response","51","317785","0.0-1.0-59.0-0.0","0","0","15615","","241","","","75","6","","","1","6","training","adjacent","EF","5","6","R.jpg","L.jpg","1","1","1","",""
"","feedback","","html-keyboard-response","52","318790","0.0-1.0-60.0-0.0","0","0","15615","","null","","","null","6","","","","","","","","","","","","","","","",""
"","ITI","","html-keyboard-response","53","319795","0.0-1.0-63.0","0","0","15615","","null","","","null","6","","","","","","","","","","","","","","","NaN",""
"","S1","","html-keyboard-response","54","320050","0.0-1.0-65.0","0","0","15615","","null","","","null","7","","","","","","","","","","","","","","","",""
"","ISI","","html-keyboard-response","55","320554","0.0-1.0-66.0","0","0","15615","","null","","","null","7","NaN","","","","","","","","","","","","","","",""
"","S2","","html-keyboard-response","56","320809","0.0-1.0-67.0","0","0","15615","","null","","","null","7","","NaN","","","","","","","","","","","","","",""
"","response","","html-keyboard-response","57","321141","0.0-1.0-68.0-0.0","0","0","15615","","329","","","68","7","","","1","7","training","adjacent","GF","7","6","M.jpg","L.jpg","0","0","1","",""
"","feedback","","html-keyboard-response","58","322151","0.0-1.0-69.0-0.0","0","0","15615","","null","","","null","7","","","","","","","","","","","","","","","",""
"","ITI","","html-keyboard-response","59","323156","0.0-1.0-72.0","0","0","15615","","null","","","null","7","","","","","","","","","","","","","","","NaN",""
"","S1","","html-keyboard-response","60","323410","0.0-1.0-74.0","0","0","15615","","null","","","null","8","","","","","","","","","","","","","","","",""
"","ISI","","html-keyboard-response","61","323915","0.0-1.0-75.0","0","0","15615","","null","","","null","8","NaN","","","","","","","","","","","","","","",""
"","S2","","html-keyboard-response","62","324290","0.0-1.0-76.0","0","0","15615","","null","","","null","8","","NaN","","","","","","","","","","","","","",""
"","response","","html-keyboard-response","63","324412","0.0-1.0-77.0-0.0","0","0","15615","","29","","","75","8","","","1","8","training","adjacent","DC","4","3","O.jpg","Q.jpg","1","0","0","",""
"","feedback","","html-keyboard-response","64","325419","0.0-1.0-78.0-0.0","0","0","15615","","null","","","null","8","","","","","","","","","","","","","","","",""
"","time_out","","html-keyboard-response","65","327447","0.0-1.0-80.0-0.0","0","0","15615","","null","","","null","8","","","","","","","","","","","","","","","",""
"","ITI","","html-keyboard-response","66","328484","0.0-1.0-81.0","0","0","15615","","null","","","null","8","","","","","","","","","","","","","","","NaN",""
"","S1","","html-keyboard-response","67","328739","0.0-1.0-83.0","0","0","15615","","null","","","null","9","","","","","","","","","","","","","","","",""
"","ISI","","html-keyboard-response","68","329296","0.0-1.0-84.0","0","0","15615","","null","","","null","9","NaN","","","","","","","","","","","","","","",""
"","S2","","html-keyboard-response","69","329550","0.0-1.0-85.0","0","0","15615","","null","","","null","9","","NaN","","","","","","","","","","","","","",""
"","response","","html-keyboard-response","70","330093","0.0-1.0-86.0-0.0","0","0","15615","","537","","","75","9","","","1","9","training","adjacent","FE","6","5","L.jpg","R.jpg","1","0","0","",""
"","feedback","","html-keyboard-response","71","331097","0.0-1.0-87.0-0.0","0","0","15615","","null","","","null","9","","","","","","","","","","","","","","","",""
"","time_out","","html-keyboard-response","72","333110","0.0-1.0-89.0-0.0","0","0","15615","","null","","","null","9","","","","","","","","","","","","","","","",""
"","ITI","","html-keyboard-response","73","334115","0.0-1.0-90.0","0","0","15615","","null","","","null","9","","","","","","","","","","","","","","","NaN",""
"","S1","","html-keyboard-response","74","334369","0.0-1.0-92.0","0","0","15615","","null","","","null","10","","","","","","","","","","","","","","","",""
"","ISI","","html-keyboard-response","75","334873","0.0-1.0-93.0","0","0","15615","","null","","","null","10","NaN","","","","","","","","","","","","","","",""
"","S2","","html-keyboard-response","76","335171","0.0-1.0-94.0","0","0","15615","","null","","","null","10","","NaN","","","","","","","","","","","","","",""
"","response","","html-keyboard-response","77","335546","0.0-1.0-95.0-0.0","0","0","15615","","370","","","68","10","","","1","10","training","adjacent","DE","4","5","O.jpg","R.jpg","0","1","0","",""
"","feedback","","html-keyboard-response","78","336550","0.0-1.0-96.0-0.0","0","0","15615","","null","","","null","10","","","","","","","","","","","","","","","",""
"","time_out","","html-keyboard-response","79","338555","0.0-1.0-98.0-0.0","0","0","15615","","null","","","null","10","","","","","","","","","","","","","","","",""
"","ITI","","html-keyboard-response","80","339600","0.0-1.0-99.0","0","0","15615","","null","","","null","10","","","","","","","","","","","","","","","NaN",""
"","S1","","html-keyboard-response","81","339875","0.0-1.0-101.0","0","0","15615","","null","","","null","11","","","","","","","","","","","","","","","",""
"","ISI","","html-keyboard-response","82","340393","0.0-1.0-102.0","0","0","15615","","null","","","null","11","NaN","","","","","","","","","","","","","","",""
"","S2","","html-keyboard-response","83","340649","0.0-1.0-103.0","0","0","15615","","null","","","null","11","","NaN","","","","","","","","","","","","","",""
"","response","","html-keyboard-response","84","340982","0.0-1.0-104.0-0.0","0","0","15615","","328","","","75","11","","","1","11","training","adjacent","AB","1","2","N.jpg","P.jpg","1","1","1","",""
"","feedback","","html-keyboard-response","85","341986","0.0-1.0-105.0-0.0","0","0","15615","","null","","","null","11","","","","","","","","","","","","","","","",""
"","ITI","","html-keyboard-response","86","342991","0.0-1.0-108.0","0","0","15615","","null","","","null","11","","","","","","","","","","","","","","","NaN",""
"","S1","","html-keyboard-response","87","343350","0.0-1.0-110.0","0","0","15615","","null","","","null","12","","","","","","","","","","","","","","","",""
"","ISI","","html-keyboard-response","88","343854","0.0-1.0-111.0","0","0","15615","","null","","","null","12","NaN","","","","","","","","","","","","","","",""
"","S2","","html-keyboard-response","89","344110","0.0-1.0-112.0","0","0","15615","","null","","","null","12","","NaN","","","","","","","","","","","","","",""
"","response","","html-keyboard-response","90","344339","0.0-1.0-113.0-0.0","0","0","15615","","225","","","75","12","","","1","12","training","adjacent","EF","5","6","R.jpg","L.jpg","1","1","1","",""
"","feedback","","html-keyboard-response","91","345343","0.0-1.0-114.0-0.0","0","0","15615","","null","","","null","12","","","","","","","","","","","","","","","",""
"","ITI","","html-keyboard-response","92","346388","0.0-1.0-117.0","0","0","15615","","null","","","null","12","","","","","","","","","","","","","","","NaN",""
"","S1","","html-keyboard-response","93","346642","0.0-1.0-119.0","0","0","15615","","null","","","null","13","","","","","","","","","","","","","","","",""
"","ISI","","html-keyboard-response","94","347157","0.0-1.0-120.0","0","0","15615","","null","","","null","13","NaN","","","","","","","","","","","","","","",""
"","S2","","html-keyboard-response","95","347414","0.0-1.0-121.0","0","0","15615","","null","","","null","13","","NaN","","","","","","","","","","","","","",""
"","response","","html-keyboard-response","96","347832","0.0-1.0-122.0-0.0","0","0","15615","","408","","","75","13","","","1","13","training","adjacent","DC","4","3","O.jpg","Q.jpg","1","0","0","",""
"","feedback","","html-keyboard-response","97","348840","0.0-1.0-123.0-0.0","0","0","15615","","null","","","null","13","","","","","","","","","","","","","","","",""
"","time_out","","html-keyboard-response","98","350842","0.0-1.0-125.0-0.0","0","0","15615","","null","","","null","13","","","","","","","","","","","","","","","",""
"","ITI","","html-keyboard-response","99","351848","0.0-1.0-126.0","0","0","15615","","null","","","null","13","","","","","","","","","","","","","","","NaN",""
"","S1","","html-keyboard-response","100","352104","0.0-1.0-128.0","0","0","15615","","null","","","null","14","","","","","","","","","","","","","","","",""
"","ISI","","html-keyboard-response","101","352608","0.0-1.0-129.0","0","0","15615","","null","","","null","14","NaN","","","","","","","","","","","","","","",""
"","S2","","html-keyboard-response","102","352864","0.0-1.0-130.0","0","0","15615","","null","","","null","14","","NaN","","","","","","","","","","","","","",""
"","response","","html-keyboard-response","103","353165","0.0-1.0-131.0-0.0","0","0","15615","","298","","","75","14","","","1","14","training","adjacent","FG","6","7","L.jpg","M.jpg","1","1","1","",""
"","feedback","","html-keyboard-response","104","354174","0.0-1.0-132.0-0.0","0","0","15615","","null","","","null","14","","","","","","","","","","","","","","","",""
"","ITI","","html-keyboard-response","105","355182","0.0-1.0-135.0","0","0","15615","","null","","","null","14","","","","","","","","","","","","","","","NaN",""
"","S1","","html-keyboard-response","106","355439","0.0-1.0-137.0","0","0","15615","","null","","","null","15","","","","","","","","","","","","","","","",""
"","ISI","","html-keyboard-response","107","355944","0.0-1.0-138.0","0","0","15615","","null","","","null","15","NaN","","","","","","","","","","","","","","",""
"","S2","","html-keyboard-response","108","356199","0.0-1.0-139.0","0","0","15615","","null","","","null","15","","NaN","","","","","","","","","","","","","",""
"","response","","html-keyboard-response","109","356479","0.0-1.0-140.0-0.0","0","0","15615","","277","","","75","15","","","1","15","training","adjacent","GF","7","6","M.jpg","L.jpg","1","0","0","",""
"","feedback","","html-keyboard-response","110","357484","0.0-1.0-141.0-0.0","0","0","15615","","null","","","null","15","","","","","","","","","","","","","","","",""
"","time_out","","html-keyboard-response","111","359489","0.0-1.0-143.0-0.0","0","0","15615","","null","","","null","15","","","","","","","","","","","","","","","",""
"","ITI","","html-keyboard-response","112","360494","0.0-1.0-144.0","0","0","15615","","null","","","null","15","","","","","","","","","","","","","","","NaN",""
"","S1","","html-keyboard-response","113","360755","0.0-1.0-146.0","0","0","15615","","null","","","null","16","","","","","","","","","","","","","","","",""
"","ISI","","html-keyboard-response","114","361260","0.0-1.0-147.0","0","0","15615","","null","","","null","16","NaN","","","","","","","","","","","","","","",""
"","S2","","html-keyboard-response","115","361514","0.0-1.0-148.0","0","0","15615","","null","","","null","16","","NaN","","","","","","","","","","","","","",""
"","response","","html-keyboard-response","116","361754","0.0-1.0-149.0-0.0","0","0","15615","","235","","","68","16","","","1","16","training","adjacent","AB","1","2","N.jpg","P.jpg","0","1","0","",""
"","feedback","","html-keyboard-response","117","362759","0.0-1.0-150.0-0.0","0","0","15615","","null","","","null","16","","","","","","","","","","","","","","","",""
"","time_out","","html-keyboard-response","118","364768","0.0-1.0-152.0-0.0","0","0","15615","","null","","","null","16","","","","","","","","","","","","","","","",""
"","ITI","","html-keyboard-response","119","365776","0.0-1.0-153.0","0","0","15615","","null","","","null","16","","","","","","","","","","","","","","","NaN",""
"","S1","","html-keyboard-response","120","366031","0.0-1.0-155.0","0","0","15615","","null","","","null","17","","","","","","","","","","","","","","","",""
"","ISI","","html-keyboard-response","121","366535","0.0-1.0-156.0","0","0","15615","","null","","","null","17","NaN","","","","","","","","","","","","","","",""
"","S2","","html-keyboard-response","122","366790","0.0-1.0-157.0","0","0","15615","","null","","","null","17","","NaN","","","","","","","","","","","","","",""
"","response","","html-keyboard-response","123","367143","0.0-1.0-158.0-0.0","0","0","15615","","349","","","75","17","","","1","17","training","adjacent","FG","6","7","L.jpg","M.jpg","1","1","1","",""
"","feedback","","html-keyboard-response","124","368151","0.0-1.0-159.0-0.0","0","0","15615","","null","","","null","17","","","","","","","","","","","","","","","",""
"","ITI","","html-keyboard-response","125","369155","0.0-1.0-162.0","0","0","15615","","null","","","null","17","","","","","","","","","","","","","","","NaN",""
"","S1","","html-keyboard-response","126","369410","0.0-1.0-164.0","0","0","15615","","null","","","null","18","","","","","","","","","","","","","","","",""
"","ISI","","html-keyboard-response","127","369914","0.0-1.0-165.0","0","0","15615","","null","","","null","18","NaN","","","","","","","","","","","","","","",""
"","S2","","html-keyboard-response","128","370168","0.0-1.0-166.0","0","0","15615","","null","","","null","18","","NaN","","","","","","","","","","","","","",""
"","response","","html-keyboard-response","129","370579","0.0-1.0-167.0-0.0","0","0","15615","","407","","","75","18","","","1","18","training","adjacent","FG","6","7","L.jpg","M.jpg","1","1","1","",""
"","feedback","","html-keyboard-response","130","371585","0.0-1.0-168.0-0.0","0","0","15615","","null","","","null","18","","","","","","","","","","","","","","","",""
"","ITI","","html-keyboard-response","131","372589","0.0-1.0-171.0","0","0","15615","","null","","","null","18","","","","","","","","","","","","","","","NaN",""
"","S1","","html-keyboard-response","132","372843","0.0-1.0-173.0","0","0","15615","","null","","","null","19","","","","","","","","","","","","","","","",""
"","ISI","","html-keyboard-response","133","373348","0.0-1.0-174.0","0","0","15615","","null","","","null","19","NaN","","","","","","","","","","","","","","",""
"","S2","","html-keyboard-response","134","373523","0.0-1.0-175.0","0","0","15615","","173","","","75","19","","k","1","19","training","adjacent","DC","4","3","O.jpg","Q.jpg","1","0","0","",""
"","feedback","","html-keyboard-response","135","374528","0.0-1.0-177.0-0.0","0","0","15615","","null","","","null","19","","","","","","","","","","","","","","","",""
"","time_out","","html-keyboard-response","136","376532","0.0-1.0-179.0-0.0","0","0","15615","","null","","","null","19","","","","","","","","","","","","","","","",""
"","ITI","","html-keyboard-response","137","377537","0.0-1.0-180.0","0","0","15615","","null","","","null","19","","","","","","","","","","","","","","","NaN",""
"","S1","","html-keyboard-response","138","377792","0.0-1.0-182.0","0","0","15615","","null","","","null","20","","","","","","","","","","","","","","","",""
"","ISI","","html-keyboard-response","139","378304","0.0-1.0-183.0","0","0","15615","","null","","","null","20","NaN","","","","","","","","","","","","","","",""
"","S2","","html-keyboard-response","140","378574","0.0-1.0-184.0","0","0","15615","","null","","","null","20","","NaN","","","","","","","","","","","","","",""
"","response","","html-keyboard-response","141","378841","0.0-1.0-185.0-0.0","0","0","15615","","256","","","68","20","","","1","20","training","adjacent","EF","5","6","R.jpg","L.jpg","0","1","0","",""
"","feedback","","html-keyboard-response","142","379845","0.0-1.0-186.0-0.0","0","0","15615","","null","","","null","20","","","","","","","","","","","","","","","",""
"","time_out","","html-keyboard-response","143","381850","0.0-1.0-188.0-0.0","0","0","15615","","null","","","null","20","","","","","","","","","","","","","","","",""
"","ITI","","html-keyboard-response","144","382856","0.0-1.0-189.0","0","0","15615","","null","","","null","20","","","","","","","","","","","","","","","NaN",""
"","S1","","html-keyboard-response","145","383121","0.0-1.0-191.0","0","0","15615","","null","","","null","21","","","","","","","","","","","","","","","",""
"","ISI","","html-keyboard-response","146","383624","0.0-1.0-192.0","0","0","15615","","null","","","null","21","NaN","","","","","","","","","","","","","","",""
"","S2","","html-keyboard-response","147","383878","0.0-1.0-193.0","0","0","15615","","null","","","null","21","","NaN","","","","","","","","","","","","","",""
"","response","","html-keyboard-response","148","384117","0.0-1.0-194.0-0.0","0","0","15615","","234","","","75","21","","","1","21","training","adjacent","ED","5","4","R.jpg","O.jpg","1","0","0","",""
"","feedback","","html-keyboard-response","149","385124","0.0-1.0-195.0-0.0","0","0","15615","","null","","","null","21","","","","","","","","","","","","","","","",""
"","time_out","","html-keyboard-response","150","387129","0.0-1.0-197.0-0.0","0","0","15615","","null","","","null","21","","","","","","","","","","","","","","","",""
"","ITI","","html-keyboard-response","151","388132","0.0-1.0-198.0","0","0","15615","","null","","","null","21","","","","","","","","","","","","","","","NaN",""
"","S1","","html-keyboard-response","152","388386","0.0-1.0-200.0","0","0","15615","","null","","","null","22","","","","","","","","","","","","","","","",""
"","ISI","","html-keyboard-response","153","388890","0.0-1.0-201.0","0","0","15615","","null","","","null","22","NaN","","","","","","","","","","","","","","",""
"","S2","","html-keyboard-response","154","389144","0.0-1.0-202.0","0","0","15615","","null","","","null","22","","NaN","","","","","","","","","","","","","",""
"","response","","html-keyboard-response","155","389692","0.0-1.0-203.0-0.0","0","0","15615","","542","","","68","22","","","1","22","training","adjacent","BC","2","3","P.jpg","Q.jpg","0","1","0","",""
"","feedback","","html-keyboard-response","156","390697","0.0-1.0-204.0-0.0","0","0","15615","","null","","","null","22","","","","","","","","","","","","","","","",""
"","time_out","","html-keyboard-response","157","392701","0.0-1.0-206.0-0.0","0","0","15615","","null","","","null","22","","","","","","","","","","","","","","","",""
"","ITI","","html-keyboard-response","158","393706","0.0-1.0-207.0","0","0","15615","","null","","","null","22","","","","","","","","","","","","","","","NaN",""
"","S1","","html-keyboard-response","159","393960","0.0-1.0-209.0","0","0","15615","","null","","","null","23","","","","","","","","","","","","","","","",""
"","ISI","","html-keyboard-response","160","394477","0.0-1.0-210.0","0","0","15615","","null","","","null","23","NaN","","","","","","","","","","","","","","",""
"","S2","","html-keyboard-response","161","394748","0.0-1.0-211.0","0","0","15615","","null","","","null","23","","NaN","","","","","","","","","","","","","",""
"","response","","html-keyboard-response","162","395136","0.0-1.0-212.0-0.0","0","0","15615","","376","","","75","23","","","1","23","training","adjacent","CD","3","4","Q.jpg","O.jpg","1","1","1","",""
"","feedback","","html-keyboard-response","163","396145","0.0-1.0-213.0-0.0","0","0","15615","","null","","","null","23","","","","","","","","","","","","","","","",""
"","ITI","","html-keyboard-response","164","397149","0.0-1.0-216.0","0","0","15615","","null","","","null","23","","","","","","","","","","","","","","","NaN",""
"","S1","","html-keyboard-response","165","397414","0.0-1.0-218.0","0","0","15615","","null","","","null","24","","","","","","","","","","","","","","","",""
"","ISI","","html-keyboard-response","166","397917","0.0-1.0-219.0","0","0","15615","","null","","","null","24","NaN","","","","","","","","","","","","","","",""
"","S2","","html-keyboard-response","167","398175","0.0-1.0-220.0","0","0","15615","","null","","","null","24","","NaN","","","","","","","","","","","","","",""
"","response","","html-keyboard-response","168","398347","0.0-1.0-221.0-0.0","0","0","15615","","168","","","75","24","","","1","24","training","adjacent","BC","2","3","P.jpg","Q.jpg","1","1","1","",""
"","feedback","","html-keyboard-response","169","399353","0.0-1.0-222.0-0.0","0","0","15615","","null","","","null","24","","","","","","","","","","","","","","","",""
"","ITI","","html-keyboard-response","170","400357","0.0-1.0-225.0","0","0","15615","","null","","","null","24","","","","","","","","","","","","","","","NaN",""
"","S1","","html-keyboard-response","171","400610","0.0-1.0-227.0","0","0","15615","","null","","","null","25","","","","","","","","","","","","","","","",""
"","ISI","","html-keyboard-response","172","401114","0.0-1.0-228.0","0","0","15615","","null","","","null","25","NaN","","","","","","","","","","","","","","",""
"","S2","","html-keyboard-response","173","401377","0.0-1.0-229.0","0","0","15615","","null","","","null","25","","NaN","","","","","","","","","","","","","",""
"","response","","html-keyboard-response","174","401571","0.0-1.0-230.0-0.0","0","0","15615","","115","","","75","25","","","1","25","training","adjacent","FE","6","5","L.jpg","R.jpg","1","0","0","",""
"","feedback","","html-keyboard-response","175","402577","0.0-1.0-231.0-0.0","0","0","15615","","null","","","null","25","","","","","","","","","","","","","","","",""
"","time_out","","html-keyboard-response","176","404584","0.0-1.0-233.0-0.0","0","0","15615","","null","","","null","25","","","","","","","","","","","","","","","",""
"","ITI","","html-keyboard-response","177","405589","0.0-1.0-234.0","0","0","15615","","null","","","null","25","","","","","","","","","","","","","","","NaN",""
"","S1","","html-keyboard-response","178","405851","0.0-1.0-236.0","0","0","15615","","null","","","null","26","","","","","","","","","","","","","","","",""
"","ISI","","html-keyboard-response","179","406355","0.0-1.0-237.0","0","0","15615","","343","","","68","26","d","","","","","","","","","","","","","","",""
"","S2","","html-keyboard-response","180","406611","0.0-1.0-238.0","0","0","15615","","null","","","null","26","","NaN","","","","","","","","","","","","","",""
"","response","","html-keyboard-response","181","407375","0.0-1.0-239.0-0.0","0","0","15615","","758","","","68","26","","","1","26","training","adjacent","CD","3","4","Q.jpg","O.jpg","0","1","0","",""
"","feedback","","html-keyboard-response","182","408461","0.0-1.0-240.0-0.0","0","0","15615","","null","","","null","26","","","","","","","","","","","","","","","",""
"","time_out","","html-keyboard-response","183","410464","0.0-1.0-242.0-0.0","0","0","15615","","null","","","null","26","","","","","","","","","","","","","","","",""
"","ITI","","html-keyboard-response","184","411468","0.0-1.0-243.0","0","0","15615","","null","","","null","26","","","","","","","","","","","","","","","NaN",""
"","S1","","html-keyboard-response","185","411723","0.0-1.0-245.0","0","0","15615","","null","","","null","27","","","","","","","","","","","","","","","",""
"","ISI","","html-keyboard-response","186","412231","0.0-1.0-246.0","0","0","15615","","null","","","null","27","NaN","","","","","","","","","","","","","","",""
"","S2","","html-keyboard-response","187","412494","0.0-1.0-247.0","0","0","15615","","null","","","null","27","","NaN","","","","","","","","","","","","","",""
"","response","","html-keyboard-response","188","412757","0.0-1.0-248.0-0.0","0","0","15615","","252","","","75","27","","","1","27","training","adjacent","BA","2","1","P.jpg","N.jpg","1","0","0","",""
"","feedback","","html-keyboard-response","189","413764","0.0-1.0-249.0-0.0","0","0","15615","","null","","","null","27","","","","","","","","","","","","","","","",""
"","time_out","","html-keyboard-response","190","415770","0.0-1.0-251.0-0.0","0","0","15615","","null","","","null","27","","","","","","","","","","","","","","","",""
"","ITI","","html-keyboard-response","191","416774","0.0-1.0-252.0","0","0","15615","","null","","","null","27","","","","","","","","","","","","","","","NaN",""
"","S1","","html-keyboard-response","192","417028","0.0-1.0-254.0","0","0","15615","","null","","","null","28","","","","","","","","","","","","","","","",""
"","ISI","","html-keyboard-response","193","417573","0.0-1.0-255.0","0","0","15615","","null","","","null","28","NaN","","","","","","","","","","","","","","",""
"","S2","","html-keyboard-response","194","417836","0.0-1.0-256.0","0","0","15615","","null","","","null","28","","NaN","","","","","","","","","","","","","",""
"","response","","html-keyboard-response","195","418011","0.0-1.0-257.0-0.0","0","0","15615","","172","","","68","28","","","1","28","training","adjacent","BA","2","1","P.jpg","N.jpg","0","0","1","",""
"","feedback","","html-keyboard-response","196","419017","0.0-1.0-258.0-0.0","0","0","15615","","null","","","null","28","","","","","","","","","","","","","","","",""
"","ITI","","html-keyboard-response","197","420023","0.0-1.0-261.0","0","0","15615","","null","","","null","28","","","","","","","","","","","","","","","NaN",""
"","S1","","html-keyboard-response","198","420288","0.0-1.0-263.0","0","0","15615","","null","","","null","29","","","","","","","","","","","","","","","",""
"","ISI","","html-keyboard-response","199","420793","0.0-1.0-264.0","0","0","15615","","null","","","null","29","NaN","","","","","","","","","","","","","","",""
"","S2","","html-keyboard-response","200","421047","0.0-1.0-265.0","0","0","15615","","null","","","null","29","","NaN","","","","","","","","","","","","","",""
"","response","","html-keyboard-response","201","421368","0.0-1.0-266.0-0.0","0","0","15615","","317","","","68","29","","","1","29","training","adjacent","EF","5","6","R.jpg","L.jpg","0","1","0","",""
"","feedback","","html-keyboard-response","202","422374","0.0-1.0-267.0-0.0","0","0","15615","","null","","","null","29","","","","","","","","","","","","","","","",""
"","time_out","","html-keyboard-response","203","424384","0.0-1.0-269.0-0.0","0","0","15615","","null","","","null","29","","","","","","","","","","","","","","","",""
"","ITI","","html-keyboard-response","204","425390","0.0-1.0-270.0","0","0","15615","","null","","","null","29","","","","","","","","","","","","","","","NaN",""
"","S1","","html-keyboard-response","205","425644","0.0-1.0-272.0","0","0","15615","","null","","","null","30","","","","","","","","","","","","","","","",""
"","ISI","","html-keyboard-response","206","426148","0.0-1.0-273.0","0","0","15615","","null","","","null","30","NaN","","","","","","","","","","","","","","",""
"","S2","","html-keyboard-response","207","426402","0.0-1.0-274.0","0","0","15615","","null","","","null","30","","NaN","","","","","","","","","","","","","",""
"","response","","html-keyboard-response","208","426649","0.0-1.0-275.0-0.0","0","0","15615","","243","","","75","30","","","1","30","training","adjacent","BC","2","3","P.jpg","Q.jpg","1","1","1","",""
"","feedback","","html-keyboard-response","209","427675","0.0-1.0-276.0-0.0","0","0","15615","","null","","","null","30","","","","","","","","","","","","","","","",""
"","ITI","","html-keyboard-response","210","428685","0.0-1.0-279.0","0","0","15615","","null","","","null","30","","","","","","","","","","","","","","","NaN",""
"","S1","","html-keyboard-response","211","428939","0.0-1.0-281.0","0","0","15615","","null","","","null","31","","","","","","","","","","","","","","","",""
"","ISI","","html-keyboard-response","212","429442","0.0-1.0-282.0","0","0","15615","","null","","","null","31","NaN","","","","","","","","","","","","","","",""
"","S2","","html-keyboard-response","213","429698","0.0-1.0-283.0","0","0","15615","","null","","","null","31","","NaN","","","","","","","","","","","","","",""
"","response","","html-keyboard-response","214","430109","0.0-1.0-284.0-0.0","0","0","15615","","405","","","75","31","","","1","31","training","adjacent","FE","6","5","L.jpg","R.jpg","1","0","0","",""
"","feedback","","html-keyboard-response","215","431117","0.0-1.0-285.0-0.0","0","0","15615","","null","","","null","31","","","","","","","","","","","","","","","",""
"","time_out","","html-keyboard-response","216","433124","0.0-1.0-287.0-0.0","0","0","15615","","null","","","null","31","","","","","","","","","","","","","","","",""
"","ITI","","html-keyboard-response","217","434130","0.0-1.0-288.0","0","0","15615","","null","","","null","31","","","","","","","","","","","","","","","NaN",""
"","S1","","html-keyboard-response","218","434384","0.0-1.0-290.0","0","0","15615","","null","","","null","32","","","","","","","","","","","","","","","",""
"","ISI","","html-keyboard-response","219","434888","0.0-1.0-291.0","0","0","15615","","null","","","null","32","NaN","","","","","","","","","","","","","","",""
"","S2","","html-keyboard-response","220","435147","0.0-1.0-292.0","0","0","15615","","null","","","null","32","","NaN","","","","","","","","","","","","","",""
"","response","","html-keyboard-response","221","435293","0.0-1.0-293.0-0.0","0","0","15615","","140","","","68","32","","","1","32","training","adjacent","CD","3","4","Q.jpg","O.jpg","0","1","0","",""
"","feedback","","html-keyboard-response","222","436298","0.0-1.0-294.0-0.0","0","0","15615","","null","","","null","32","","","","","","","","","","","","","","","",""
"","time_out","","html-keyboard-response","223","438316","0.0-1.0-296.0-0.0","0","0","15615","","null","","","null","32","","","","","","","","","","","","","","","",""
"","ITI","","html-keyboard-response","224","439337","0.0-1.0-297.0","0","0","15615","","null","","","null","32","","","","","","","","","","","","","","","NaN",""
"","S1","","html-keyboard-response","225","439594","0.0-1.0-299.0","0","0","15615","","null","","","null","33","","","","","","","","","","","","","","","",""
"","ISI","","html-keyboard-response","226","440098","0.0-1.0-300.0","0","0","15615","","null","","","null","33","NaN","","","","","","","","","","","","","","",""
"","S2","","html-keyboard-response","227","440358","0.0-1.0-301.0","0","0","15615","","null","","","null","33","","NaN","","","","","","","","","","","","","",""
"","response","","html-keyboard-response","228","440748","0.0-1.0-302.0-0.0","0","0","15615","","380","","","75","33","","","1","33","training","adjacent","BA","2","1","P.jpg","N.jpg","1","0","0","",""
"","feedback","","html-keyboard-response","229","441752","0.0-1.0-303.0-0.0","0","0","15615","","null","","","null","33","","","","","","","","","","","","","","","",""
"","time_out","","html-keyboard-response","230","443757","0.0-1.0-305.0-0.0","0","0","15615","","null","","","null","33","","","","","","","","","","","","","","","",""
"","ITI","","html-keyboard-response","231","444761","0.0-1.0-306.0","0","0","15615","","null","","","null","33","","","","","","","","","","","","","","","NaN",""
"","S1","","html-keyboard-response","232","445014","0.0-1.0-308.0","0","0","15615","","null","","","null","34","","","","","","","","","","","","","","","",""
"","ISI","","html-keyboard-response","233","445517","0.0-1.0-309.0","0","0","15615","","null","","","null","34","NaN","","","","","","","","","","","","","","",""
"","S2","","html-keyboard-response","234","445773","0.0-1.0-310.0","0","0","15615","","null","","","null","34","","NaN","","","","","","","","","","","","","",""
"","response","","html-keyboard-response","235","446121","0.0-1.0-311.0-0.0","0","0","15615","","343","","","68","34","","","1","34","training","adjacent","CD","3","4","Q.jpg","O.jpg","0","1","0","",""
"","feedback","","html-keyboard-response","236","447125","0.0-1.0-312.0-0.0","0","0","15615","","null","","","null","34","","","","","","","","","","","","","","","",""
"","time_out","","html-keyboard-response","237","449128","0.0-1.0-314.0-0.0","0","0","15615","","null","","","null","34","","","","","","","","","","","","","","","",""
"","ITI","","html-keyboard-response","238","450134","0.0-1.0-315.0","0","0","15615","","null","","","null","34","","","","","","","","","","","","","","","NaN",""
"","S1","","html-keyboard-response","239","450387","0.0-1.0-317.0","0","0","15615","","null","","","null","35","","","","","","","","","","","","","","","",""
"","ISI","","html-keyboard-response","240","450891","0.0-1.0-318.0","0","0","15615","","null","","","null","35","NaN","","","","","","","","","","","","","","",""
"","S2","","html-keyboard-response","241","451275","0.0-1.0-319.0","0","0","15615","","null","","","null","35","","NaN","","","","","","","","","","","","","",""
"","response","","html-keyboard-response","242","451374","0.0-1.0-320.0-0.0","0","0","15615","","97","","","75","35","","","1","35","training","adjacent","AB","1","2","N.jpg","P.jpg","1","1","1","",""
"","feedback","","html-keyboard-response","243","452380","0.0-1.0-321.0-0.0","0","0","15615","","null","","","null","35","","","","","","","","","","","","","","","",""
"","ITI","","html-keyboard-response","244","453389","0.0-1.0-324.0","0","0","15615","","null","","","null","35","","","","","","","","","","","","","","","NaN",""
"","S1","","html-keyboard-response","245","453643","0.0-1.0-326.0","0","0","15615","","null","","","null","36","","","","","","","","","","","","","","","",""
"","ISI","","html-keyboard-response","246","454187","0.0-1.0-327.0","0","0","15615","","null","","","null","36","NaN","","","","","","","","","","","","","","",""
"","S2","","html-keyboard-response","247","454442","0.0-1.0-328.0","0","0","15615","","null","","","null","36","","NaN","","","","","","","","","","","","","",""
"","response","","html-keyboard-response","248","455245","0.0-1.0-329.0-0.0","0","0","15615","","798","","","75","36","","","1","36","training","adjacent","BC","2","3","P.jpg","Q.jpg","1","1","1","",""
"","feedback","","html-keyboard-response","249","456251","0.0-1.0-330.0-0.0","0","0","15615","","null","","","null","36","","","","","","","","","","","","","","","",""
"","ITI","","html-keyboard-response","250","457255","0.0-1.0-333.0","0","0","15615","","null","","","null","36","","","","","","","","","","","","","","","NaN",""
"","S1","","html-keyboard-response","251","457512","0.0-1.0-335.0","0","0","15615","","null","","","null","37","","","","","","","","","","","","","","","",""
"","ISI","","html-keyboard-response","252","458018","0.0-1.0-336.0","0","0","15615","","null","","","null","37","NaN","","","","","","","","","","","","","","",""
"","S2","","html-keyboard-response","253","458272","0.0-1.0-337.0","0","0","15615","","null","","","null","37","","NaN","","","","","","","","","","","","","",""
"","response","","html-keyboard-response","254","458594","0.0-1.0-338.0-0.0","0","0","15615","","319","","","68","37","","","1","37","training","adjacent","CB","3","2","Q.jpg","P.jpg","0","0","1","",""
"","feedback","","html-keyboard-response","255","459602","0.0-1.0-339.0-0.0","0","0","15615","","null","","","null","37","","","","","","","","","","","","","","","",""
"","ITI","","html-keyboard-response","256","460607","0.0-1.0-342.0","0","0","15615","","null","","","null","37","","","","","","","","","","","","","","","NaN",""
"","S1","","html-keyboard-response","257","460862","0.0-1.0-344.0","0","0","15615","","null","","","null","38","","","","","","","","","","","","","","","",""
"","ISI","","html-keyboard-response","258","461366","0.0-1.0-345.0","0","0","15615","","null","","","null","38","NaN","","","","","","","","","","","","","","",""
"","S2","","html-keyboard-response","259","461720","0.0-1.0-346.0","0","0","15615","","null","","","null","38","","NaN","","","","","","","","","","","","","",""
"","response","","html-keyboard-response","260","461894","0.0-1.0-347.0-0.0","0","0","15615","","166","","","68","38","","","1","38","training","adjacent","CB","3","2","Q.jpg","P.jpg","0","0","1","",""
"","feedback","","html-keyboard-response","261","462898","0.0-1.0-348.0-0.0","0","0","15615","","null","","","null","38","","","","","","","","","","","","","","","",""
"","ITI","","html-keyboard-response","262","463903","0.0-1.0-351.0","0","0","15615","","null","","","null","38","","","","","","","","","","","","","","","NaN",""
"","S1","","html-keyboard-response","263","464157","0.0-1.0-353.0","0","0","15615","","null","","","null","39","","","","","","","","","","","","","","","",""
"","ISI","","html-keyboard-response","264","464663","0.0-1.0-354.0","0","0","15615","","null","","","null","39","NaN","","","","","","","","","","","","","","",""
"","S2","","html-keyboard-response","265","464919","0.0-1.0-355.0","0","0","15615","","null","","","null","39","","NaN","","","","","","","","","","","","","",""
"","response","","html-keyboard-response","266","465130","0.0-1.0-356.0-0.0","0","0","15615","","205","","","75","39","","","1","39","training","adjacent","ED","5","4","R.jpg","O.jpg","1","0","0","",""
"","feedback","","html-keyboard-response","267","466134","0.0-1.0-357.0-0.0","0","0","15615","","null","","","null","39","","","","","","","","","","","","","","","",""
"","time_out","","html-keyboard-response","268","468138","0.0-1.0-359.0-0.0","0","0","15615","","null","","","null","39","","","","","","","","","","","","","","","",""
"","ITI","","html-keyboard-response","269","469142","0.0-1.0-360.0","0","0","15615","","null","","","null","39","","","","","","","","","","","","","","","NaN",""
"","S1","","html-keyboard-response","270","469533","0.0-1.0-362.0","0","0","15615","","null","","","null","40","","","","","","","","","","","","","","","",""
"","ISI","","html-keyboard-response","271","470037","0.0-1.0-363.0","0","0","15615","","403","","","68","40","d","","","","","","","","","","","","","","",""
"","S2","","html-keyboard-response","272","470292","0.0-1.0-364.0","0","0","15615","","null","","","null","40","","NaN","","","","","","","","","","","","","",""
"","response","","html-keyboard-response","273","470880","0.0-1.0-365.0-0.0","0","0","15615","","583","","","68","40","","","1","40","training","adjacent","GF","7","6","M.jpg","L.jpg","0","0","1","",""
"","feedback","","html-keyboard-response","274","471886","0.0-1.0-366.0-0.0","0","0","15615","","null","","","null","40","","","","","","","","","","","","","","","",""
"","ITI","","html-keyboard-response","275","472894","0.0-1.0-369.0","0","0","15615","","null","","","null","40","","","","","","","","","","","","","","","NaN",""
"","S1","","html-keyboard-response","276","473146","0.0-1.0-371.0","0","0","15615","","null","","","null","41","","","","","","","","","","","","","","","",""
"","ISI","","html-keyboard-response","277","473674","0.0-1.0-372.0","0","0","15615","","null","","","null","41","NaN","","","","","","","","","","","","","","",""
"","S2","","html-keyboard-response","278","473717","0.0-1.0-373.0","0","0","15615","","38","","","75","41","","k","1","41","training","adjacent","ED","5","4","R.jpg","O.jpg","1","0","0","",""
"","feedback","","html-keyboard-response","279","474721","0.0-1.0-375.0-0.0","0","0","15615","","null","","","null","41","","","","","","","","","","","","","","","",""
"","time_out","","html-keyboard-response","280","476725","0.0-1.0-377.0-0.0","0","0","15615","","null","","","null","41","","","","","","","","","","","","","","","",""
"","ITI","","html-keyboard-response","281","477729","0.0-1.0-378.0","0","0","15615","","null","","","null","41","","","","","","","","","","","","","","","NaN",""
"","S1","","html-keyboard-response","282","477984","0.0-1.0-380.0","0","0","15615","","null","","","null","42","","","","","","","","","","","","","","","",""
"","ISI","","html-keyboard-response","283","478486","0.0-1.0-381.0","0","0","15615","","null","","","null","42","NaN","","","","","","","","","","","","","","",""
"","S2","","html-keyboard-response","284","478553","0.0-1.0-382.0","0","0","15615","","61","","","75","42","","k","1","42","training","adjacent","FG","6","7","L.jpg","M.jpg","1","1","1","",""
"","feedback","","html-keyboard-response","285","479559","0.0-1.0-384.0-0.0","0","0","15615","","null","","","null","42","","","","","","","","","","","","","","","",""
"","ITI","","html-keyboard-response","286","480585","0.0-1.0-387.0","0","0","15615","","null","","","null","42","","","","","","","","","","","","","","","NaN",""
"","S1","","html-keyboard-response","287","480843","0.0-1.0-389.0","0","0","15615","","null","","","null","43","","","","","","","","","","","","","","","",""
"","ISI","","html-keyboard-response","288","481349","0.0-1.0-390.0","0","0","15615","","null","","","null","43","NaN","","","","","","","","","","","","","","",""
"","S2","","html-keyboard-response","289","481604","0.0-1.0-391.0","0","0","15615","","null","","","null","43","","NaN","","","","","","","","","","","","","",""
"","response","","html-keyboard-response","290","482109","0.0-1.0-392.0-0.0","0","0","15615","","501","","","75","43","","","1","43","training","adjacent","CB","3","2","Q.jpg","P.jpg","1","0","0","",""
"","feedback","","html-keyboard-response","291","483117","0.0-1.0-393.0-0.0","0","0","15615","","null","","","null","43","","","","","","","","","","","","","","","",""
"","time_out","","html-keyboard-response","292","485127","0.0-1.0-395.0-0.0","0","0","15615","","null","","","null","43","","","","","","","","","","","","","","","",""
"","ITI","","html-keyboard-response","293","486131","0.0-1.0-396.0","0","0","15615","","545","","","68","43","","","","","","","","","","","","","","","d",""
"","S1","","html-keyboard-response","294","486386","0.0-1.0-398.0","0","0","15615","","null","","","null","44","","","","","","","","","","","","","","","",""
"","ISI","","html-keyboard-response","295","486890","0.0-1.0-399.0","0","0","15615","","null","","","null","44","NaN","","","","","","","","","","","","","","",""
"","S2","","html-keyboard-response","296","487200","0.0-1.0-400.0","0","0","15615","","null","","","null","44","","NaN","","","","","","","","","","","","","",""
"","response","","html-keyboard-response","297","487458","0.0-1.0-401.0-0.0","0","0","15615","","183","","","68","44","","","1","44","training","adjacent","DE","4","5","O.jpg","R.jpg","0","1","0","",""
"","feedback","","html-keyboard-response","298","488470","0.0-1.0-402.0-0.0","0","0","15615","","null","","","null","44","","","","","","","","","","","","","","","",""
"","time_out","","html-keyboard-response","299","490485","0.0-1.0-404.0-0.0","0","0","15615","","null","","","null","44","","","","","","","","","","","","","","","",""
"","ITI","","html-keyboard-response","300","491667","0.0-1.0-405.0","0","0","15615","","null","","","null","44","","","","","","","","","","","","","","","NaN",""
"","S1","","html-keyboard-response","301","491920","0.0-1.0-407.0","0","0","15615","","null","","","null","45","","","","","","","","","","","","","","","",""
"","ISI","","html-keyboard-response","302","492434","0.0-1.0-408.0","0","0","15615","","null","","","null","45","NaN","","","","","","","","","","","","","","",""
"","S2","","html-keyboard-response","303","492689","0.0-1.0-409.0","0","0","15615","","null","","","null","45","","NaN","","","","","","","","","","","","","",""
"","response","","html-keyboard-response","304","492946","0.0-1.0-410.0-0.0","0","0","15615","","250","","","75","45","","","1","45","training","adjacent","BA","2","1","P.jpg","N.jpg","1","0","0","",""
"","feedback","","html-keyboard-response","305","494037","0.0-1.0-411.0-0.0","0","0","15615","","null","","","null","45","","","","","","","","","","","","","","","",""
"","time_out","","html-keyboard-response","306","496153","0.0-1.0-413.0-0.0","0","0","15615","","null","","","null","45","","","","","","","","","","","","","","","",""
"","ITI","","html-keyboard-response","307","497175","0.0-1.0-414.0","0","0","15615","","null","","","null","45","","","","","","","","","","","","","","","NaN",""
"","S1","","html-keyboard-response","308","497433","0.0-1.0-416.0","0","0","15615","","null","","","null","46","","","","","","","","","","","","","","","",""
"","ISI","","html-keyboard-response","309","497939","0.0-1.0-417.0","0","0","15615","","null","","","null","46","NaN","","","","","","","","","","","","","","",""
"","S2","","html-keyboard-response","310","498195","0.0-1.0-418.0","0","0","15615","","null","","","null","46","","NaN","","","","","","","","","","","","","",""
"","response","","html-keyboard-response","311","498407","0.0-1.0-419.0-0.0","0","0","15615","","207","","","68","46","","","1","46","training","adjacent","ED","5","4","R.jpg","O.jpg","0","0","1","",""
"","feedback","","html-keyboard-response","312","499420","0.0-1.0-420.0-0.0","0","0","15615","","null","","","null","46","","","","","","","","","","","","","","","",""
"","ITI","","html-keyboard-response","313","500426","0.0-1.0-423.0","0","0","15615","","null","","","null","46","","","","","","","","","","","","","","","NaN",""
"","S1","","html-keyboard-response","314","500681","0.0-1.0-425.0","0","0","15615","","null","","","null","47","","","","","","","","","","","","","","","",""
"","ISI","","html-keyboard-response","315","501185","0.0-1.0-426.0","0","0","15615","","null","","","null","47","NaN","","","","","","","","","","","","","","",""
"","S2","","html-keyboard-response","316","501514","0.0-1.0-427.0","0","0","15615","","null","","","null","47","","NaN","","","","","","","","","","","","","",""
"","response","","html-keyboard-response","317","502277","0.0-1.0-428.0-0.0","0","0","15615","","758","","","68","47","","","1","47","training","adjacent","GF","7","6","M.jpg","L.jpg","0","0","1","",""
"","feedback","","html-keyboard-response","318","503282","0.0-1.0-429.0-0.0","0","0","15615","","null","","","null","47","","","","","","","","","","","","","","","",""
"","ITI","","html-keyboard-response","319","504286","0.0-1.0-432.0","0","0","15615","","null","","","null","47","","","","","","","","","","","","","","","NaN",""
"","block_over","","html-keyboard-response","320","513918","0.0-1.0-433.0-0.0","0","0","15615","","9621","","","32","47","","","","","","","","","","","","","","","",""
"","S1","","html-keyboard-response","321","514173","0.0-1.0-434.0","0","0","15615","","null","","","null","48","","","","","","","","","","","","","","","",""
"","ISI","","html-keyboard-response","322","514677","0.0-1.0-435.0","0","0","15615","","null","","","null","48","NaN","","","","","","","","","","","","","","",""
"","S2","","html-keyboard-response","323","514932","0.0-1.0-436.0","0","0","15615","","null","","","null","48","","NaN","","","","","","","","","","","","","",""
"","response","","html-keyboard-response","324","515934","0.0-1.0-437.0-0.0","0","0","15615","","997","","","75","48","","","2","48","training","adjacent","FG","6","7","L.jpg","M.jpg","1","1","1","",""
"","feedback","","html-keyboard-response","325","516940","0.0-1.0-438.0-0.0","0","0","15615","","null","","","null","48","","","","","","","","","","","","","","","",""
"","ITI","","html-keyboard-response","326","517945","0.0-1.0-441.0","0","0","15615","","null","","","null","48","","","","","","","","","","","","","","","NaN",""
"","S1","","html-keyboard-response","327","518214","0.0-1.0-443.0","0","0","15615","","null","","","null","49","","","","","","","","","","","","","","","",""
"","ISI","","html-keyboard-response","328","518718","0.0-1.0-444.0","0","0","15615","","null","","","null","49","NaN","","","","","","","","","","","","","","",""
"","S2","","html-keyboard-response","329","518972","0.0-1.0-445.0","0","0","15615","","null","","","null","49","","NaN","","","","","","","","","","","","","",""
"","response","","html-keyboard-response","330","519519","0.0-1.0-446.0-0.0","0","0","15615","","543","","","75","49","","","2","49","training","adjacent","ED","5","4","R.jpg","O.jpg","1","0","0","",""
"","feedback","","html-keyboard-response","331","520523","0.0-1.0-447.0-0.0","0","0","15615","","null","","","null","49","","","","","","","","","","","","","","","",""
"","time_out","","html-keyboard-response","332","522531","0.0-1.0-449.0-0.0","0","0","15615","","null","","","null","49","","","","","","","","","","","","","","","",""
"","ITI","","html-keyboard-response","333","523537","0.0-1.0-450.0","0","0","15615","","704","","","68","49","","","","","","","","","","","","","","","d",""
"","S1","","html-keyboard-response","334","523791","0.0-1.0-452.0","0","0","15615","","null","","","null","50","","","","","","","","","","","","","","","",""
"","ISI","","html-keyboard-response","335","524305","0.0-1.0-453.0","0","0","15615","","null","","","null","50","NaN","","","","","","","","","","","","","","",""
"","S2","","html-keyboard-response","336","524562","0.0-1.0-454.0","0","0","15615","","null","","","null","50","","NaN","","","","","","","","","","","","","",""
"","response","","html-keyboard-response","337","524704","0.0-1.0-455.0-0.0","0","0","15615","","137","","","68","50","","","2","50","training","adjacent","ED","5","4","R.jpg","O.jpg","0","0","1","",""
"","feedback","","html-keyboard-response","338","525719","0.0-1.0-456.0-0.0","0","0","15615","","null","","","null","50","","","","","","","","","","","","","","","",""
"","ITI","","html-keyboard-response","339","526723","0.0-1.0-459.0","0","0","15615","","null","","","null","50","","","","","","","","","","","","","","","NaN",""
"","S1","","html-keyboard-response","340","526977","0.0-1.0-461.0","0","0","15615","","null","","","null","51","","","","","","","","","","","","","","","",""
"","ISI","","html-keyboard-response","341","527482","0.0-1.0-462.0","0","0","15615","","null","","","null","51","NaN","","","","","","","","","","","","","","",""
"","S2","","html-keyboard-response","342","527735","0.0-1.0-463.0","0","0","15615","","null","","","null","51","","NaN","","","","","","","","","","","","","",""
"","response","","html-keyboard-response","343","527938","0.0-1.0-464.0-0.0","0","0","15615","","199","","","68","51","","","2","51","training","adjacent","EF","5","6","R.jpg","L.jpg","0","1","0","",""
"","feedback","","html-keyboard-response","344","528941","0.0-1.0-465.0-0.0","0","0","15615","","null","","","null","51","","","","","","","","","","","","","","","",""
"","time_out","","html-keyboard-response","345","530946","0.0-1.0-467.0-0.0","0","0","15615","","null","","","null","51","","","","","","","","","","","","","","","",""
"","ITI","","html-keyboard-response","346","531953","0.0-1.0-468.0","0","0","15615","","null","","","null","51","","","","","","","","","","","","","","","NaN",""
"","S1","","html-keyboard-response","347","532208","0.0-1.0-470.0","0","0","15615","","null","","","null","52","","","","","","","","","","","","","","","",""
"","ISI","","html-keyboard-response","348","532713","0.0-1.0-471.0","0","0","15615","","null","","","null","52","NaN","","","","","","","","","","","","","","",""
"","S2","","html-keyboard-response","349","532968","0.0-1.0-472.0","0","0","15615","","null","","","null","52","","NaN","","","","","","","","","","","","","",""
"","response","","html-keyboard-response","350","533104","0.0-1.0-473.0-0.0","0","0","15615","","131","","","75","52","","","2","52","training","adjacent","CD","3","4","Q.jpg","O.jpg","1","1","1","",""
"","feedback","","html-keyboard-response","351","534123","0.0-1.0-474.0-0.0","0","0","15615","","null","","","null","52","","","","","","","","","","","","","","","",""
"","ITI","","html-keyboard-response","352","535138","0.0-1.0-477.0","0","0","15615","","null","","","null","52","","","","","","","","","","","","","","","NaN",""
"","S1","","html-keyboard-response","353","535391","0.0-1.0-479.0","0","0","15615","","null","","","null","53","","","","","","","","","","","","","","","",""
"","ISI","","html-keyboard-response","354","535895","0.0-1.0-480.0","0","0","15615","","null","","","null","53","NaN","","","","","","","","","","","","","","",""
"","S2","","html-keyboard-response","355","536158","0.0-1.0-481.0","0","0","15615","","null","","","null","53","","NaN","","","","","","","","","","","","","",""
"","response","","html-keyboard-response","356","536540","0.0-1.0-482.0-0.0","0","0","15615","","375","","","75","53","","","2","53","training","adjacent","ED","5","4","R.jpg","O.jpg","1","0","0","",""
"","feedback","","html-keyboard-response","357","537580","0.0-1.0-483.0-0.0","0","0","15615","","null","","","null","53","","","","","","","","","","","","","","","",""
"","time_out","","html-keyboard-response","358","539585","0.0-1.0-485.0-0.0","0","0","15615","","null","","","null","53","","","","","","","","","","","","","","","",""
"","ITI","","html-keyboard-response","359","540591","0.0-1.0-486.0","0","0","15615","","null","","","null","53","","","","","","","","","","","","","","","NaN",""
"","S1","","html-keyboard-response","360","540845","0.0-1.0-488.0","0","0","15615","","null","","","null","54","","","","","","","","","","","","","","","",""
"","ISI","","html-keyboard-response","361","541350","0.0-1.0-489.0","0","0","15615","","null","","","null","54","NaN","","","","","","","","","","","","","","",""
"","S2","","html-keyboard-response","362","541605","0.0-1.0-490.0","0","0","15615","","null","","","null","54","","NaN","","","","","","","","","","","","","",""
"","response","","html-keyboard-response","363","542055","0.0-1.0-491.0-0.0","0","0","15615","","447","","","68","54","","","2","54","training","adjacent","BC","2","3","P.jpg","Q.jpg","0","1","0","",""
"","feedback","","html-keyboard-response","364","543061","0.0-1.0-492.0-0.0","0","0","15615","","null","","","null","54","","","","","","","","","","","","","","","",""
"","time_out","","html-keyboard-response","365","545070","0.0-1.0-494.0-0.0","0","0","15615","","null","","","null","54","","","","","","","","","","","","","","","",""
"","ITI","","html-keyboard-response","366","546077","0.0-1.0-495.0","0","0","15615","","null","","","null","54","","","","","","","","","","","","","","","NaN",""
"","S1","","html-keyboard-response","367","546333","0.0-1.0-497.0","0","0","15615","","null","","","null","55","","","","","","","","","","","","","","","",""
"","ISI","","html-keyboard-response","368","546838","0.0-1.0-498.0","0","0","15615","","null","","","null","55","NaN","","","","","","","","","","","","","","",""
"","S2","","html-keyboard-response","369","547108","0.0-1.0-499.0","0","0","15615","","null","","","null","55","","NaN","","","","","","","","","","","","","",""
"","response","","html-keyboard-response","370","547384","0.0-1.0-500.0-0.0","0","0","15615","","269","","","75","55","","","2","55","training","adjacent","FG","6","7","L.jpg","M.jpg","1","1","1","",""
"","feedback","","html-keyboard-response","371","548462","0.0-1.0-501.0-0.0","0","0","15615","","null","","","null","55","","","","","","","","","","","","","","","",""
"","ITI","","html-keyboard-response","372","549466","0.0-1.0-504.0","0","0","15615","","null","","","null","55","","","","","","","","","","","","","","","NaN",""
"","S1","","html-keyboard-response","373","549720","0.0-1.0-506.0","0","0","15615","","null","","","null","56","","","","","","","","","","","","","","","",""
"","ISI","","html-keyboard-response","374","550233","0.0-1.0-507.0","0","0","15615","","null","","","null","56","NaN","","","","","","","","","","","","","","",""
"","S2","","html-keyboard-response","375","550486","0.0-1.0-508.0","0","0","15615","","null","","","null","56","","NaN","","","","","","","","","","","","","",""
"","response","","html-keyboard-response","376","550908","0.0-1.0-509.0-0.0","0","0","15615","","417","","","75","56","","","2","56","training","adjacent","FE","6","5","L.jpg","R.jpg","1","0","0","",""
"","feedback","","html-keyboard-response","377","551915","0.0-1.0-510.0-0.0","0","0","15615","","null","","","null","56","","","","","","","","","","","","","","","",""
"","time_out","","html-keyboard-response","378","553920","0.0-1.0-512.0-0.0","0","0","15615","","null","","","null","56","","","","","","","","","","","","","","","",""
"","ITI","","html-keyboard-response","379","554928","0.0-1.0-513.0","0","0","15615","","null","","","null","56","","","","","","","","","","","","","","","NaN",""
"","S1","","html-keyboard-response","380","555184","0.0-1.0-515.0","0","0","15615","","null","","","null","57","","","","","","","","","","","","","","","",""
"","ISI","","html-keyboard-response","381","555687","0.0-1.0-516.0","0","0","15615","","null","","","null","57","NaN","","","","","","","","","","","","","","",""
"","S2","","html-keyboard-response","382","555941","0.0-1.0-517.0","0","0","15615","","null","","","null","57","","NaN","","","","","","","","","","","","","",""
"","response","","html-keyboard-response","383","556335","0.0-1.0-518.0-0.0","0","0","15615","","391","","","68","57","","","2","57","training","adjacent","CB","3","2","Q.jpg","P.jpg","0","0","1","",""
"","feedback","","html-keyboard-response","384","557338","0.0-1.0-519.0-0.0","0","0","15615","","null","","","null","57","","","","","","","","","","","","","","","",""
"","ITI","","html-keyboard-response","385","558344","0.0-1.0-522.0","0","0","15615","","null","","","null","57","","","","","","","","","","","","","","","NaN",""
"","S1","","html-keyboard-response","386","558597","0.0-1.0-524.0","0","0","15615","","null","","","null","58","","","","","","","","","","","","","","","",""
"","ISI","","html-keyboard-response","387","559102","0.0-1.0-525.0","0","0","15615","","null","","","null","58","NaN","","","","","","","","","","","","","","",""
"","S2","","html-keyboard-response","388","559428","0.0-1.0-526.0","0","0","15615","","null","","","null","58","","NaN","","","","","","","","","","","","","",""
"","response","","html-keyboard-response","389","559890","0.0-1.0-527.0-0.0","0","0","15615","","460","","","68","58","","","2","58","training","adjacent","EF","5","6","R.jpg","L.jpg","0","1","0","",""
"","feedback","","html-keyboard-response","390","560895","0.0-1.0-528.0-0.0","0","0","15615","","null","","","null","58","","","","","","","","","","","","","","","",""
"","time_out","","html-keyboard-response","391","562901","0.0-1.0-530.0-0.0","0","0","15615","","null","","","null","58","","","","","","","","","","","","","","","",""
"","ITI","","html-keyboard-response","392","563911","0.0-1.0-531.0","0","0","15615","","null","","","null","58","","","","","","","","","","","","","","","NaN",""
"","S1","","html-keyboard-response","393","564186","0.0-1.0-533.0","0","0","15615","","null","","","null","59","","","","","","","","","","","","","","","",""
"","ISI","","html-keyboard-response","394","564693","0.0-1.0-534.0","0","0","15615","","null","","","null","59","NaN","","","","","","","","","","","","","","",""
"","S2","","html-keyboard-response","395","564947","0.0-1.0-535.0","0","0","15615","","null","","","null","59","","NaN","","","","","","","","","","","","","",""
"","response","","html-keyboard-response","396","565332","0.0-1.0-536.0-0.0","0","0","15615","","379","","","75","59","","","2","59","training","adjacent","CB","3","2","Q.jpg","P.jpg","1","0","0","",""
"","feedback","","html-keyboard-response","397","566339","0.0-1.0-537.0-0.0","0","0","15615","","null","","","null","59","","","","","","","","","","","","","","","",""
"","time_out","","html-keyboard-response","398","568343","0.0-1.0-539.0-0.0","0","0","15615","","null","","","null","59","","","","","","","","","","","","","","","",""
"","ITI","","html-keyboard-response","399","569363","0.0-1.0-540.0","0","0","15615","","null","","","null","59","","","","","","","","","","","","","","","NaN",""
"","S1","","html-keyboard-response","400","569615","0.0-1.0-542.0","0","0","15615","","null","","","null","60","","","","","","","","","","","","","","","",""
"","ISI","","html-keyboard-response","401","570120","0.0-1.0-543.0","0","0","15615","","null","","","null","60","NaN","","","","","","","","","","","","","","",""
"","S2","","html-keyboard-response","402","570380","0.0-1.0-544.0","0","0","15615","","null","","","null","60","","NaN","","","","","","","","","","","","","",""
"","response","","html-keyboard-response","403","570514","0.0-1.0-545.0-0.0","0","0","15615","","128","","","68","60","","","2","60","training","adjacent","BC","2","3","P.jpg","Q.jpg","0","1","0","",""
"","feedback","","html-keyboard-response","404","571530","0.0-1.0-546.0-0.0","0","0","15615","","null","","","null","60","","","","","","","","","","","","","","","",""
"","time_out","","html-keyboard-response","405","573538","0.0-1.0-548.0-0.0","0","0","15615","","null","","","null","60","","","","","","","","","","","","","","","",""
"","ITI","","html-keyboard-response","406","574542","0.0-1.0-549.0","0","0","15615","","null","","","null","60","","","","","","","","","","","","","","","NaN",""
"","S1","","html-keyboard-response","407","574797","0.0-1.0-551.0","0","0","15615","","null","","","null","61","","","","","","","","","","","","","","","",""
"","ISI","","html-keyboard-response","408","575324","0.0-1.0-552.0","0","0","15615","","null","","","null","61","NaN","","","","","","","","","","","","","","",""
"","S2","","html-keyboard-response","409","575580","0.0-1.0-553.0","0","0","15615","","null","","","null","61","","NaN","","","","","","","","","","","","","",""
"","response","","html-keyboard-response","410","575786","0.0-1.0-554.0-0.0","0","0","15615","","201","","","75","61","","","2","61","training","adjacent","DE","4","5","O.jpg","R.jpg","1","1","1","",""
"","feedback","","html-keyboard-response","411","576791","0.0-1.0-555.0-0.0","0","0","15615","","null","","","null","61","","","","","","","","","","","","","","","",""
"","ITI","","html-keyboard-response","412","577797","0.0-1.0-558.0","0","0","15615","","null","","","null","61","","","","","","","","","","","","","","","NaN",""
"","S1","","html-keyboard-response","413","578052","0.0-1.0-560.0","0","0","15615","","null","","","null","62","","","","","","","","","","","","","","","",""
"","ISI","","html-keyboard-response","414","578557","0.0-1.0-561.0","0","0","15615","","null","","","null","62","NaN","","","","","","","","","","","","","","",""
"","S2","","html-keyboard-response","415","578815","0.0-1.0-562.0","0","0","15615","","null","","","null","62","","NaN","","","","","","","","","","","","","",""
"","response","","html-keyboard-response","416","579057","0.0-1.0-563.0-0.0","0","0","15615","","237","","","75","62","","","2","62","training","adjacent","CD","3","4","Q.jpg","O.jpg","1","1","1","",""
"","feedback","","html-keyboard-response","417","580064","0.0-1.0-564.0-0.0","0","0","15615","","null","","","null","62","","","","","","","","","","","","","","","",""
"","ITI","","html-keyboard-response","418","581069","0.0-1.0-567.0","0","0","15615","","null","","","null","62","","","","","","","","","","","","","","","NaN",""
"","S1","","html-keyboard-response","419","581324","0.0-1.0-569.0","0","0","15615","","null","","","null","63","","","","","","","","","","","","","","","",""
"","ISI","","html-keyboard-response","420","581836","0.0-1.0-570.0","0","0","15615","","null","","","null","63","NaN","","","","","","","","","","","","","","",""
"","S2","","html-keyboard-response","421","582090","0.0-1.0-571.0","0","0","15615","","null","","","null","63","","NaN","","","","","","","","","","","","","",""
"","response","","html-keyboard-response","422","582398","0.0-1.0-572.0-0.0","0","0","15615","","302","","","75","63","","","2","63","training","adjacent","GF","7","6","M.jpg","L.jpg","1","0","0","",""
"","feedback","","html-keyboard-response","423","583414","0.0-1.0-573.0-0.0","0","0","15615","","null","","","null","63","","","","","","","","","","","","","","","",""
"","time_out","","html-keyboard-response","424","585421","0.0-1.0-575.0-0.0","0","0","15615","","null","","","null","63","","","","","","","","","","","","","","","",""
"","ITI","","html-keyboard-response","425","586426","0.0-1.0-576.0","0","0","15615","","null","","","null","63","","","","","","","","","","","","","","","NaN",""
"","S1","","html-keyboard-response","426","586684","0.0-1.0-578.0","0","0","15615","","null","","","null","64","","","","","","","","","","","","","","","",""
"","ISI","","html-keyboard-response","427","587188","0.0-1.0-579.0","0","0","15615","","null","","","null","64","NaN","","","","","","","","","","","","","","",""
"","S2","","html-keyboard-response","428","587444","0.0-1.0-580.0","0","0","15615","","null","","","null","64","","NaN","","","","","","","","","","","","","",""
"","response","","html-keyboard-response","429","587666","0.0-1.0-581.0-0.0","0","0","15615","","217","","","68","64","","","2","64","training","adjacent","DE","4","5","O.jpg","R.jpg","0","1","0","",""
"","feedback","","html-keyboard-response","430","588676","0.0-1.0-582.0-0.0","0","0","15615","","null","","","null","64","","","","","","","","","","","","","","","",""
"","time_out","","html-keyboard-response","431","590682","0.0-1.0-584.0-0.0","0","0","15615","","null","","","null","64","","","","","","","","","","","","","","","",""
"","ITI","","html-keyboard-response","432","591688","0.0-1.0-585.0","0","0","15615","","null","","","null","64","","","","","","","","","","","","","","","NaN",""
"","S1","","html-keyboard-response","433","591942","0.0-1.0-587.0","0","0","15615","","null","","","null","65","","","","","","","","","","","","","","","",""
"","ISI","","html-keyboard-response","434","592472","0.0-1.0-588.0","0","0","15615","","null","","","null","65","NaN","","","","","","","","","","","","","","",""
"","S2","","html-keyboard-response","435","592748","0.0-1.0-589.0","0","0","15615","","null","","","null","65","","NaN","","","","","","","","","","","","","",""
"","response","","html-keyboard-response","436","592935","0.0-1.0-590.0-0.0","0","0","15615","","183","","","75","65","","","2","65","training","adjacent","GF","7","6","M.jpg","L.jpg","1","0","0","",""
"","feedback","","html-keyboard-response","437","593939","0.0-1.0-591.0-0.0","0","0","15615","","null","","","null","65","","","","","","","","","","","","","","","",""
"","time_out","","html-keyboard-response","438","595946","0.0-1.0-593.0-0.0","0","0","15615","","null","","","null","65","","","","","","","","","","","","","","","",""
"","ITI","","html-keyboard-response","439","596953","0.0-1.0-594.0","0","0","15615","","null","","","null","65","","","","","","","","","","","","","","","NaN",""
"","S1","","html-keyboard-response","440","597208","0.0-1.0-596.0","0","0","15615","","null","","","null","66","","","","","","","","","","","","","","","",""
"","ISI","","html-keyboard-response","441","597713","0.0-1.0-597.0","0","0","15615","","null","","","null","66","NaN","","","","","","","","","","","","","","",""
"","S2","","html-keyboard-response","442","597967","0.0-1.0-598.0","0","0","15615","","null","","","null","66","","NaN","","","","","","","","","","","","","",""
"","response","","html-keyboard-response","443","598334","0.0-1.0-599.0-0.0","0","0","15615","","362","","","68","66","","","2","66","training","adjacent","FG","6","7","L.jpg","M.jpg","0","1","0","",""
"","feedback","","html-keyboard-response","444","599424","0.0-1.0-600.0-0.0","0","0","15615","","null","","","null","66","","","","","","","","","","","","","","","",""
"","time_out","","html-keyboard-response","445","601497","0.0-1.0-602.0-0.0","0","0","15615","","null","","","null","66","","","","","","","","","","","","","","","",""
"","ITI","","html-keyboard-response","446","602499","0.0-1.0-603.0","0","0","15615","","null","","","null","66","","","","","","","","","","","","","","","NaN",""
"","S1","","html-keyboard-response","447","602753","0.0-1.0-605.0","0","0","15615","","null","","","null","67","","","","","","","","","","","","","","","",""
"","ISI","","html-keyboard-response","448","603282","0.0-1.0-606.0","0","0","15615","","null","","","null","67","NaN","","","","","","","","","","","","","","",""
"","S2","","html-keyboard-response","449","603548","0.0-1.0-607.0","0","0","15615","","null","","","null","67","","NaN","","","","","","","","","","","","","",""
"","response","","html-keyboard-response","450","603936","0.0-1.0-608.0-0.0","0","0","15615","","379","","","68","67","","","2","67","training","adjacent","CD","3","4","Q.jpg","O.jpg","0","1","0","",""
"","feedback","","html-keyboard-response","451","604943","0.0-1.0-609.0-0.0","0","0","15615","","null","","","null","67","","","","","","","","","","","","","","","",""
"","time_out","","html-keyboard-response","452","606949","0.0-1.0-611.0-0.0","0","0","15615","","null","","","null","67","","","","","","","","","","","","","","","",""
"","ITI","","html-keyboard-response","453","607955","0.0-1.0-612.0","0","0","15615","","null","","","null","67","","","","","","","","","","","","","","","NaN",""
"","S1","","html-keyboard-response","454","608220","0.0-1.0-614.0","0","0","15615","","null","","","null","68","","","","","","","","","","","","","","","",""
"","ISI","","html-keyboard-response","455","608723","0.0-1.0-615.0","0","0","15615","","null","","","null","68","NaN","","","","","","","","","","","","","","",""
"","S2","","html-keyboard-response","456","608976","0.0-1.0-616.0","0","0","15615","","null","","","null","68","","NaN","","","","","","","","","","","","","",""
"","response","","html-keyboard-response","457","609352","0.0-1.0-617.0-0.0","0","0","15615","","371","","","68","68","","","2","68","training","adjacent","ED","5","4","R.jpg","O.jpg","0","0","1","",""
"","feedback","","html-keyboard-response","458","610357","0.0-1.0-618.0-0.0","0","0","15615","","null","","","null","68","","","","","","","","","","","","","","","",""
"","ITI","","html-keyboard-response","459","611361","0.0-1.0-621.0","0","0","15615","","null","","","null","68","","","","","","","","","","","","","","","NaN",""
"","S1","","html-keyboard-response","460","611616","0.0-1.0-623.0","0","0","15615","","null","","","null","69","","","","","","","","","","","","","","","",""
"","ISI","","html-keyboard-response","461","612121","0.0-1.0-624.0","0","0","15615","","null","","","null","69","NaN","","","","","","","","","","","","","","",""
"","S2","","html-keyboard-response","462","612433","0.0-1.0-625.0","0","0","15615","","null","","","null","69","","NaN","","","","","","","","","","","","","",""
"","response","","html-keyboard-response","463","612790","0.0-1.0-626.0-0.0","0","0","15615","","351","","","75","69","","","2","69","training","adjacent","EF","5","6","R.jpg","L.jpg","1","1","1","",""
"","feedback","","html-keyboard-response","464","613796","0.0-1.0-627.0-0.0","0","0","15615","","null","","","null","69","","","","","","","","","","","","","","","",""
"","ITI","","html-keyboard-response","465","614801","0.0-1.0-630.0","0","0","15615","","null","","","null","69","","","","","","","","","","","","","","","NaN",""
"","S1","","html-keyboard-response","466","615056","0.0-1.0-632.0","0","0","15615","","null","","","null","70","","","","","","","","","","","","","","","",""
"","ISI","","html-keyboard-response","467","615560","0.0-1.0-633.0","0","0","15615","","null","","","null","70","NaN","","","","","","","","","","","","","","",""
"","S2","","html-keyboard-response","468","615826","0.0-1.0-634.0","0","0","15615","","null","","","null","70","","NaN","","","","","","","","","","","","","",""
"","response","","html-keyboard-response","469","616075","0.0-1.0-635.0-0.0","0","0","15615","","230","","","68","70","","","2","70","training","adjacent","DE","4","5","O.jpg","R.jpg","0","1","0","",""
"","feedback","","html-keyboard-response","470","617079","0.0-1.0-636.0-0.0","0","0","15615","","null","","","null","70","","","","","","","","","","","","","","","",""
"","time_out","","html-keyboard-response","471","619114","0.0-1.0-638.0-0.0","0","0","15615","","null","","","null","70","","","","","","","","","","","","","","","",""
"","ITI","","html-keyboard-response","472","620162","0.0-1.0-639.0","0","0","15615","","null","","","null","70","","","","","","","","","","","","","","","NaN",""
"","S1","","html-keyboard-response","473","620437","0.0-1.0-641.0","0","0","15615","","null","","","null","71","","","","","","","","","","","","","","","",""
"","ISI","","html-keyboard-response","474","620954","0.0-1.0-642.0","0","0","15615","","null","","","null","71","NaN","","","","","","","","","","","","","","",""
"","S2","","html-keyboard-response","475","621212","0.0-1.0-643.0","0","0","15615","","null","","","null","71","","NaN","","","","","","","","","","","","","",""
"","response","","html-keyboard-response","476","621450","0.0-1.0-644.0-0.0","0","0","15615","","235","","","75","71","","","2","71","training","adjacent","DC","4","3","O.jpg","Q.jpg","1","0","0","",""
"","feedback","","html-keyboard-response","477","622463","0.0-1.0-645.0-0.0","0","0","15615","","null","","","null","71","","","","","","","","","","","","","","","",""
"","time_out","","html-keyboard-response","478","624468","0.0-1.0-647.0-0.0","0","0","15615","","null","","","null","71","","","","","","","","","","","","","","","",""
"","ITI","","html-keyboard-response","479","625489","0.0-1.0-648.0","0","0","15615","","null","","","null","71","","","","","","","","","","","","","","","NaN",""
"","S1","","html-keyboard-response","480","625749","0.0-1.0-650.0","0","0","15615","","null","","","null","72","","","","","","","","","","","","","","","",""
"","ISI","","html-keyboard-response","481","626254","0.0-1.0-651.0","0","0","15615","","null","","","null","72","NaN","","","","","","","","","","","","","","",""
"","S2","","html-keyboard-response","482","626509","0.0-1.0-652.0","0","0","15615","","null","","","null","72","","NaN","","","","","","","","","","","","","",""
"","response","","html-keyboard-response","483","626773","0.0-1.0-653.0-0.0","0","0","15615","","259","","","68","72","","","2","72","training","adjacent","AB","1","2","N.jpg","P.jpg","0","1","0","",""
"","feedback","","html-keyboard-response","484","627786","0.0-1.0-654.0-0.0","0","0","15615","","null","","","null","72","","","","","","","","","","","","","","","",""
"","time_out","","html-keyboard-response","485","629821","0.0-1.0-656.0-0.0","0","0","15615","","null","","","null","72","","","","","","","","","","","","","","","",""
"","ITI","","html-keyboard-response","486","630830","0.0-1.0-657.0","0","0","15615","","null","","","null","72","","","","","","","","","","","","","","","NaN",""
"","S1","","html-keyboard-response","487","631085","0.0-1.0-659.0","0","0","15615","","null","","","null","73","","","","","","","","","","","","","","","",""
"","ISI","","html-keyboard-response","488","631588","0.0-1.0-660.0","0","0","15615","","473","","","75","73","k","","","","","","","","","","","","","","",""
"","S2","","html-keyboard-response","489","631843","0.0-1.0-661.0","0","0","15615","","null","","","null","73","","NaN","","","","","","","","","","","","","",""
"","response","","html-keyboard-response","490","632718","0.0-1.0-662.0-0.0","0","0","15615","","870","","","75","73","","","2","73","training","adjacent","BC","2","3","P.jpg","Q.jpg","1","1","1","",""
"","feedback","","html-keyboard-response","491","633723","0.0-1.0-663.0-0.0","0","0","15615","","null","","","null","73","","","","","","","","","","","","","","","",""
"","ITI","","html-keyboard-response","492","634735","0.0-1.0-666.0","0","0","15615","","null","","","null","73","","","","","","","","","","","","","","","NaN",""
"","S1","","html-keyboard-response","493","634993","0.0-1.0-668.0","0","0","15615","","null","","","null","74","","","","","","","","","","","","","","","",""
"","ISI","","html-keyboard-response","494","635498","0.0-1.0-669.0","0","0","15615","","null","","","null","74","NaN","","","","","","","","","","","","","","",""
"","S2","","html-keyboard-response","495","635695","0.0-1.0-670.0","0","0","15615","","190","","","75","74","","k","2","74","training","adjacent","EF","5","6","R.jpg","L.jpg","1","1","1","",""
"","feedback","","html-keyboard-response","496","636709","0.0-1.0-672.0-0.0","0","0","15615","","null","","","null","74","","","","","","","","","","","","","","","",""
"","ITI","","html-keyboard-response","497","637714","0.0-1.0-675.0","0","0","15615","","null","","","null","74","","","","","","","","","","","","","","","NaN",""
"","S1","","html-keyboard-response","498","638055","0.0-1.0-677.0","0","0","15615","","null","","","null","75","","","","","","","","","","","","","","","",""
"","ISI","","html-keyboard-response","499","638573","0.0-1.0-678.0","0","0","15615","","null","","","null","75","NaN","","","","","","","","","","","","","","",""
"","S2","","html-keyboard-response","500","638840","0.0-1.0-679.0","0","0","15615","","null","","","null","75","","NaN","","","","","","","","","","","","","",""
"","response","","html-keyboard-response","501","639016","0.0-1.0-680.0-0.0","0","0","15615","","172","","","75","75","","","2","75","training","adjacent","GF","7","6","M.jpg","L.jpg","1","0","0","",""
"","feedback","","html-keyboard-response","502","640022","0.0-1.0-681.0-0.0","0","0","15615","","null","","","null","75","","","","","","","","","","","","","","","",""
"","time_out","","html-keyboard-response","503","642028","0.0-1.0-683.0-0.0","0","0","15615","","null","","","null","75","","","","","","","","","","","","","","","",""
"","ITI","","html-keyboard-response","504","643036","0.0-1.0-684.0","0","0","15615","","null","","","null","75","","","","","","","","","","","","","","","NaN",""
"","S1","","html-keyboard-response","505","643292","0.0-1.0-686.0","0","0","15615","","null","","","null","76","","","","","","","","","","","","","","","",""
"","ISI","","html-keyboard-response","506","643797","0.0-1.0-687.0","0","0","15615","","null","","","null","76","NaN","","","","","","","","","","","","","","",""
"","S2","","html-keyboard-response","507","644052","0.0-1.0-688.0","0","0","15615","","null","","","null","76","","NaN","","","","","","","","","","","","","",""
"","response","","html-keyboard-response","508","644416","0.0-1.0-689.0-0.0","0","0","15615","","358","","","68","76","","","2","76","training","adjacent","CD","3","4","Q.jpg","O.jpg","0","1","0","",""
"","feedback","","html-keyboard-response","509","645422","0.0-1.0-690.0-0.0","0","0","15615","","null","","","null","76","","","","","","","","","","","","","","","",""
"","time_out","","html-keyboard-response","510","647456","0.0-1.0-692.0-0.0","0","0","15615","","null","","","null","76","","","","","","","","","","","","","","","",""
"","ITI","","html-keyboard-response","511","648469","0.0-1.0-693.0","0","0","15615","","null","","","null","76","","","","","","","","","","","","","","","NaN",""
"","S1","","html-keyboard-response","512","648725","0.0-1.0-695.0","0","0","15615","","null","","","null","77","","","","","","","","","","","","","","","",""
"","ISI","","html-keyboard-response","513","649231","0.0-1.0-696.0","0","0","15615","","null","","","null","77","NaN","","","","","","","","","","","","","","",""
"","S2","","html-keyboard-response","514","649348","0.0-1.0-697.0","0","0","15615","","111","","","75","77","","k","2","77","training","adjacent","FE","6","5","L.jpg","R.jpg","1","0","0","",""
"","feedback","","html-keyboard-response","515","650364","0.0-1.0-699.0-0.0","0","0","15615","","null","","","null","77","","","","","","","","","","","","","","","",""
"","time_out","","html-keyboard-response","516","652371","0.0-1.0-701.0-0.0","0","0","15615","","null","","","null","77","","","","","","","","","","","","","","","",""
"","ITI","","html-keyboard-response","517","653418","0.0-1.0-702.0","0","0","15615","","null","","","null","77","","","","","","","","","","","","","","","NaN",""
"","S1","","html-keyboard-response","518","653672","0.0-1.0-704.0","0","0","15615","","null","","","null","78","","","","","","","","","","","","","","","",""
"","ISI","","html-keyboard-response","519","654179","0.0-1.0-705.0","0","0","15615","","null","","","null","78","NaN","","","","","","","","","","","","","","",""
"","S2","","html-keyboard-response","520","654195","0.0-1.0-706.0","0","0","15615","","10","","","68","78","","d","2","78","training","adjacent","DE","4","5","O.jpg","R.jpg","0","1","0","",""
"","feedback","","html-keyboard-response","521","655202","0.0-1.0-708.0-0.0","0","0","15615","","null","","","null","78","","","","","","","","","","","","","","","",""
"","time_out","","html-keyboard-response","522","657212","0.0-1.0-710.0-0.0","0","0","15615","","null","","","null","78","","","","","","","","","","","","","","","",""
"","ITI","","html-keyboard-response","523","658249","0.0-1.0-711.0","0","0","15615","","null","","","null","78","","","","","","","","","","","","","","","NaN",""
"","S1","","html-keyboard-response","524","658503","0.0-1.0-713.0","0","0","15615","","null","","","null","79","","","","","","","","","","","","","","","",""
"","ISI","","html-keyboard-response","525","659007","0.0-1.0-714.0","0","0","15615","","null","","","null","79","NaN","","","","","","","","","","","","","","",""
"","S2","","html-keyboard-response","526","659263","0.0-1.0-715.0","0","0","15615","","null","","","null","79","","NaN","","","","","","","","","","","","","",""
"","response","","html-keyboard-response","527","659548","0.0-1.0-716.0-0.0","0","0","15615","","279","","","68","79","","","2","79","training","adjacent","DC","4","3","O.jpg","Q.jpg","0","0","1","",""
"","feedback","","html-keyboard-response","528","660552","0.0-1.0-717.0-0.0","0","0","15615","","null","","","null","79","","","","","","","","","","","","","","","",""
"","ITI","","html-keyboard-response","529","661558","0.0-1.0-720.0","0","0","15615","","null","","","null","79","","","","","","","","","","","","","","","NaN",""
"","S1","","html-keyboard-response","530","661811","0.0-1.0-722.0","0","0","15615","","null","","","null","80","","","","","","","","","","","","","","","",""
"","ISI","","html-keyboard-response","531","662314","0.0-1.0-723.0","0","0","15615","","null","","","null","80","NaN","","","","","","","","","","","","","","",""
"","S2","","html-keyboard-response","532","662583","0.0-1.0-724.0","0","0","15615","","null","","","null","80","","NaN","","","","","","","","","","","","","",""
"","response","","html-keyboard-response","533","662850","0.0-1.0-725.0-0.0","0","0","15615","","261","","","68","80","","","2","80","training","adjacent","AB","1","2","N.jpg","P.jpg","0","1","0","",""
"","feedback","","html-keyboard-response","534","663854","0.0-1.0-726.0-0.0","0","0","15615","","null","","","null","80","","","","","","","","","","","","","","","",""
"","time_out","","html-keyboard-response","535","665860","0.0-1.0-728.0-0.0","0","0","15615","","null","","","null","80","","","","","","","","","","","","","","","",""
"","ITI","","html-keyboard-response","536","666867","0.0-1.0-729.0","0","0","15615","","null","","","null","80","","","","","","","","","","","","","","","NaN",""
"","S1","","html-keyboard-response","537","667122","0.0-1.0-731.0","0","0","15615","","null","","","null","81","","","","","","","","","","","","","","","",""
"","ISI","","html-keyboard-response","538","667625","0.0-1.0-732.0","0","0","15615","","null","","","null","81","NaN","","","","","","","","","","","","","","",""
"","S2","","html-keyboard-response","539","667661","0.0-1.0-733.0","0","0","15615","","25","","","75","81","","k","2","81","training","adjacent","CB","3","2","Q.jpg","P.jpg","1","0","0","",""
"","feedback","","html-keyboard-response","540","668666","0.0-1.0-735.0-0.0","0","0","15615","","null","","","null","81","","","","","","","","","","","","","","","",""
"","time_out","","html-keyboard-response","541","670676","0.0-1.0-737.0-0.0","0","0","15615","","null","","","null","81","","","","","","","","","","","","","","","",""
"","ITI","","html-keyboard-response","542","671679","0.0-1.0-738.0","0","0","15615","","null","","","null","81","","","","","","","","","","","","","","","NaN",""
"","S1","","html-keyboard-response","543","671935","0.0-1.0-740.0","0","0","15615","","null","","","null","82","","","","","","","","","","","","","","","",""
"","ISI","","html-keyboard-response","544","672438","0.0-1.0-741.0","0","0","15615","","423","","","68","82","d","","","","","","","","","","","","","","",""
"","S2","","html-keyboard-response","545","672696","0.0-1.0-742.0","0","0","15615","","null","","","null","82","","NaN","","","","","","","","","","","","","",""
"","response","","html-keyboard-response","546","673158","0.0-1.0-743.0-0.0","0","0","15615","","457","","","68","82","","","2","82","training","adjacent","BC","2","3","P.jpg","Q.jpg","0","1","0","",""
"","feedback","","html-keyboard-response","547","674163","0.0-1.0-744.0-0.0","0","0","15615","","null","","","null","82","","","","","","","","","","","","","","","",""
"","time_out","","html-keyboard-response","548","676169","0.0-1.0-746.0-0.0","0","0","15615","","null","","","null","82","","","","","","","","","","","","","","","",""
"","ITI","","html-keyboard-response","549","677177","0.0-1.0-747.0","0","0","15615","","null","","","null","82","","","","","","","","","","","","","","","NaN",""
"","S1","","html-keyboard-response","550","677435","0.0-1.0-749.0","0","0","15615","","null","","","null","83","","","","","","","","","","","","","","","",""
"","ISI","","html-keyboard-response","551","677938","0.0-1.0-750.0","0","0","15615","","null","","","null","83","NaN","","","","","","","","","","","","","","",""
"","S2","","html-keyboard-response","552","678193","0.0-1.0-751.0","0","0","15615","","null","","","null","83","","NaN","","","","","","","","","","","","","",""
"","response","","html-keyboard-response","553","678750","0.0-1.0-752.0-0.0","0","0","15615","","551","","","75","83","","","2","83","training","adjacent","BA","2","1","P.jpg","N.jpg","1","0","0","",""
"","feedback","","html-keyboard-response","554","679760","0.0-1.0-753.0-0.0","0","0","15615","","null","","","null","83","","","","","","","","","","","","","","","",""
"","time_out","","html-keyboard-response","555","681766","0.0-1.0-755.0-0.0","0","0","15615","","null","","","null","83","","","","","","","","","","","","","","","",""
"","ITI","","html-keyboard-response","556","682770","0.0-1.0-756.0","0","0","15615","","null","","","null","83","","","","","","","","","","","","","","","NaN",""
"","S1","","html-keyboard-response","557","683031","0.0-1.0-758.0","0","0","15615","","null","","","null","84","","","","","","","","","","","","","","","",""
"","ISI","","html-keyboard-response","558","683672","0.0-1.0-759.0","0","0","15615","","null","","","null","84","NaN","","","","","","","","","","","","","","",""
"","S2","","html-keyboard-response","559","683930","0.0-1.0-760.0","0","0","15615","","null","","","null","84","","NaN","","","","","","","","","","","","","",""
"","response","","html-keyboard-response","560","683983","0.0-1.0-761.0-0.0","0","0","15615","","50","","","68","84","","","2","84","training","adjacent","FG","6","7","L.jpg","M.jpg","0","1","0","",""
"","feedback","","html-keyboard-response","561","684988","0.0-1.0-762.0-0.0","0","0","15615","","null","","","null","84","","","","","","","","","","","","","","","",""
"","time_out","","html-keyboard-response","562","686998","0.0-1.0-764.0-0.0","0","0","15615","","null","","","null","84","","","","","","","","","","","","","","","",""
"","ITI","","html-keyboard-response","563","688004","0.0-1.0-765.0","0","0","15615","","null","","","null","84","","","","","","","","","","","","","","","NaN",""
"","S1","","html-keyboard-response","564","688263","0.0-1.0-767.0","0","0","15615","","null","","","null","85","","","","","","","","","","","","","","","",""
"","ISI","","html-keyboard-response","565","688765","0.0-1.0-768.0","0","0","15615","","null","","","null","85","NaN","","","","","","","","","","","","","","",""
"","S2","","html-keyboard-response","566","689020","0.0-1.0-769.0","0","0","15615","","null","","","null","85","","NaN","","","","","","","","","","","","","",""
"","response","","html-keyboard-response","567","689376","0.0-1.0-770.0-0.0","0","0","15615","","351","","","75","85","","","2","85","training","adjacent","BA","2","1","P.jpg","N.jpg","1","0","0","",""
"","feedback","","html-keyboard-response","568","690381","0.0-1.0-771.0-0.0","0","0","15615","","null","","","null","85","","","","","","","","","","","","","","","",""
"","time_out","","html-keyboard-response","569","692388","0.0-1.0-773.0-0.0","0","0","15615","","null","","","null","85","","","","","","","","","","","","","","","",""
"","ITI","","html-keyboard-response","570","693393","0.0-1.0-774.0","0","0","15615","","null","","","null","85","","","","","","","","","","","","","","","NaN",""
"","S1","","html-keyboard-response","571","693674","0.0-1.0-776.0","0","0","15615","","null","","","null","86","","","","","","","","","","","","","","","",""
"","ISI","","html-keyboard-response","572","694181","0.0-1.0-777.0","0","0","15615","","null","","","null","86","NaN","","","","","","","","","","","","","","",""
"","S2","","html-keyboard-response","573","694438","0.0-1.0-778.0","0","0","15615","","null","","","null","86","","NaN","","","","","","","","","","","","","",""
"","response","","html-keyboard-response","574","694635","0.0-1.0-779.0-0.0","0","0","15615","","193","","","68","86","","","2","86","training","adjacent","GF","7","6","M.jpg","L.jpg","0","0","1","",""
"","feedback","","html-keyboard-response","575","695650","0.0-1.0-780.0-0.0","0","0","15615","","null","","","null","86","","","","","","","","","","","","","","","",""
"","ITI","","html-keyboard-response","576","696655","0.0-1.0-783.0","0","0","15615","","null","","","null","86","","","","","","","","","","","","","","","NaN",""
"","S1","","html-keyboard-response","577","696910","0.0-1.0-785.0","0","0","15615","","null","","","null","87","","","","","","","","","","","","","","","",""
"","ISI","","html-keyboard-response","578","697415","0.0-1.0-786.0","0","0","15615","","null","","","null","87","NaN","","","","","","","","","","","","","","",""
"","S2","","html-keyboard-response","579","697767","0.0-1.0-787.0","0","0","15615","","null","","","null","87","","NaN","","","","","","","","","","","","","",""
