"success","ttype","start_time","trial_type","trial_index","time_elapsed","internal_node_id","warning","missed_checkup","PID","view_history","rt","responses","repeat_instructions","key_press","index","keypress_isi","keypress_S2","block","trial_num","phase","group_type","pair_type","S1_stim","S2_stim","S1_img","S2_img","S1_chosen","S1_higher","accuracy","keypress_iti","total_bonus_tally"
"true","full_screen","d08012022hr1518","fullscreen","0","421436","0.0-0.0","0","0","34281","","","","","","","","","","","","","","","","","","","","","",""
"","instructions","","instructions","1","1584983","0.0-1.0-0.0-0.0","0","0","34281","[{""page_index"":0,""viewing_time"":577670},{""page_index"":1,""viewing_time"":507162},{""page_index"":2,""viewing_time"":75800},{""page_index"":3,""viewing_time"":2912}]","1163544","","","","","","","","","","","","","","","","","","","",""
"","comprehension_check","","survey-multi-choice","2","1617631","0.0-1.0-0.0-1.0","0","0","34281","","32640","{""Q0"":""True"",""Q1"":""D"",""Q2"":""When you see the prompt 'MAKE A CHOICE' after the second image was presented"",""Q3"":""Green mark"",""Q4"":""either D or K""}","1","","","","","","","","","","","","","","","","","",""
"","missed_instruction_checkup","","html-keyboard-response","3","1621174","0.0-1.0-0.0-2.0-0.0","0","1","34281","","3536","","","32","","","","","","","","","","","","","","","","",""
"","instructions","","instructions","4","4264981","0.0-1.0-0.1-0.1","0","0","34281","[{""page_index"":0,""viewing_time"":6091},{""page_index"":1,""viewing_time"":19304},{""page_index"":2,""viewing_time"":2423085},{""page_index"":3,""viewing_time"":195321}]","2643802","","","","","","","","","","","","","","","","","","","",""
"","comprehension_check","","survey-multi-choice","5","4340881","0.0-1.0-0.1-1.1","0","0","34281","","75892","{""Q0"":""False"",""Q1"":""D"",""Q2"":""When you see the prompt 'MAKE A CHOICE' after the second image was presented"",""Q3"":""Green mark"",""Q4"":""either D or K""}","1","","","","","","","","","","","","","","","","","",""
"","missed_instruction_checkup","","html-keyboard-response","6","4344957","0.0-1.0-0.1-2.1-0.1","0","1","34281","","4072","","","32","","","","","","","","","","","","","","","","",""
"","instructions","","instructions","7","4373664","0.0-1.0-0.2-0.2","0","0","34281","[{""page_index"":0,""viewing_time"":3512},{""page_index"":1,""viewing_time"":21743},{""page_index"":2,""viewing_time"":472},{""page_index"":3,""viewing_time"":2976}]","28703","","","","","","","","","","","","","","","","","","","",""
"","comprehension_check","","survey-multi-choice","8","4427079","0.0-1.0-0.2-1.2","0","0","34281","","53410","{""Q0"":""True"",""Q1"":""K"",""Q2"":""When you see the prompt 'MAKE A CHOICE' after the second image was presented"",""Q3"":""Green mark"",""Q4"":""either D or K""}","0","","","","","","","","","","","","","","","","","",""
"","start_exp","","html-keyboard-response","9","4429499","0.0-1.0-1.0","0","0","34281","","2415","","","32","","","","","","","","","","","","","","","","",""
"","S1","","html-keyboard-response","10","4429757","0.0-1.0-2.0","0","0","34281","","null","","","null","0","","","","","","","","","","","","","","","",""
"","ISI","","html-keyboard-response","11","4431765","0.0-1.0-3.0","0","0","34281","","null","","","null","0","NaN","","","","","","","","","","","","","","",""
"","S2","","html-keyboard-response","12","4432034","0.0-1.0-4.0","0","0","34281","","null","","","null","0","","NaN","","","","","","","","","","","","","",""
"","response","","html-keyboard-response","13","4432893","0.0-1.0-5.0","0","0","34281","","855","","","75","0","","","1","0","training","adjacent","CD","3","4","O.jpg","R.jpg","1","1","1","",""
"","feedback","","html-keyboard-response","14","4433909","0.0-1.0-6.0-0.0","0","0","34281","","null","","","null","0","","","","","","","","","","","","","","","",""
"","ITI","","html-keyboard-response","15","4434922","0.0-1.0-9.0","0","0","34281","","null","","","null","0","","","","","","","","","","","","","","","NaN",""
"","S1","","html-keyboard-response","16","4435181","0.0-1.0-11.0","0","0","34281","","null","","","null","1","","","","","","","","","","","","","","","",""
"","ISI","","html-keyboard-response","17","4437190","0.0-1.0-12.0","0","0","34281","","448","","","75","1","k","","","","","","","","","","","","","","",""
"","S2","","html-keyboard-response","18","4437455","0.0-1.0-13.0","0","0","34281","","null","","","null","1","","NaN","","","","","","","","","","","","","",""
"","response","","html-keyboard-response","19","4438104","0.0-1.0-14.0","0","0","34281","","643","","","68","1","","","1","1","training","adjacent","EF","5","6","M.jpg","L.jpg","0","1","0","",""
"","feedback","","html-keyboard-response","20","4439115","0.0-1.0-15.0-0.0","0","0","34281","","null","","","null","1","","","","","","","","","","","","","","","",""
"","time_out","","html-keyboard-response","21","4441120","0.0-1.0-17.0-0.0","0","0","34281","","null","","","null","1","","","","","","","","","","","","","","","",""
"","ITI","","html-keyboard-response","22","4442130","0.0-1.0-18.0","0","0","34281","","null","","","null","1","","","","","","","","","","","","","","","NaN",""
"","S1","","html-keyboard-response","23","4442394","0.0-1.0-20.0","0","0","34281","","null","","","null","2","","","","","","","","","","","","","","","",""
"","ISI","","html-keyboard-response","24","4444403","0.0-1.0-21.0","0","0","34281","","null","","","null","2","NaN","","","","","","","","","","","","","","",""
"","S2","","html-keyboard-response","25","4444662","0.0-1.0-22.0","0","0","34281","","null","","","null","2","","NaN","","","","","","","","","","","","","",""
"","response","","html-keyboard-response","26","4445049","0.0-1.0-23.0","0","0","34281","","384","","","68","2","","","1","2","training","adjacent","ED","5","4","M.jpg","R.jpg","0","0","1","",""
"","feedback","","html-keyboard-response","27","4446066","0.0-1.0-24.0-0.0","0","0","34281","","null","","","null","2","","","","","","","","","","","","","","","",""
"","ITI","","html-keyboard-response","28","4447084","0.0-1.0-27.0","0","0","34281","","null","","","null","2","","","","","","","","","","","","","","","NaN",""
"","S1","","html-keyboard-response","29","4447351","0.0-1.0-29.0","0","0","34281","","null","","","null","3","","","","","","","","","","","","","","","",""
"","ISI","","html-keyboard-response","30","4449371","0.0-1.0-30.0","0","0","34281","","null","","","null","3","NaN","","","","","","","","","","","","","","",""
"","S2","","html-keyboard-response","31","4449636","0.0-1.0-31.0","0","0","34281","","null","","","null","3","","NaN","","","","","","","","","","","","","",""
"","response","","html-keyboard-response","32","4449903","0.0-1.0-32.0","0","0","34281","","262","","","75","3","","","1","3","training","adjacent","BC","2","3","N.jpg","O.jpg","1","1","1","",""
"","feedback","","html-keyboard-response","33","4450913","0.0-1.0-33.0-0.0","0","0","34281","","null","","","null","3","","","","","","","","","","","","","","","",""
"","ITI","","html-keyboard-response","34","4451928","0.0-1.0-36.0","0","0","34281","","null","","","null","3","","","","","","","","","","","","","","","NaN",""
"","S1","","html-keyboard-response","35","4452193","0.0-1.0-38.0","0","0","34281","","null","","","null","4","","","","","","","","","","","","","","","",""
"","ISI","","html-keyboard-response","36","4454206","0.0-1.0-39.0","0","0","34281","","null","","","null","4","NaN","","","","","","","","","","","","","","",""
"","S2","","html-keyboard-response","37","4454470","0.0-1.0-40.0","0","0","34281","","null","","","null","4","","NaN","","","","","","","","","","","","","",""
"","response","","html-keyboard-response","38","4455282","0.0-1.0-41.0","0","0","34281","","808","","","75","4","","","1","4","training","adjacent","AB","1","2","P.jpg","N.jpg","1","1","1","",""
"","feedback","","html-keyboard-response","39","4456295","0.0-1.0-42.0-0.0","0","0","34281","","null","","","null","4","","","","","","","","","","","","","","","",""
"","ITI","","html-keyboard-response","40","4457308","0.0-1.0-45.0","0","0","34281","","null","","","null","4","","","","","","","","","","","","","","","NaN",""
"","S1","","html-keyboard-response","41","4457566","0.0-1.0-47.0","0","0","34281","","null","","","null","5","","","","","","","","","","","","","","","",""
"","ISI","","html-keyboard-response","42","4459585","0.0-1.0-48.0","0","0","34281","","null","","","null","5","NaN","","","","","","","","","","","","","","",""
"","S2","","html-keyboard-response","43","4459853","0.0-1.0-49.0","0","0","34281","","null","","","null","5","","NaN","","","","","","","","","","","","","",""
"","response","","html-keyboard-response","44","4460254","0.0-1.0-50.0","0","0","34281","","398","","","75","5","","","1","5","training","adjacent","GF","7","6","Q.jpg","L.jpg","1","0","0","",""
"","feedback","","html-keyboard-response","45","4461271","0.0-1.0-51.0-0.0","0","0","34281","","null","","","null","5","","","","","","","","","","","","","","","",""
"","time_out","","html-keyboard-response","46","4463285","0.0-1.0-53.0-0.0","0","0","34281","","null","","","null","5","","","","","","","","","","","","","","","",""
"","ITI","","html-keyboard-response","47","4464299","0.0-1.0-54.0","0","0","34281","","930","","","32","5","","","","","","","","","","","","","","","space",""
"","S1","","html-keyboard-response","48","4464560","0.0-1.0-56.0","0","0","34281","","null","","","null","6","","","","","","","","","","","","","","","",""
"","ISI","","html-keyboard-response","49","4466571","0.0-1.0-57.0","0","0","34281","","null","","","null","6","NaN","","","","","","","","","","","","","","",""
"","S2","","html-keyboard-response","50","4466836","0.0-1.0-58.0","0","0","34281","","null","","","null","6","","NaN","","","","","","","","","","","","","",""
"","response","","html-keyboard-response","51","4467070","0.0-1.0-59.0","0","0","34281","","230","","","75","6","","","1","6","training","adjacent","EF","5","6","M.jpg","L.jpg","1","1","1","",""
"","feedback","","html-keyboard-response","52","4468083","0.0-1.0-60.0-0.0","0","0","34281","","null","","","null","6","","","","","","","","","","","","","","","",""
"","ITI","","html-keyboard-response","53","4469102","0.0-1.0-63.0","0","0","34281","","null","","","null","6","","","","","","","","","","","","","","","NaN",""
"","S1","","html-keyboard-response","54","4469369","0.0-1.0-65.0","0","0","34281","","null","","","null","7","","","","","","","","","","","","","","","",""
"","ISI","","html-keyboard-response","55","4471387","0.0-1.0-66.0","0","0","34281","","null","","","null","7","NaN","","","","","","","","","","","","","","",""
"","S2","","html-keyboard-response","56","4471653","0.0-1.0-67.0","0","0","34281","","null","","","null","7","","NaN","","","","","","","","","","","","","",""
"","response","","html-keyboard-response","57","4472511","0.0-1.0-68.0","0","0","34281","","855","","","75","7","","","1","7","training","adjacent","BA","2","1","N.jpg","P.jpg","1","0","0","",""
"","feedback","","html-keyboard-response","58","4473525","0.0-1.0-69.0-0.0","0","0","34281","","null","","","null","7","","","","","","","","","","","","","","","",""
"","time_out","","html-keyboard-response","59","4475531","0.0-1.0-71.0-0.0","0","0","34281","","null","","","null","7","","","","","","","","","","","","","","","",""
"","ITI","","html-keyboard-response","60","4476543","0.0-1.0-72.0","0","0","34281","","null","","","null","7","","","","","","","","","","","","","","","NaN",""
"","S1","","html-keyboard-response","61","4476811","0.0-1.0-74.0","0","0","34281","","null","","","null","8","","","","","","","","","","","","","","","",""
"","ISI","","html-keyboard-response","62","4478823","0.0-1.0-75.0","0","0","34281","","null","","","null","8","NaN","","","","","","","","","","","","","","",""
"","S2","","html-keyboard-response","63","4479090","0.0-1.0-76.0","0","0","34281","","null","","","null","8","","NaN","","","","","","","","","","","","","",""
"","response","","html-keyboard-response","64","4479337","0.0-1.0-77.0","0","0","34281","","245","","","68","8","","","1","8","training","adjacent","FG","6","7","L.jpg","Q.jpg","0","1","0","",""
"","feedback","","html-keyboard-response","65","4480350","0.0-1.0-78.0-0.0","0","0","34281","","null","","","null","8","","","","","","","","","","","","","","","",""
"","time_out","","html-keyboard-response","66","4482357","0.0-1.0-80.0-0.0","0","0","34281","","null","","","null","8","","","","","","","","","","","","","","","",""
"","ITI","","html-keyboard-response","67","4483382","0.0-1.0-81.0","0","0","34281","","null","","","null","8","","","","","","","","","","","","","","","NaN",""
"","S1","","html-keyboard-response","68","4483640","0.0-1.0-83.0","0","0","34281","","null","","","null","9","","","","","","","","","","","","","","","",""
"","ISI","","html-keyboard-response","69","4485646","0.0-1.0-84.0","0","0","34281","","645","","","68","9","d","","","","","","","","","","","","","","",""
"","S2","","html-keyboard-response","70","4485911","0.0-1.0-85.0","0","0","34281","","null","","","null","9","","NaN","","","","","","","","","","","","","",""
"","response","","html-keyboard-response","71","4486254","0.0-1.0-86.0","0","0","34281","","342","","","75","9","","","1","9","training","adjacent","FG","6","7","L.jpg","Q.jpg","1","1","1","",""
"","feedback","","html-keyboard-response","72","4487260","0.0-1.0-87.0-0.0","0","0","34281","","null","","","null","9","","","","","","","","","","","","","","","",""
"","ITI","","html-keyboard-response","73","4488267","0.0-1.0-90.0","0","0","34281","","null","","","null","9","","","","","","","","","","","","","","","NaN",""
"","S1","","html-keyboard-response","74","4488529","0.0-1.0-92.0","0","0","34281","","null","","","null","10","","","","","","","","","","","","","","","",""
"","ISI","","html-keyboard-response","75","4490545","0.0-1.0-93.0","0","0","34281","","null","","","null","10","NaN","","","","","","","","","","","","","","",""
"","S2","","html-keyboard-response","76","4490814","0.0-1.0-94.0","0","0","34281","","null","","","null","10","","NaN","","","","","","","","","","","","","",""
"","response","","html-keyboard-response","77","4491517","0.0-1.0-95.0","0","0","34281","","700","","","75","10","","","1","10","training","adjacent","FE","6","5","L.jpg","M.jpg","1","0","0","",""
"","feedback","","html-keyboard-response","78","4492525","0.0-1.0-96.0-0.0","0","0","34281","","null","","","null","10","","","","","","","","","","","","","","","",""
"","time_out","","html-keyboard-response","79","4494538","0.0-1.0-98.0-0.0","0","0","34281","","null","","","null","10","","","","","","","","","","","","","","","",""
"","ITI","","html-keyboard-response","80","4495553","0.0-1.0-99.0","0","0","34281","","null","","","null","10","","","","","","","","","","","","","","","NaN",""
"","S1","","html-keyboard-response","81","4495821","0.0-1.0-101.0","0","0","34281","","null","","","null","11","","","","","","","","","","","","","","","",""
"","ISI","","html-keyboard-response","82","4497836","0.0-1.0-102.0","0","0","34281","","null","","","null","11","NaN","","","","","","","","","","","","","","",""
"","S2","","html-keyboard-response","83","4498103","0.0-1.0-103.0","0","0","34281","","null","","","null","11","","NaN","","","","","","","","","","","","","",""
"","response","","html-keyboard-response","84","4498719","0.0-1.0-104.0","0","0","34281","","612","","","68","11","","","1","11","training","adjacent","DC","4","3","R.jpg","O.jpg","0","0","1","",""
"","feedback","","html-keyboard-response","85","4499733","0.0-1.0-105.0-0.0","0","0","34281","","null","","","null","11","","","","","","","","","","","","","","","",""
"","ITI","","html-keyboard-response","86","4500744","0.0-1.0-108.0","0","0","34281","","null","","","null","11","","","","","","","","","","","","","","","NaN",""
"","S1","","html-keyboard-response","87","4501010","0.0-1.0-110.0","0","0","34281","","null","","","null","12","","","","","","","","","","","","","","","",""
"","ISI","","html-keyboard-response","88","4503022","0.0-1.0-111.0","0","0","34281","","null","","","null","12","NaN","","","","","","","","","","","","","","",""
"","S2","","html-keyboard-response","89","4503292","0.0-1.0-112.0","0","0","34281","","null","","","null","12","","NaN","","","","","","","","","","","","","",""
"","response","","html-keyboard-response","90","4504010","0.0-1.0-113.0","0","0","34281","","714","","","75","12","","","1","12","training","adjacent","ED","5","4","M.jpg","R.jpg","1","0","0","",""
"","feedback","","html-keyboard-response","91","4505023","0.0-1.0-114.0-0.0","0","0","34281","","null","","","null","12","","","","","","","","","","","","","","","",""
"","time_out","","html-keyboard-response","92","4507033","0.0-1.0-116.0-0.0","0","0","34281","","null","","","null","12","","","","","","","","","","","","","","","",""
"","ITI","","html-keyboard-response","93","4508037","0.0-1.0-117.0","0","0","34281","","null","","","null","12","","","","","","","","","","","","","","","NaN",""
"","S1","","html-keyboard-response","94","4508303","0.0-1.0-119.0","0","0","34281","","null","","","null","13","","","","","","","","","","","","","","","",""
"","ISI","","html-keyboard-response","95","4510322","0.0-1.0-120.0","0","0","34281","","null","","","null","13","NaN","","","","","","","","","","","","","","",""
"","S2","","html-keyboard-response","96","4510578","0.0-1.0-121.0","0","0","34281","","null","","","null","13","","NaN","","","","","","","","","","","","","",""
"","response","","html-keyboard-response","97","4510981","0.0-1.0-122.0","0","0","34281","","399","","","75","13","","","1","13","training","adjacent","FE","6","5","L.jpg","M.jpg","1","0","0","",""
"","feedback","","html-keyboard-response","98","4511998","0.0-1.0-123.0-0.0","0","0","34281","","null","","","null","13","","","","","","","","","","","","","","","",""
"","time_out","","html-keyboard-response","99","4514010","0.0-1.0-125.0-0.0","0","0","34281","","null","","","null","13","","","","","","","","","","","","","","","",""
"","ITI","","html-keyboard-response","100","4515026","0.0-1.0-126.0","0","0","34281","","null","","","null","13","","","","","","","","","","","","","","","NaN",""
"","S1","","html-keyboard-response","101","4515285","0.0-1.0-128.0","0","0","34281","","null","","","null","14","","","","","","","","","","","","","","","",""
"","ISI","","html-keyboard-response","102","4517298","0.0-1.0-129.0","0","0","34281","","956","","","75","14","k","","","","","","","","","","","","","","",""
"","S2","","html-keyboard-response","103","4517557","0.0-1.0-130.0","0","0","34281","","null","","","null","14","","NaN","","","","","","","","","","","","","",""
"","response","","html-keyboard-response","104","4518119","0.0-1.0-131.0","0","0","34281","","560","","","75","14","","","1","14","training","adjacent","ED","5","4","M.jpg","R.jpg","1","0","0","",""
"","feedback","","html-keyboard-response","105","4519138","0.0-1.0-132.0-0.0","0","0","34281","","null","","","null","14","","","","","","","","","","","","","","","",""
"","time_out","","html-keyboard-response","106","4521149","0.0-1.0-134.0-0.0","0","0","34281","","null","","","null","14","","","","","","","","","","","","","","","",""
"","ITI","","html-keyboard-response","107","4522164","0.0-1.0-135.0","0","0","34281","","null","","","null","14","","","","","","","","","","","","","","","NaN",""
"","S1","","html-keyboard-response","108","4522427","0.0-1.0-137.0","0","0","34281","","null","","","null","15","","","","","","","","","","","","","","","",""
"","ISI","","html-keyboard-response","109","4524447","0.0-1.0-138.0","0","0","34281","","null","","","null","15","NaN","","","","","","","","","","","","","","",""
"","S2","","html-keyboard-response","110","4524711","0.0-1.0-139.0","0","0","34281","","null","","","null","15","","NaN","","","","","","","","","","","","","",""
"","response","","html-keyboard-response","111","4525149","0.0-1.0-140.0","0","0","34281","","435","","","75","15","","","1","15","training","adjacent","CB","3","2","O.jpg","N.jpg","1","0","0","",""
"","feedback","","html-keyboard-response","112","4526164","0.0-1.0-141.0-0.0","0","0","34281","","null","","","null","15","","","","","","","","","","","","","","","",""
"","time_out","","html-keyboard-response","113","4528179","0.0-1.0-143.0-0.0","0","0","34281","","null","","","null","15","","","","","","","","","","","","","","","",""
"","ITI","","html-keyboard-response","114","4529190","0.0-1.0-144.0","0","0","34281","","null","","","null","15","","","","","","","","","","","","","","","NaN",""
"","S1","","html-keyboard-response","115","4529455","0.0-1.0-146.0","0","0","34281","","null","","","null","16","","","","","","","","","","","","","","","",""
"","ISI","","html-keyboard-response","116","4531467","0.0-1.0-147.0","0","0","34281","","744","","","68","16","d","","","","","","","","","","","","","","",""
"","S2","","html-keyboard-response","117","4531734","0.0-1.0-148.0","0","0","34281","","null","","","null","16","","NaN","","","","","","","","","","","","","",""
"","response","","html-keyboard-response","118","4532278","0.0-1.0-149.0","0","0","34281","","539","","","75","16","","","1","16","training","adjacent","AB","1","2","P.jpg","N.jpg","1","1","1","",""
"","feedback","","html-keyboard-response","119","4533296","0.0-1.0-150.0-0.0","0","0","34281","","null","","","null","16","","","","","","","","","","","","","","","",""
"","ITI","","html-keyboard-response","120","4534313","0.0-1.0-153.0","0","0","34281","","null","","","null","16","","","","","","","","","","","","","","","NaN",""
"","S1","","html-keyboard-response","121","4534576","0.0-1.0-155.0","0","0","34281","","null","","","null","17","","","","","","","","","","","","","","","",""
"","ISI","","html-keyboard-response","122","4536596","0.0-1.0-156.0","0","0","34281","","null","","","null","17","NaN","","","","","","","","","","","","","","",""
"","S2","","html-keyboard-response","123","4536861","0.0-1.0-157.0","0","0","34281","","null","","","null","17","","NaN","","","","","","","","","","","","","",""
"","response","","html-keyboard-response","124","4537434","0.0-1.0-158.0","0","0","34281","","569","","","68","17","","","1","17","training","adjacent","ED","5","4","M.jpg","R.jpg","0","0","1","",""
"","feedback","","html-keyboard-response","125","4538451","0.0-1.0-159.0-0.0","0","0","34281","","null","","","null","17","","","","","","","","","","","","","","","",""
"","ITI","","html-keyboard-response","126","4539462","0.0-1.0-162.0","0","0","34281","","null","","","null","17","","","","","","","","","","","","","","","NaN",""
"","S1","","html-keyboard-response","127","4539720","0.0-1.0-164.0","0","0","34281","","null","","","null","18","","","","","","","","","","","","","","","",""
"","ISI","","html-keyboard-response","128","4541733","0.0-1.0-165.0","0","0","34281","","null","","","null","18","NaN","","","","","","","","","","","","","","",""
"","S2","","html-keyboard-response","129","4541996","0.0-1.0-166.0","0","0","34281","","null","","","null","18","","NaN","","","","","","","","","","","","","",""
"","response","","html-keyboard-response","130","4542895","0.0-1.0-167.0","0","0","34281","","896","","","75","18","","","1","18","training","adjacent","BA","2","1","N.jpg","P.jpg","1","0","0","",""
"","feedback","","html-keyboard-response","131","4543902","0.0-1.0-168.0-0.0","0","0","34281","","null","","","null","18","","","","","","","","","","","","","","","",""
"","time_out","","html-keyboard-response","132","4545919","0.0-1.0-170.0-0.0","0","0","34281","","null","","","null","18","","","","","","","","","","","","","","","",""
"","ITI","","html-keyboard-response","133","4546930","0.0-1.0-171.0","0","0","34281","","null","","","null","18","","","","","","","","","","","","","","","NaN",""
"","S1","","html-keyboard-response","134","4547193","0.0-1.0-173.0","0","0","34281","","null","","","null","19","","","","","","","","","","","","","","","",""
"","ISI","","html-keyboard-response","135","4549210","0.0-1.0-174.0","0","0","34281","","null","","","null","19","NaN","","","","","","","","","","","","","","",""
"","S2","","html-keyboard-response","136","4549473","0.0-1.0-175.0","0","0","34281","","null","","","null","19","","NaN","","","","","","","","","","","","","",""
"","response","","html-keyboard-response","137","4550178","0.0-1.0-176.0","0","0","34281","","702","","","68","19","","","1","19","training","adjacent","FE","6","5","L.jpg","M.jpg","0","0","1","",""
"","feedback","","html-keyboard-response","138","4551185","0.0-1.0-177.0-0.0","0","0","34281","","null","","","null","19","","","","","","","","","","","","","","","",""
"","ITI","","html-keyboard-response","139","4552202","0.0-1.0-180.0","0","0","34281","","null","","","null","19","","","","","","","","","","","","","","","NaN",""
"","S1","","html-keyboard-response","140","4552462","0.0-1.0-182.0","0","0","34281","","null","","","null","20","","","","","","","","","","","","","","","",""
"","ISI","","html-keyboard-response","141","4554479","0.0-1.0-183.0","0","0","34281","","null","","","null","20","NaN","","","","","","","","","","","","","","",""
"","S2","","html-keyboard-response","142","4554745","0.0-1.0-184.0","0","0","34281","","null","","","null","20","","NaN","","","","","","","","","","","","","",""
"","response","","html-keyboard-response","143","4555021","0.0-1.0-185.0","0","0","34281","","271","","","75","20","","","1","20","training","adjacent","EF","5","6","M.jpg","L.jpg","1","1","1","",""
"","feedback","","html-keyboard-response","144","4556027","0.0-1.0-186.0-0.0","0","0","34281","","null","","","null","20","","","","","","","","","","","","","","","",""
"","ITI","","html-keyboard-response","145","4557034","0.0-1.0-189.0","0","0","34281","","null","","","null","20","","","","","","","","","","","","","","","NaN",""
"","S1","","html-keyboard-response","146","4557290","0.0-1.0-191.0","0","0","34281","","null","","","null","21","","","","","","","","","","","","","","","",""
"","ISI","","html-keyboard-response","147","4559302","0.0-1.0-192.0","0","0","34281","","null","","","null","21","NaN","","","","","","","","","","","","","","",""
"","S2","","html-keyboard-response","148","4559556","0.0-1.0-193.0","0","0","34281","","null","","","null","21","","NaN","","","","","","","","","","","","","",""
"","response","","html-keyboard-response","149","4560754","0.0-1.0-194.0","0","0","34281","","1194","","","75","21","","","1","21","training","adjacent","CD","3","4","O.jpg","R.jpg","1","1","1","",""
"","feedback","","html-keyboard-response","150","4561766","0.0-1.0-195.0-0.0","0","0","34281","","null","","","null","21","","","","","","","","","","","","","","","",""
"","ITI","","html-keyboard-response","151","4562784","0.0-1.0-198.0","0","0","34281","","null","","","null","21","","","","","","","","","","","","","","","NaN",""
"","S1","","html-keyboard-response","152","4563046","0.0-1.0-200.0","0","0","34281","","null","","","null","22","","","","","","","","","","","","","","","",""
"","ISI","","html-keyboard-response","153","4565056","0.0-1.0-201.0","0","0","34281","","null","","","null","22","NaN","","","","","","","","","","","","","","",""
"","S2","","html-keyboard-response","154","4565319","0.0-1.0-202.0","0","0","34281","","null","","","null","22","","NaN","","","","","","","","","","","","","",""
"","response","","html-keyboard-response","155","4565749","0.0-1.0-203.0","0","0","34281","","427","","","75","22","","","1","22","training","adjacent","DE","4","5","R.jpg","M.jpg","1","1","1","",""
"","feedback","","html-keyboard-response","156","4566759","0.0-1.0-204.0-0.0","0","0","34281","","null","","","null","22","","","","","","","","","","","","","","","",""
"","ITI","","html-keyboard-response","157","4567773","0.0-1.0-207.0","0","0","34281","","null","","","null","22","","","","","","","","","","","","","","","NaN",""
"","S1","","html-keyboard-response","158","4568041","0.0-1.0-209.0","0","0","34281","","null","","","null","23","","","","","","","","","","","","","","","",""
"","ISI","","html-keyboard-response","159","4570057","0.0-1.0-210.0","0","0","34281","","null","","","null","23","NaN","","","","","","","","","","","","","","",""
"","S2","","html-keyboard-response","160","4570312","0.0-1.0-211.0","0","0","34281","","null","","","null","23","","NaN","","","","","","","","","","","","","",""
"","response","","html-keyboard-response","161","4571445","0.0-1.0-212.0","0","0","34281","","1131","","","68","23","","","1","23","training","adjacent","BA","2","1","N.jpg","P.jpg","0","0","1","",""
"","feedback","","html-keyboard-response","162","4572465","0.0-1.0-213.0-0.0","0","0","34281","","null","","","null","23","","","","","","","","","","","","","","","",""
"","ITI","","html-keyboard-response","163","4573471","0.0-1.0-216.0","0","0","34281","","null","","","null","23","","","","","","","","","","","","","","","NaN",""
"","S1","","html-keyboard-response","164","4573734","0.0-1.0-218.0","0","0","34281","","null","","","null","24","","","","","","","","","","","","","","","",""
"","ISI","","html-keyboard-response","165","4575749","0.0-1.0-219.0","0","0","34281","","null","","","null","24","NaN","","","","","","","","","","","","","","",""
"","S2","","html-keyboard-response","166","4576013","0.0-1.0-220.0","0","0","34281","","null","","","null","24","","NaN","","","","","","","","","","","","","",""
"","response","","html-keyboard-response","167","4576940","0.0-1.0-221.0","0","0","34281","","924","","","68","24","","","1","24","training","adjacent","CD","3","4","O.jpg","R.jpg","0","1","0","",""
"","feedback","","html-keyboard-response","168","4577960","0.0-1.0-222.0-0.0","0","0","34281","","null","","","null","24","","","","","","","","","","","","","","","",""
"","time_out","","html-keyboard-response","169","4579977","0.0-1.0-224.0-0.0","0","0","34281","","null","","","null","24","","","","","","","","","","","","","","","",""
"","ITI","","html-keyboard-response","170","4580996","0.0-1.0-225.0","0","0","34281","","null","","","null","24","","","","","","","","","","","","","","","NaN",""
"","S1","","html-keyboard-response","171","4581266","0.0-1.0-227.0","0","0","34281","","null","","","null","25","","","","","","","","","","","","","","","",""
"","ISI","","html-keyboard-response","172","4583275","0.0-1.0-228.0","0","0","34281","","null","","","null","25","NaN","","","","","","","","","","","","","","",""
"","S2","","html-keyboard-response","173","4583536","0.0-1.0-229.0","0","0","34281","","null","","","null","25","","NaN","","","","","","","","","","","","","",""
"","response","","html-keyboard-response","174","4584100","0.0-1.0-230.0","0","0","34281","","561","","","75","25","","","1","25","training","adjacent","CD","3","4","O.jpg","R.jpg","1","1","1","",""
"","feedback","","html-keyboard-response","175","4585106","0.0-1.0-231.0-0.0","0","0","34281","","null","","","null","25","","","","","","","","","","","","","","","",""
"","ITI","","html-keyboard-response","176","4586119","0.0-1.0-234.0","0","0","34281","","null","","","null","25","","","","","","","","","","","","","","","NaN",""
"","S1","","html-keyboard-response","177","4586386","0.0-1.0-236.0","0","0","34281","","null","","","null","26","","","","","","","","","","","","","","","",""
"","ISI","","html-keyboard-response","178","4588399","0.0-1.0-237.0","0","0","34281","","null","","","null","26","NaN","","","","","","","","","","","","","","",""
"","S2","","html-keyboard-response","179","4588665","0.0-1.0-238.0","0","0","34281","","null","","","null","26","","NaN","","","","","","","","","","","","","",""
"","response","","html-keyboard-response","180","4590590","0.0-1.0-239.0","0","0","34281","","1921","","","75","26","","","1","26","training","adjacent","GF","7","6","Q.jpg","L.jpg","1","0","0","",""
"","feedback","","html-keyboard-response","181","4591595","0.0-1.0-240.0-0.0","0","0","34281","","null","","","null","26","","","","","","","","","","","","","","","",""
"","time_out","","html-keyboard-response","182","4593621","0.0-1.0-242.0-0.0","0","0","34281","","null","","","null","26","","","","","","","","","","","","","","","",""
"","ITI","","html-keyboard-response","183","4594636","0.0-1.0-243.0","0","0","34281","","null","","","null","26","","","","","","","","","","","","","","","NaN",""
"","S1","","html-keyboard-response","184","4594902","0.0-1.0-245.0","0","0","34281","","null","","","null","27","","","","","","","","","","","","","","","",""
"","ISI","","html-keyboard-response","185","4596916","0.0-1.0-246.0","0","0","34281","","null","","","null","27","NaN","","","","","","","","","","","","","","",""
"","S2","","html-keyboard-response","186","4597182","0.0-1.0-247.0","0","0","34281","","null","","","null","27","","NaN","","","","","","","","","","","","","",""
"","response","","html-keyboard-response","187","4598047","0.0-1.0-248.0","0","0","34281","","862","","","75","27","","","1","27","training","adjacent","BA","2","1","N.jpg","P.jpg","1","0","0","",""
"","feedback","","html-keyboard-response","188","4599069","0.0-1.0-249.0-0.0","0","0","34281","","null","","","null","27","","","","","","","","","","","","","","","",""
"","time_out","","html-keyboard-response","189","4601079","0.0-1.0-251.0-0.0","0","0","34281","","null","","","null","27","","","","","","","","","","","","","","","",""
"","ITI","","html-keyboard-response","190","4602094","0.0-1.0-252.0","0","0","34281","","995","","","68","27","","","","","","","","","","","","","","","d",""
"","S1","","html-keyboard-response","191","4602363","0.0-1.0-254.0","0","0","34281","","null","","","null","28","","","","","","","","","","","","","","","",""
"","ISI","","html-keyboard-response","192","4604374","0.0-1.0-255.0","0","0","34281","","null","","","null","28","NaN","","","","","","","","","","","","","","",""
"","S2","","html-keyboard-response","193","4604633","0.0-1.0-256.0","0","0","34281","","null","","","null","28","","NaN","","","","","","","","","","","","","",""
"","response","","html-keyboard-response","194","4605296","0.0-1.0-257.0","0","0","34281","","658","","","75","28","","","1","28","training","adjacent","FG","6","7","L.jpg","Q.jpg","1","1","1","",""
"","feedback","","html-keyboard-response","195","4606306","0.0-1.0-258.0-0.0","0","0","34281","","null","","","null","28","","","","","","","","","","","","","","","",""
"","ITI","","html-keyboard-response","196","4607312","0.0-1.0-261.0","0","0","34281","","null","","","null","28","","","","","","","","","","","","","","","NaN",""
"","S1","","html-keyboard-response","197","4607572","0.0-1.0-263.0","0","0","34281","","null","","","null","29","","","","","","","","","","","","","","","",""
"","ISI","","html-keyboard-response","198","4609576","0.0-1.0-264.0","0","0","34281","","null","","","null","29","NaN","","","","","","","","","","","","","","",""
"","S2","","html-keyboard-response","199","4609838","0.0-1.0-265.0","0","0","34281","","null","","","null","29","","NaN","","","","","","","","","","","","","",""
"","response","","html-keyboard-response","200","4610269","0.0-1.0-266.0","0","0","34281","","428","","","75","29","","","1","29","training","adjacent","DC","4","3","R.jpg","O.jpg","1","0","0","",""
"","feedback","","html-keyboard-response","201","4611295","0.0-1.0-267.0-0.0","0","0","34281","","null","","","null","29","","","","","","","","","","","","","","","",""
"","time_out","","html-keyboard-response","202","4613300","0.0-1.0-269.0-0.0","0","0","34281","","null","","","null","29","","","","","","","","","","","","","","","",""
"","ITI","","html-keyboard-response","203","4614309","0.0-1.0-270.0","0","0","34281","","null","","","null","29","","","","","","","","","","","","","","","NaN",""
"","S1","","html-keyboard-response","204","4614574","0.0-1.0-272.0","0","0","34281","","null","","","null","30","","","","","","","","","","","","","","","",""
"","ISI","","html-keyboard-response","205","4616581","0.0-1.0-273.0","0","0","34281","","null","","","null","30","NaN","","","","","","","","","","","","","","",""
"","S2","","html-keyboard-response","206","4616844","0.0-1.0-274.0","0","0","34281","","null","","","null","30","","NaN","","","","","","","","","","","","","",""
"","response","","html-keyboard-response","207","4618851","0.0-1.0-275.0","0","0","34281","","null","","","null","30","","","1","30","training","adjacent","BC","2","3","N.jpg","O.jpg","NaN","1","0","",""
"","too_slow_prompt","","html-keyboard-response","208","4619870","0.0-1.0-277.0-0.0","1","0","34281","","null","","","null","","","","","","","","","","","","","","","","",""
"","time_out","","html-keyboard-response","209","4621886","0.0-1.0-278.0-0.0","0","0","34281","","null","","","null","30","","","","","","","","","","","","","","","",""
"","ITI","","html-keyboard-response","210","4622892","0.0-1.0-279.0","0","0","34281","","null","","","null","30","","","","","","","","","","","","","","","NaN",""
"","S1","","html-keyboard-response","211","4623158","0.0-1.0-281.0","0","0","34281","","null","","","null","31","","","","","","","","","","","","","","","",""
"","ISI","","html-keyboard-response","212","4625166","0.0-1.0-282.0","0","0","34281","","null","","","null","31","NaN","","","","","","","","","","","","","","",""
"","S2","","html-keyboard-response","213","4625431","0.0-1.0-283.0","0","0","34281","","null","","","null","31","","NaN","","","","","","","","","","","","","",""
"","response","","html-keyboard-response","214","4627449","0.0-1.0-284.0","0","0","34281","","null","","","null","31","","","1","31","training","adjacent","DE","4","5","R.jpg","M.jpg","NaN","1","0","",""
"","too_slow_prompt","","html-keyboard-response","215","4628466","0.0-1.0-286.0-0.0","1","0","34281","","null","","","null","","","","","","","","","","","","","","","","",""
"","time_out","","html-keyboard-response","216","4630472","0.0-1.0-287.0-0.0","0","0","34281","","null","","","null","31","","","","","","","","","","","","","","","",""
"","ITI","","html-keyboard-response","217","4631488","0.0-1.0-288.0","0","0","34281","","205","","","68","31","","","","","","","","","","","","","","","d",""
"","S1","","html-keyboard-response","218","4631757","0.0-1.0-290.0","0","0","34281","","null","","","null","32","","","","","","","","","","","","","","","",""
"","ISI","","html-keyboard-response","219","4633773","0.0-1.0-291.0","0","0","34281","","null","","","null","32","NaN","","","","","","","","","","","","","","",""
"","S2","","html-keyboard-response","220","4634038","0.0-1.0-292.0","0","0","34281","","null","","","null","32","","NaN","","","","","","","","","","","","","",""
"","response","","html-keyboard-response","221","4634317","0.0-1.0-293.0","0","0","34281","","276","","","68","32","","","1","32","training","adjacent","GF","7","6","Q.jpg","L.jpg","0","0","1","",""
"","feedback","","html-keyboard-response","222","4635326","0.0-1.0-294.0-0.0","0","0","34281","","null","","","null","32","","","","","","","","","","","","","","","",""
"","ITI","","html-keyboard-response","223","4636339","0.0-1.0-297.0","0","0","34281","","null","","","null","32","","","","","","","","","","","","","","","NaN",""
"","S1","","html-keyboard-response","224","4636607","0.0-1.0-299.0","0","0","34281","","null","","","null","33","","","","","","","","","","","","","","","",""
"","ISI","","html-keyboard-response","225","4638617","0.0-1.0-300.0","0","0","34281","","null","","","null","33","NaN","","","","","","","","","","","","","","",""
"","S2","","html-keyboard-response","226","4638880","0.0-1.0-301.0","0","0","34281","","null","","","null","33","","NaN","","","","","","","","","","","","","",""
"","response","","html-keyboard-response","227","4640181","0.0-1.0-302.0","0","0","34281","","1298","","","68","33","","","1","33","training","adjacent","BC","2","3","N.jpg","O.jpg","0","1","0","",""
"","feedback","","html-keyboard-response","228","4641200","0.0-1.0-303.0-0.0","0","0","34281","","null","","","null","33","","","","","","","","","","","","","","","",""
"","time_out","","html-keyboard-response","229","4643231","0.0-1.0-305.0-0.0","0","0","34281","","null","","","null","33","","","","","","","","","","","","","","","",""
"","ITI","","html-keyboard-response","230","4644236","0.0-1.0-306.0","0","0","34281","","null","","","null","33","","","","","","","","","","","","","","","NaN",""
"","S1","","html-keyboard-response","231","4644500","0.0-1.0-308.0","0","0","34281","","null","","","null","34","","","","","","","","","","","","","","","",""
"","ISI","","html-keyboard-response","232","4646509","0.0-1.0-309.0","0","0","34281","","null","","","null","34","NaN","","","","","","","","","","","","","","",""
"","S2","","html-keyboard-response","233","4646770","0.0-1.0-310.0","0","0","34281","","null","","","null","34","","NaN","","","","","","","","","","","","","",""
"","response","","html-keyboard-response","234","4647715","0.0-1.0-311.0","0","0","34281","","942","","","75","34","","","1","34","training","adjacent","CB","3","2","O.jpg","N.jpg","1","0","0","",""
"","feedback","","html-keyboard-response","235","4648730","0.0-1.0-312.0-0.0","0","0","34281","","null","","","null","34","","","","","","","","","","","","","","","",""
"","time_out","","html-keyboard-response","236","4650736","0.0-1.0-314.0-0.0","0","0","34281","","null","","","null","34","","","","","","","","","","","","","","","",""
"","ITI","","html-keyboard-response","237","4651752","0.0-1.0-315.0","0","0","34281","","null","","","null","34","","","","","","","","","","","","","","","NaN",""
"","S1","","html-keyboard-response","238","4652006","0.0-1.0-317.0","0","0","34281","","null","","","null","35","","","","","","","","","","","","","","","",""
"","ISI","","html-keyboard-response","239","4654017","0.0-1.0-318.0","0","0","34281","","null","","","null","35","NaN","","","","","","","","","","","","","","",""
"","S2","","html-keyboard-response","240","4654276","0.0-1.0-319.0","0","0","34281","","null","","","null","35","","NaN","","","","","","","","","","","","","",""
"","response","","html-keyboard-response","241","4655997","0.0-1.0-320.0","0","0","34281","","1714","","","75","35","","","1","35","training","adjacent","AB","1","2","P.jpg","N.jpg","1","1","1","",""
"","feedback","","html-keyboard-response","242","4657018","0.0-1.0-321.0-0.0","0","0","34281","","null","","","null","35","","","","","","","","","","","","","","","",""
"","ITI","","html-keyboard-response","243","4658034","0.0-1.0-324.0","0","0","34281","","null","","","null","35","","","","","","","","","","","","","","","NaN",""
"","S1","","html-keyboard-response","244","4658296","0.0-1.0-326.0","0","0","34281","","null","","","null","36","","","","","","","","","","","","","","","",""
"","ISI","","html-keyboard-response","245","4660308","0.0-1.0-327.0","0","0","34281","","null","","","null","36","NaN","","","","","","","","","","","","","","",""
"","S2","","html-keyboard-response","246","4660562","0.0-1.0-328.0","0","0","34281","","null","","","null","36","","NaN","","","","","","","","","","","","","",""
"","response","","html-keyboard-response","247","4662490","0.0-1.0-329.0","0","0","34281","","1925","","","68","36","","","1","36","training","adjacent","DC","4","3","R.jpg","O.jpg","0","0","1","",""
"","feedback","","html-keyboard-response","248","4663497","0.0-1.0-330.0-0.0","0","0","34281","","null","","","null","36","","","","","","","","","","","","","","","",""
"","ITI","","html-keyboard-response","249","4664508","0.0-1.0-333.0","0","0","34281","","null","","","null","36","","","","","","","","","","","","","","","NaN",""
"","S1","","html-keyboard-response","250","4664773","0.0-1.0-335.0","0","0","34281","","null","","","null","37","","","","","","","","","","","","","","","",""
"","ISI","","html-keyboard-response","251","4666789","0.0-1.0-336.0","0","0","34281","","null","","","null","37","NaN","","","","","","","","","","","","","","",""
"","S2","","html-keyboard-response","252","4667059","0.0-1.0-337.0","0","0","34281","","null","","","null","37","","NaN","","","","","","","","","","","","","",""
"","response","","html-keyboard-response","253","4668445","0.0-1.0-338.0","0","0","34281","","1381","","","68","37","","","1","37","training","adjacent","FG","6","7","L.jpg","Q.jpg","0","1","0","",""
"","feedback","","html-keyboard-response","254","4669450","0.0-1.0-339.0-0.0","0","0","34281","","null","","","null","37","","","","","","","","","","","","","","","",""
"","time_out","","html-keyboard-response","255","4671472","0.0-1.0-341.0-0.0","0","0","34281","","null","","","null","37","","","","","","","","","","","","","","","",""
"","ITI","","html-keyboard-response","256","4672488","0.0-1.0-342.0","0","0","34281","","null","","","null","37","","","","","","","","","","","","","","","NaN",""
"","S1","","html-keyboard-response","257","4672758","0.0-1.0-344.0","0","0","34281","","null","","","null","38","","","","","","","","","","","","","","","",""
"","ISI","","html-keyboard-response","258","4674773","0.0-1.0-345.0","0","0","34281","","null","","","null","38","NaN","","","","","","","","","","","","","","",""
"","S2","","html-keyboard-response","259","4675038","0.0-1.0-346.0","0","0","34281","","null","","","null","38","","NaN","","","","","","","","","","","","","",""
"","response","","html-keyboard-response","260","4675972","0.0-1.0-347.0","0","0","34281","","931","","","75","38","","","1","38","training","adjacent","FE","6","5","L.jpg","M.jpg","1","0","0","",""
"","feedback","","html-keyboard-response","261","4676986","0.0-1.0-348.0-0.0","0","0","34281","","null","","","null","38","","","","","","","","","","","","","","","",""
"","time_out","","html-keyboard-response","262","4678995","0.0-1.0-350.0-0.0","0","0","34281","","null","","","null","38","","","","","","","","","","","","","","","",""
"","ITI","","html-keyboard-response","263","4680012","0.0-1.0-351.0","0","0","34281","","null","","","null","38","","","","","","","","","","","","","","","NaN",""
"","S1","","html-keyboard-response","264","4680275","0.0-1.0-353.0","0","0","34281","","null","","","null","39","","","","","","","","","","","","","","","",""
"","ISI","","html-keyboard-response","265","4682282","0.0-1.0-354.0","0","0","34281","","null","","","null","39","NaN","","","","","","","","","","","","","","",""
"","S2","","html-keyboard-response","266","4682548","0.0-1.0-355.0","0","0","34281","","null","","","null","39","","NaN","","","","","","","","","","","","","",""
"","response","","html-keyboard-response","267","4683180","0.0-1.0-356.0","0","0","34281","","628","","","68","39","","","1","39","training","adjacent","CB","3","2","O.jpg","N.jpg","0","0","1","",""
"","feedback","","html-keyboard-response","268","4684188","0.0-1.0-357.0-0.0","0","0","34281","","null","","","null","39","","","","","","","","","","","","","","","",""
"","ITI","","html-keyboard-response","269","4685192","0.0-1.0-360.0","0","0","34281","","null","","","null","39","","","","","","","","","","","","","","","NaN",""
"","S1","","html-keyboard-response","270","4685461","0.0-1.0-362.0","0","0","34281","","null","","","null","40","","","","","","","","","","","","","","","",""
"","ISI","","html-keyboard-response","271","4687477","0.0-1.0-363.0","0","0","34281","","null","","","null","40","NaN","","","","","","","","","","","","","","",""
"","S2","","html-keyboard-response","272","4687740","0.0-1.0-364.0","0","0","34281","","null","","","null","40","","NaN","","","","","","","","","","","","","",""
"","response","","html-keyboard-response","273","4688931","0.0-1.0-365.0","0","0","34281","","1187","","","75","40","","","1","40","training","adjacent","AB","1","2","P.jpg","N.jpg","1","1","1","",""
"","feedback","","html-keyboard-response","274","4689946","0.0-1.0-366.0-0.0","0","0","34281","","null","","","null","40","","","","","","","","","","","","","","","",""
"","ITI","","html-keyboard-response","275","4690954","0.0-1.0-369.0","0","0","34281","","null","","","null","40","","","","","","","","","","","","","","","NaN",""
"","S1","","html-keyboard-response","276","4691214","0.0-1.0-371.0","0","0","34281","","null","","","null","41","","","","","","","","","","","","","","","",""
"","ISI","","html-keyboard-response","277","4693231","0.0-1.0-372.0","0","0","34281","","null","","","null","41","NaN","","","","","","","","","","","","","","",""
"","S2","","html-keyboard-response","278","4693497","0.0-1.0-373.0","0","0","34281","","null","","","null","41","","NaN","","","","","","","","","","","","","",""
"","response","","html-keyboard-response","279","4694236","0.0-1.0-374.0","0","0","34281","","734","","","68","41","","","1","41","training","adjacent","CB","3","2","O.jpg","N.jpg","0","0","1","",""
"","feedback","","html-keyboard-response","280","4695244","0.0-1.0-375.0-0.0","0","0","34281","","null","","","null","41","","","","","","","","","","","","","","","",""
"","ITI","","html-keyboard-response","281","4696252","0.0-1.0-378.0","0","0","34281","","null","","","null","41","","","","","","","","","","","","","","","NaN",""
"","S1","","html-keyboard-response","282","4696521","0.0-1.0-380.0","0","0","34281","","null","","","null","42","","","","","","","","","","","","","","","",""
"","ISI","","html-keyboard-response","283","4698532","0.0-1.0-381.0","0","0","34281","","null","","","null","42","NaN","","","","","","","","","","","","","","",""
"","S2","","html-keyboard-response","284","4698796","0.0-1.0-382.0","0","0","34281","","null","","","null","42","","NaN","","","","","","","","","","","","","",""
"","response","","html-keyboard-response","285","4699072","0.0-1.0-383.0","0","0","34281","","275","","","75","42","","","1","42","training","adjacent","EF","5","6","M.jpg","L.jpg","1","1","1","",""
"","feedback","","html-keyboard-response","286","4700082","0.0-1.0-384.0-0.0","0","0","34281","","null","","","null","42","","","","","","","","","","","","","","","",""
"","ITI","","html-keyboard-response","287","4701091","0.0-1.0-387.0","0","0","34281","","null","","","null","42","","","","","","","","","","","","","","","NaN",""
"","S1","","html-keyboard-response","288","4701354","0.0-1.0-389.0","0","0","34281","","null","","","null","43","","","","","","","","","","","","","","","",""
"","ISI","","html-keyboard-response","289","4703371","0.0-1.0-390.0","0","0","34281","","null","","","null","43","NaN","","","","","","","","","","","","","","",""
"","S2","","html-keyboard-response","290","4703636","0.0-1.0-391.0","0","0","34281","","null","","","null","43","","NaN","","","","","","","","","","","","","",""
"","response","","html-keyboard-response","291","4704521","0.0-1.0-392.0","0","0","34281","","880","","","75","43","","","1","43","training","adjacent","DE","4","5","R.jpg","M.jpg","1","1","1","",""
"","feedback","","html-keyboard-response","292","4705534","0.0-1.0-393.0-0.0","0","0","34281","","null","","","null","43","","","","","","","","","","","","","","","",""
"","ITI","","html-keyboard-response","293","4706546","0.0-1.0-396.0","0","0","34281","","null","","","null","43","","","","","","","","","","","","","","","NaN",""
"","S1","","html-keyboard-response","294","4706811","0.0-1.0-398.0","0","0","34281","","null","","","null","44","","","","","","","","","","","","","","","",""
"","ISI","","html-keyboard-response","295","4708820","0.0-1.0-399.0","0","0","34281","","null","","","null","44","NaN","","","","","","","","","","","","","","",""
"","S2","","html-keyboard-response","296","4709083","0.0-1.0-400.0","0","0","34281","","null","","","null","44","","NaN","","","","","","","","","","","","","",""
"","response","","html-keyboard-response","297","4709460","0.0-1.0-401.0","0","0","34281","","374","","","68","44","","","1","44","training","adjacent","GF","7","6","Q.jpg","L.jpg","0","0","1","",""
"","feedback","","html-keyboard-response","298","4710485","0.0-1.0-402.0-0.0","0","0","34281","","null","","","null","44","","","","","","","","","","","","","","","",""
"","ITI","","html-keyboard-response","299","4711492","0.0-1.0-405.0","0","0","34281","","null","","","null","44","","","","","","","","","","","","","","","NaN",""
"","S1","","html-keyboard-response","300","4711784","0.0-1.0-407.0","0","0","34281","","null","","","null","45","","","","","","","","","","","","","","","",""
"","ISI","","html-keyboard-response","301","4713795","0.0-1.0-408.0","0","0","34281","","null","","","null","45","NaN","","","","","","","","","","","","","","",""
"","S2","","html-keyboard-response","302","4714057","0.0-1.0-409.0","0","0","34281","","null","","","null","45","","NaN","","","","","","","","","","","","","",""
"","response","","html-keyboard-response","303","4715075","0.0-1.0-410.0","0","0","34281","","1013","","","75","45","","","1","45","training","adjacent","BC","2","3","N.jpg","O.jpg","1","1","1","",""
"","feedback","","html-keyboard-response","304","4716085","0.0-1.0-411.0-0.0","0","0","34281","","null","","","null","45","","","","","","","","","","","","","","","",""
"","ITI","","html-keyboard-response","305","4717099","0.0-1.0-414.0","0","0","34281","","null","","","null","45","","","","","","","","","","","","","","","NaN",""
"","S1","","html-keyboard-response","306","4717369","0.0-1.0-416.0","0","0","34281","","null","","","null","46","","","","","","","","","","","","","","","",""
"","ISI","","html-keyboard-response","307","4719386","0.0-1.0-417.0","0","0","34281","","null","","","null","46","NaN","","","","","","","","","","","","","","",""
"","S2","","html-keyboard-response","308","4719652","0.0-1.0-418.0","0","0","34281","","null","","","null","46","","NaN","","","","","","","","","","","","","",""
"","response","","html-keyboard-response","309","4720201","0.0-1.0-419.0","0","0","34281","","540","","","75","46","","","1","46","training","adjacent","DC","4","3","R.jpg","O.jpg","1","0","0","",""
"","feedback","","html-keyboard-response","310","4721212","0.0-1.0-420.0-0.0","0","0","34281","","null","","","null","46","","","","","","","","","","","","","","","",""
"","time_out","","html-keyboard-response","311","4723226","0.0-1.0-422.0-0.0","0","0","34281","","null","","","null","46","","","","","","","","","","","","","","","",""
"","ITI","","html-keyboard-response","312","4724238","0.0-1.0-423.0","0","0","34281","","null","","","null","46","","","","","","","","","","","","","","","NaN",""
"","S1","","html-keyboard-response","313","4724492","0.0-1.0-425.0","0","0","34281","","null","","","null","47","","","","","","","","","","","","","","","",""
"","ISI","","html-keyboard-response","314","4726503","0.0-1.0-426.0","0","0","34281","","null","","","null","47","NaN","","","","","","","","","","","","","","",""
"","S2","","html-keyboard-response","315","4726772","0.0-1.0-427.0","0","0","34281","","null","","","null","47","","NaN","","","","","","","","","","","","","",""
"","response","","html-keyboard-response","316","4727635","0.0-1.0-428.0","0","0","34281","","859","","","68","47","","","1","47","training","adjacent","DE","4","5","R.jpg","M.jpg","0","1","0","",""
"","feedback","","html-keyboard-response","317","4728641","0.0-1.0-429.0-0.0","0","0","34281","","null","","","null","47","","","","","","","","","","","","","","","",""
"","time_out","","html-keyboard-response","318","4730653","0.0-1.0-431.0-0.0","0","0","34281","","null","","","null","47","","","","","","","","","","","","","","","",""
"","ITI","","html-keyboard-response","319","4731665","0.0-1.0-432.0","0","0","34281","","null","","","null","47","","","","","","","","","","","","","","","NaN",""
"","block_over","","html-keyboard-response","320","5273309","0.0-1.0-433.0-0.0","0","0","34281","","541640","","","32","47","","","","","","","","","","","","","","","",""
"","S1","","html-keyboard-response","321","5273571","0.0-1.0-434.0","0","0","34281","","null","","","null","48","","","","","","","","","","","","","","","",""
"","ISI","","html-keyboard-response","322","5275604","0.0-1.0-435.0","0","0","34281","","null","","","null","48","NaN","","","","","","","","","","","","","","",""
"","S2","","html-keyboard-response","323","5275868","0.0-1.0-436.0","0","0","34281","","null","","","null","48","","NaN","","","","","","","","","","","","","",""
"","response","","html-keyboard-response","324","5276610","0.0-1.0-437.0","0","0","34281","","737","","","68","48","","","2","48","training","adjacent","DE","4","5","R.jpg","M.jpg","0","1","0","",""
"","feedback","","html-keyboard-response","325","5277624","0.0-1.0-438.0-0.0","0","0","34281","","null","","","null","48","","","","","","","","","","","","","","","",""
"","time_out","","html-keyboard-response","326","5279644","0.0-1.0-440.0-0.0","0","0","34281","","null","","","null","48","","","","","","","","","","","","","","","",""
"","ITI","","html-keyboard-response","327","5280653","0.0-1.0-441.0","0","0","34281","","null","","","null","48","","","","","","","","","","","","","","","NaN",""
"","S1","","html-keyboard-response","328","5280917","0.0-1.0-443.0","0","0","34281","","null","","","null","49","","","","","","","","","","","","","","","",""
"","ISI","","html-keyboard-response","329","5282932","0.0-1.0-444.0","0","0","34281","","null","","","null","49","NaN","","","","","","","","","","","","","","",""
"","S2","","html-keyboard-response","330","5283206","0.0-1.0-445.0","0","0","34281","","null","","","null","49","","NaN","","","","","","","","","","","","","",""
"","response","","html-keyboard-response","331","5283672","0.0-1.0-446.0","0","0","34281","","462","","","75","49","","","2","49","training","adjacent","DC","4","3","R.jpg","O.jpg","1","0","0","",""
"","feedback","","html-keyboard-response","332","5284687","0.0-1.0-447.0-0.0","0","0","34281","","null","","","null","49","","","","","","","","","","","","","","","",""
"","time_out","","html-keyboard-response","333","5286702","0.0-1.0-449.0-0.0","0","0","34281","","null","","","null","49","","","","","","","","","","","","","","","",""
"","ITI","","html-keyboard-response","334","5287711","0.0-1.0-450.0","0","0","34281","","null","","","null","49","","","","","","","","","","","","","","","NaN",""
"","S1","","html-keyboard-response","335","5287973","0.0-1.0-452.0","0","0","34281","","null","","","null","50","","","","","","","","","","","","","","","",""
"","ISI","","html-keyboard-response","336","5289975","0.0-1.0-453.0","0","0","34281","","null","","","null","50","NaN","","","","","","","","","","","","","","",""
"","S2","","html-keyboard-response","337","5290241","0.0-1.0-454.0","0","0","34281","","null","","","null","50","","NaN","","","","","","","","","","","","","",""
"","response","","html-keyboard-response","338","5290497","0.0-1.0-455.0","0","0","34281","","254","","","75","50","","","2","50","training","adjacent","FE","6","5","L.jpg","M.jpg","1","0","0","",""
"","feedback","","html-keyboard-response","339","5291518","0.0-1.0-456.0-0.0","0","0","34281","","null","","","null","50","","","","","","","","","","","","","","","",""
"","time_out","","html-keyboard-response","340","5293535","0.0-1.0-458.0-0.0","0","0","34281","","null","","","null","50","","","","","","","","","","","","","","","",""
"","ITI","","html-keyboard-response","341","5294552","0.0-1.0-459.0","0","0","34281","","null","","","null","50","","","","","","","","","","","","","","","NaN",""
"","S1","","html-keyboard-response","342","5294809","0.0-1.0-461.0","0","0","34281","","null","","","null","51","","","","","","","","","","","","","","","",""
"","ISI","","html-keyboard-response","343","5296816","0.0-1.0-462.0","0","0","34281","","null","","","null","51","NaN","","","","","","","","","","","","","","",""
"","S2","","html-keyboard-response","344","5297073","0.0-1.0-463.0","0","0","34281","","null","","","null","51","","NaN","","","","","","","","","","","","","",""
"","response","","html-keyboard-response","345","5298036","0.0-1.0-464.0","0","0","34281","","962","","","68","51","","","2","51","training","adjacent","BA","2","1","N.jpg","P.jpg","0","0","1","",""
"","feedback","","html-keyboard-response","346","5299047","0.0-1.0-465.0-0.0","0","0","34281","","null","","","null","51","","","","","","","","","","","","","","","",""
"","ITI","","html-keyboard-response","347","5300059","0.0-1.0-468.0","0","0","34281","","null","","","null","51","","","","","","","","","","","","","","","NaN",""
"","S1","","html-keyboard-response","348","5300329","0.0-1.0-470.0","0","0","34281","","null","","","null","52","","","","","","","","","","","","","","","",""
"","ISI","","html-keyboard-response","349","5302333","0.0-1.0-471.0","0","0","34281","","null","","","null","52","NaN","","","","","","","","","","","","","","",""
"","S2","","html-keyboard-response","350","5302599","0.0-1.0-472.0","0","0","34281","","null","","","null","52","","NaN","","","","","","","","","","","","","",""
"","response","","html-keyboard-response","351","5303265","0.0-1.0-473.0","0","0","34281","","664","","","68","52","","","2","52","training","adjacent","DC","4","3","R.jpg","O.jpg","0","0","1","",""
"","feedback","","html-keyboard-response","352","5304276","0.0-1.0-474.0-0.0","0","0","34281","","null","","","null","52","","","","","","","","","","","","","","","",""
"","ITI","","html-keyboard-response","353","5305285","0.0-1.0-477.0","0","0","34281","","null","","","null","52","","","","","","","","","","","","","","","NaN",""
"","S1","","html-keyboard-response","354","5305555","0.0-1.0-479.0","0","0","34281","","null","","","null","53","","","","","","","","","","","","","","","",""
"","ISI","","html-keyboard-response","355","5307571","0.0-1.0-480.0","0","0","34281","","null","","","null","53","NaN","","","","","","","","","","","","","","",""
"","S2","","html-keyboard-response","356","5307837","0.0-1.0-481.0","0","0","34281","","null","","","null","53","","NaN","","","","","","","","","","","","","",""
"","response","","html-keyboard-response","357","5308011","0.0-1.0-482.0","0","0","34281","","171","","","75","53","","","2","53","training","adjacent","AB","1","2","P.jpg","N.jpg","1","1","1","",""
"","feedback","","html-keyboard-response","358","5309030","0.0-1.0-483.0-0.0","0","0","34281","","null","","","null","53","","","","","","","","","","","","","","","",""
"","ITI","","html-keyboard-response","359","5310044","0.0-1.0-486.0","0","0","34281","","null","","","null","53","","","","","","","","","","","","","","","NaN",""
"","S1","","html-keyboard-response","360","5310306","0.0-1.0-488.0","0","0","34281","","null","","","null","54","","","","","","","","","","","","","","","",""
"","ISI","","html-keyboard-response","361","5312316","0.0-1.0-489.0","0","0","34281","","null","","","null","54","NaN","","","","","","","","","","","","","","",""
"","S2","","html-keyboard-response","362","5312571","0.0-1.0-490.0","0","0","34281","","null","","","null","54","","NaN","","","","","","","","","","","","","",""
"","response","","html-keyboard-response","363","5312887","0.0-1.0-491.0","0","0","34281","","312","","","75","54","","","2","54","training","adjacent","FG","6","7","L.jpg","Q.jpg","1","1","1","",""
"","feedback","","html-keyboard-response","364","5313897","0.0-1.0-492.0-0.0","0","0","34281","","null","","","null","54","","","","","","","","","","","","","","","",""
"","ITI","","html-keyboard-response","365","5314903","0.0-1.0-495.0","0","0","34281","","null","","","null","54","","","","","","","","","","","","","","","NaN",""
"","S1","","html-keyboard-response","366","5315167","0.0-1.0-497.0","0","0","34281","","null","","","null","55","","","","","","","","","","","","","","","",""
"","ISI","","html-keyboard-response","367","5317174","0.0-1.0-498.0","0","0","34281","","null","","","null","55","NaN","","","","","","","","","","","","","","",""
"","S2","","html-keyboard-response","368","5317437","0.0-1.0-499.0","0","0","34281","","null","","","null","55","","NaN","","","","","","","","","","","","","",""
"","response","","html-keyboard-response","369","5317853","0.0-1.0-500.0","0","0","34281","","412","","","68","55","","","2","55","training","adjacent","ED","5","4","M.jpg","R.jpg","0","0","1","",""
"","feedback","","html-keyboard-response","370","5318864","0.0-1.0-501.0-0.0","0","0","34281","","null","","","null","55","","","","","","","","","","","","","","","",""
"","ITI","","html-keyboard-response","371","5319889","0.0-1.0-504.0","0","0","34281","","null","","","null","55","","","","","","","","","","","","","","","NaN",""
"","S1","","html-keyboard-response","372","5320168","0.0-1.0-506.0","0","0","34281","","null","","","null","56","","","","","","","","","","","","","","","",""
"","ISI","","html-keyboard-response","373","5322201","0.0-1.0-507.0","0","0","34281","","null","","","null","56","NaN","","","","","","","","","","","","","","",""
"","S2","","html-keyboard-response","374","5322462","0.0-1.0-508.0","0","0","34281","","null","","","null","56","","NaN","","","","","","","","","","","","","",""
"","response","","html-keyboard-response","375","5323385","0.0-1.0-509.0","0","0","34281","","917","","","75","56","","","2","56","training","adjacent","BC","2","3","N.jpg","O.jpg","1","1","1","",""
"","feedback","","html-keyboard-response","376","5324424","0.0-1.0-510.0-0.0","0","0","34281","","null","","","null","56","","","","","","","","","","","","","","","",""
"","ITI","","html-keyboard-response","377","5325442","0.0-1.0-513.0","0","0","34281","","null","","","null","56","","","","","","","","","","","","","","","NaN",""
"","S1","","html-keyboard-response","378","5325705","0.0-1.0-515.0","0","0","34281","","null","","","null","57","","","","","","","","","","","","","","","",""
"","ISI","","html-keyboard-response","379","5327719","0.0-1.0-516.0","0","0","34281","","null","","","null","57","NaN","","","","","","","","","","","","","","",""
"","S2","","html-keyboard-response","380","5327976","0.0-1.0-517.0","0","0","34281","","null","","","null","57","","NaN","","","","","","","","","","","","","",""
"","response","","html-keyboard-response","381","5328712","0.0-1.0-518.0","0","0","34281","","730","","","75","57","","","2","57","training","adjacent","GF","7","6","Q.jpg","L.jpg","1","0","0","",""
"","feedback","","html-keyboard-response","382","5329729","0.0-1.0-519.0-0.0","0","0","34281","","null","","","null","57","","","","","","","","","","","","","","","",""
"","time_out","","html-keyboard-response","383","5331733","0.0-1.0-521.0-0.0","0","0","34281","","null","","","null","57","","","","","","","","","","","","","","","",""
"","ITI","","html-keyboard-response","384","5332742","0.0-1.0-522.0","0","0","34281","","null","","","null","57","","","","","","","","","","","","","","","NaN",""
"","S1","","html-keyboard-response","385","5333005","0.0-1.0-524.0","0","0","34281","","null","","","null","58","","","","","","","","","","","","","","","",""
"","ISI","","html-keyboard-response","386","5335016","0.0-1.0-525.0","0","0","34281","","null","","","null","58","NaN","","","","","","","","","","","","","","",""
"","S2","","html-keyboard-response","387","5335281","0.0-1.0-526.0","0","0","34281","","null","","","null","58","","NaN","","","","","","","","","","","","","",""
"","response","","html-keyboard-response","388","5336119","0.0-1.0-527.0","0","0","34281","","835","","","68","58","","","2","58","training","adjacent","DE","4","5","R.jpg","M.jpg","0","1","0","",""
"","feedback","","html-keyboard-response","389","5337128","0.0-1.0-528.0-0.0","0","0","34281","","null","","","null","58","","","","","","","","","","","","","","","",""
"","time_out","","html-keyboard-response","390","5339134","0.0-1.0-530.0-0.0","0","0","34281","","null","","","null","58","","","","","","","","","","","","","","","",""
"","ITI","","html-keyboard-response","391","5340140","0.0-1.0-531.0","0","0","34281","","null","","","null","58","","","","","","","","","","","","","","","NaN",""
"","S1","","html-keyboard-response","392","5340395","0.0-1.0-533.0","0","0","34281","","null","","","null","59","","","","","","","","","","","","","","","",""
"","ISI","","html-keyboard-response","393","5342403","0.0-1.0-534.0","0","0","34281","","null","","","null","59","NaN","","","","","","","","","","","","","","",""
"","S2","","html-keyboard-response","394","5342671","0.0-1.0-535.0","0","0","34281","","null","","","null","59","","NaN","","","","","","","","","","","","","",""
"","response","","html-keyboard-response","395","5343500","0.0-1.0-536.0","0","0","34281","","825","","","75","59","","","2","59","training","adjacent","BA","2","1","N.jpg","P.jpg","1","0","0","",""
"","feedback","","html-keyboard-response","396","5344520","0.0-1.0-537.0-0.0","0","0","34281","","null","","","null","59","","","","","","","","","","","","","","","",""
"","time_out","","html-keyboard-response","397","5346552","0.0-1.0-539.0-0.0","0","0","34281","","null","","","null","59","","","","","","","","","","","","","","","",""
"","ITI","","html-keyboard-response","398","5347557","0.0-1.0-540.0","0","0","34281","","null","","","null","59","","","","","","","","","","","","","","","NaN",""
"","S1","","html-keyboard-response","399","5347832","0.0-1.0-542.0","0","0","34281","","null","","","null","60","","","","","","","","","","","","","","","",""
"","ISI","","html-keyboard-response","400","5349841","0.0-1.0-543.0","0","0","34281","","null","","","null","60","NaN","","","","","","","","","","","","","","",""
"","S2","","html-keyboard-response","401","5350101","0.0-1.0-544.0","0","0","34281","","null","","","null","60","","NaN","","","","","","","","","","","","","",""
"","response","","html-keyboard-response","402","5350286","0.0-1.0-545.0","0","0","34281","","181","","","75","60","","","2","60","training","adjacent","CD","3","4","O.jpg","R.jpg","1","1","1","",""
"","feedback","","html-keyboard-response","403","5351308","0.0-1.0-546.0-0.0","0","0","34281","","null","","","null","60","","","","","","","","","","","","","","","",""
"","ITI","","html-keyboard-response","404","5352323","0.0-1.0-549.0","0","0","34281","","null","","","null","60","","","","","","","","","","","","","","","NaN",""
"","S1","","html-keyboard-response","405","5352583","0.0-1.0-551.0","0","0","34281","","null","","","null","61","","","","","","","","","","","","","","","",""
"","ISI","","html-keyboard-response","406","5354589","0.0-1.0-552.0","0","0","34281","","null","","","null","61","NaN","","","","","","","","","","","","","","",""
"","S2","","html-keyboard-response","407","5354854","0.0-1.0-553.0","0","0","34281","","null","","","null","61","","NaN","","","","","","","","","","","","","",""
"","response","","html-keyboard-response","408","5355745","0.0-1.0-554.0","0","0","34281","","884","","","68","61","","","2","61","training","adjacent","BC","2","3","N.jpg","O.jpg","0","1","0","",""
"","feedback","","html-keyboard-response","409","5356752","0.0-1.0-555.0-0.0","0","0","34281","","null","","","null","61","","","","","","","","","","","","","","","",""
"","time_out","","html-keyboard-response","410","5358762","0.0-1.0-557.0-0.0","0","0","34281","","null","","","null","61","","","","","","","","","","","","","","","",""
"","ITI","","html-keyboard-response","411","5359769","0.0-1.0-558.0","0","0","34281","","null","","","null","61","","","","","","","","","","","","","","","NaN",""
"","S1","","html-keyboard-response","412","5360037","0.0-1.0-560.0","0","0","34281","","null","","","null","62","","","","","","","","","","","","","","","",""
"","ISI","","html-keyboard-response","413","5362053","0.0-1.0-561.0","0","0","34281","","null","","","null","62","NaN","","","","","","","","","","","","","","",""
"","S2","","html-keyboard-response","414","5362322","0.0-1.0-562.0","0","0","34281","","null","","","null","62","","NaN","","","","","","","","","","","","","",""
"","response","","html-keyboard-response","415","5363249","0.0-1.0-563.0","0","0","34281","","923","","","75","62","","","2","62","training","adjacent","EF","5","6","M.jpg","L.jpg","1","1","1","",""
"","feedback","","html-keyboard-response","416","5364270","0.0-1.0-564.0-0.0","0","0","34281","","null","","","null","62","","","","","","","","","","","","","","","",""
"","ITI","","html-keyboard-response","417","5365292","0.0-1.0-567.0","0","0","34281","","null","","","null","62","","","","","","","","","","","","","","","NaN",""
"","S1","","html-keyboard-response","418","5365556","0.0-1.0-569.0","0","0","34281","","null","","","null","63","","","","","","","","","","","","","","","",""
"","ISI","","html-keyboard-response","419","5367567","0.0-1.0-570.0","0","0","34281","","null","","","null","63","NaN","","","","","","","","","","","","","","",""
"","S2","","html-keyboard-response","420","5367829","0.0-1.0-571.0","0","0","34281","","null","","","null","63","","NaN","","","","","","","","","","","","","",""
"","response","","html-keyboard-response","421","5368389","0.0-1.0-572.0","0","0","34281","","556","","","68","63","","","2","63","training","adjacent","BA","2","1","N.jpg","P.jpg","0","0","1","",""
"","feedback","","html-keyboard-response","422","5369408","0.0-1.0-573.0-0.0","0","0","34281","","null","","","null","63","","","","","","","","","","","","","","","",""
"","ITI","","html-keyboard-response","423","5370420","0.0-1.0-576.0","0","0","34281","","null","","","null","63","","","","","","","","","","","","","","","NaN",""
"","S1","","html-keyboard-response","424","5370689","0.0-1.0-578.0","0","0","34281","","null","","","null","64","","","","","","","","","","","","","","","",""
"","ISI","","html-keyboard-response","425","5372711","0.0-1.0-579.0","0","0","34281","","null","","","null","64","NaN","","","","","","","","","","","","","","",""
"","S2","","html-keyboard-response","426","5372971","0.0-1.0-580.0","0","0","34281","","null","","","null","64","","NaN","","","","","","","","","","","","","",""
"","response","","html-keyboard-response","427","5374045","0.0-1.0-581.0","0","0","34281","","1068","","","75","64","","","2","64","training","adjacent","ED","5","4","M.jpg","R.jpg","1","0","0","",""
"","feedback","","html-keyboard-response","428","5375054","0.0-1.0-582.0-0.0","0","0","34281","","null","","","null","64","","","","","","","","","","","","","","","",""
"","time_out","","html-keyboard-response","429","5377061","0.0-1.0-584.0-0.0","0","0","34281","","null","","","null","64","","","","","","","","","","","","","","","",""
"","ITI","","html-keyboard-response","430","5378073","0.0-1.0-585.0","0","0","34281","","null","","","null","64","","","","","","","","","","","","","","","NaN",""
"","S1","","html-keyboard-response","431","5378339","0.0-1.0-587.0","0","0","34281","","null","","","null","65","","","","","","","","","","","","","","","",""
"","ISI","","html-keyboard-response","432","5380357","0.0-1.0-588.0","0","0","34281","","null","","","null","65","NaN","","","","","","","","","","","","","","",""
"","S2","","html-keyboard-response","433","5380613","0.0-1.0-589.0","0","0","34281","","null","","","null","65","","NaN","","","","","","","","","","","","","",""
"","response","","html-keyboard-response","434","5381001","0.0-1.0-590.0","0","0","34281","","385","","","68","65","","","2","65","training","adjacent","ED","5","4","M.jpg","R.jpg","0","0","1","",""
"","feedback","","html-keyboard-response","435","5382014","0.0-1.0-591.0-0.0","0","0","34281","","null","","","null","65","","","","","","","","","","","","","","","",""
"","ITI","","html-keyboard-response","436","5383027","0.0-1.0-594.0","0","0","34281","","null","","","null","65","","","","","","","","","","","","","","","NaN",""
"","S1","","html-keyboard-response","437","5383286","0.0-1.0-596.0","0","0","34281","","null","","","null","66","","","","","","","","","","","","","","","",""
"","ISI","","html-keyboard-response","438","5385302","0.0-1.0-597.0","0","0","34281","","null","","","null","66","NaN","","","","","","","","","","","","","","",""
"","S2","","html-keyboard-response","439","5385571","0.0-1.0-598.0","0","0","34281","","null","","","null","66","","NaN","","","","","","","","","","","","","",""
"","response","","html-keyboard-response","440","5386534","0.0-1.0-599.0","0","0","34281","","958","","","68","66","","","2","66","training","adjacent","DC","4","3","R.jpg","O.jpg","0","0","1","",""
"","feedback","","html-keyboard-response","441","5387557","0.0-1.0-600.0-0.0","0","0","34281","","null","","","null","66","","","","","","","","","","","","","","","",""
"","ITI","","html-keyboard-response","442","5388568","0.0-1.0-603.0","0","0","34281","","null","","","null","66","","","","","","","","","","","","","","","NaN",""
"","S1","","html-keyboard-response","443","5388845","0.0-1.0-605.0","0","0","34281","","null","","","null","67","","","","","","","","","","","","","","","",""
"","ISI","","html-keyboard-response","444","5390859","0.0-1.0-606.0","0","0","34281","","null","","","null","67","NaN","","","","","","","","","","","","","","",""
"","S2","","html-keyboard-response","445","5391125","0.0-1.0-607.0","0","0","34281","","null","","","null","67","","NaN","","","","","","","","","","","","","",""
"","response","","html-keyboard-response","446","5391260","0.0-1.0-608.0","0","0","34281","","129","","","75","67","","","2","67","training","adjacent","FE","6","5","L.jpg","M.jpg","1","0","0","",""
"","feedback","","html-keyboard-response","447","5392268","0.0-1.0-609.0-0.0","0","0","34281","","null","","","null","67","","","","","","","","","","","","","","","",""
"","time_out","","html-keyboard-response","448","5394273","0.0-1.0-611.0-0.0","0","0","34281","","null","","","null","67","","","","","","","","","","","","","","","",""
"","ITI","","html-keyboard-response","449","5395276","0.0-1.0-612.0","0","0","34281","","null","","","null","67","","","","","","","","","","","","","","","NaN",""
"","S1","","html-keyboard-response","450","5395542","0.0-1.0-614.0","0","0","34281","","null","","","null","68","","","","","","","","","","","","","","","",""
"","ISI","","html-keyboard-response","451","5397558","0.0-1.0-615.0","0","0","34281","","null","","","null","68","NaN","","","","","","","","","","","","","","",""
"","S2","","html-keyboard-response","452","5397818","0.0-1.0-616.0","0","0","34281","","null","","","null","68","","NaN","","","","","","","","","","","","","",""
"","response","","html-keyboard-response","453","5398935","0.0-1.0-617.0","0","0","34281","","1114","","","75","68","","","2","68","training","adjacent","DE","4","5","R.jpg","M.jpg","1","1","1","",""
"","feedback","","html-keyboard-response","454","5399940","0.0-1.0-618.0-0.0","0","0","34281","","null","","","null","68","","","","","","","","","","","","","","","",""
"","ITI","","html-keyboard-response","455","5401738","0.0-1.0-621.0","0","0","34281","","null","","","null","68","","","","","","","","","","","","","","","NaN",""
"","S1","","html-keyboard-response","456","5402747","0.0-1.0-623.0","0","0","34281","","null","","","null","69","","","","","","","","","","","","","","","",""
"","ISI","","html-keyboard-response","457","5404768","0.0-1.0-624.0","0","0","34281","","1102","","","68","69","d","","","","","","","","","","","","","","",""
"","S2","","html-keyboard-response","458","5405030","0.0-1.0-625.0","0","0","34281","","null","","","null","69","","NaN","","","","","","","","","","","","","",""
"","response","","html-keyboard-response","459","5405733","0.0-1.0-626.0","0","0","34281","","700","","","68","69","","","2","69","training","adjacent","CD","3","4","O.jpg","R.jpg","0","1","0","",""
"","feedback","","html-keyboard-response","460","5406747","0.0-1.0-627.0-0.0","0","0","34281","","null","","","null","69","","","","","","","","","","","","","","","",""
"","time_out","","html-keyboard-response","461","5408757","0.0-1.0-629.0-0.0","0","0","34281","","null","","","null","69","","","","","","","","","","","","","","","",""
"","ITI","","html-keyboard-response","462","5409770","0.0-1.0-630.0","0","0","34281","","null","","","null","69","","","","","","","","","","","","","","","NaN",""
"","S1","","html-keyboard-response","463","5410035","0.0-1.0-632.0","0","0","34281","","null","","","null","70","","","","","","","","","","","","","","","",""
"","ISI","","html-keyboard-response","464","5412045","0.0-1.0-633.0","0","0","34281","","null","","","null","70","NaN","","","","","","","","","","","","","","",""
"","S2","","html-keyboard-response","465","5412311","0.0-1.0-634.0","0","0","34281","","null","","","null","70","","NaN","","","","","","","","","","","","","",""
"","response","","html-keyboard-response","466","5413199","0.0-1.0-635.0","0","0","34281","","885","","","68","70","","","2","70","training","adjacent","GF","7","6","Q.jpg","L.jpg","0","0","1","",""
"","feedback","","html-keyboard-response","467","5414222","0.0-1.0-636.0-0.0","0","0","34281","","null","","","null","70","","","","","","","","","","","","","","","",""
"","ITI","","html-keyboard-response","468","5415238","0.0-1.0-639.0","0","0","34281","","null","","","null","70","","","","","","","","","","","","","","","NaN",""
"","S1","","html-keyboard-response","469","5415501","0.0-1.0-641.0","0","0","34281","","null","","","null","71","","","","","","","","","","","","","","","",""
"","ISI","","html-keyboard-response","470","5417506","0.0-1.0-642.0","0","0","34281","","null","","","null","71","NaN","","","","","","","","","","","","","","",""
"","S2","","html-keyboard-response","471","5417772","0.0-1.0-643.0","0","0","34281","","null","","","null","71","","NaN","","","","","","","","","","","","","",""
"","response","","html-keyboard-response","472","5418005","0.0-1.0-644.0","0","0","34281","","230","","","75","71","","","2","71","training","adjacent","AB","1","2","P.jpg","N.jpg","1","1","1","",""
"","feedback","","html-keyboard-response","473","5419010","0.0-1.0-645.0-0.0","0","0","34281","","null","","","null","71","","","","","","","","","","","","","","","",""
"","ITI","","html-keyboard-response","474","5420022","0.0-1.0-648.0","0","0","34281","","null","","","null","71","","","","","","","","","","","","","","","NaN",""
"","S1","","html-keyboard-response","475","5420291","0.0-1.0-650.0","0","0","34281","","null","","","null","72","","","","","","","","","","","","","","","",""
"","ISI","","html-keyboard-response","476","5422296","0.0-1.0-651.0","0","0","34281","","null","","","null","72","NaN","","","","","","","","","","","","","","",""
"","S2","","html-keyboard-response","477","5422559","0.0-1.0-652.0","0","0","34281","","null","","","null","72","","NaN","","","","","","","","","","","","","",""
"","response","","html-keyboard-response","478","5423520","0.0-1.0-653.0","0","0","34281","","957","","","68","72","","","2","72","training","adjacent","GF","7","6","Q.jpg","L.jpg","0","0","1","",""
"","feedback","","html-keyboard-response","479","5424541","0.0-1.0-654.0-0.0","0","0","34281","","null","","","null","72","","","","","","","","","","","","","","","",""
"","ITI","","html-keyboard-response","480","5425549","0.0-1.0-657.0","0","0","34281","","null","","","null","72","","","","","","","","","","","","","","","NaN",""
"","S1","","html-keyboard-response","481","5425813","0.0-1.0-659.0","0","0","34281","","null","","","null","73","","","","","","","","","","","","","","","",""
"","ISI","","html-keyboard-response","482","5427821","0.0-1.0-660.0","0","0","34281","","null","","","null","73","NaN","","","","","","","","","","","","","","",""
"","S2","","html-keyboard-response","483","5428088","0.0-1.0-661.0","0","0","34281","","null","","","null","73","","NaN","","","","","","","","","","","","","",""
"","response","","html-keyboard-response","484","5429015","0.0-1.0-662.0","0","0","34281","","923","","","68","73","","","2","73","training","adjacent","ED","5","4","M.jpg","R.jpg","0","0","1","",""
"","feedback","","html-keyboard-response","485","5430024","0.0-1.0-663.0-0.0","0","0","34281","","null","","","null","73","","","","","","","","","","","","","","","",""
"","ITI","","html-keyboard-response","486","5431035","0.0-1.0-666.0","0","0","34281","","null","","","null","73","","","","","","","","","","","","","","","NaN",""
"","S1","","html-keyboard-response","487","5431301","0.0-1.0-668.0","0","0","34281","","null","","","null","74","","","","","","","","","","","","","","","",""
"","ISI","","html-keyboard-response","488","5433320","0.0-1.0-669.0","0","0","34281","","null","","","null","74","NaN","","","","","","","","","","","","","","",""
"","S2","","html-keyboard-response","489","5433583","0.0-1.0-670.0","0","0","34281","","null","","","null","74","","NaN","","","","","","","","","","","","","",""
"","response","","html-keyboard-response","490","5434599","0.0-1.0-671.0","0","0","34281","","1012","","","68","74","","","2","74","training","adjacent","BC","2","3","N.jpg","O.jpg","0","1","0","",""
"","feedback","","html-keyboard-response","491","5435607","0.0-1.0-672.0-0.0","0","0","34281","","null","","","null","74","","","","","","","","","","","","","","","",""
"","time_out","","html-keyboard-response","492","5437613","0.0-1.0-674.0-0.0","0","0","34281","","null","","","null","74","","","","","","","","","","","","","","","",""
"","ITI","","html-keyboard-response","493","5438624","0.0-1.0-675.0","0","0","34281","","null","","","null","74","","","","","","","","","","","","","","","NaN",""
"","S1","","html-keyboard-response","494","5438888","0.0-1.0-677.0","0","0","34281","","null","","","null","75","","","","","","","","","","","","","","","",""
"","ISI","","html-keyboard-response","495","5440901","0.0-1.0-678.0","0","0","34281","","null","","","null","75","NaN","","","","","","","","","","","","","","",""
"","S2","","html-keyboard-response","496","5441166","0.0-1.0-679.0","0","0","34281","","null","","","null","75","","NaN","","","","","","","","","","","","","",""
"","response","","html-keyboard-response","497","5441614","0.0-1.0-680.0","0","0","34281","","444","","","75","75","","","2","75","training","adjacent","EF","5","6","M.jpg","L.jpg","1","1","1","",""
"","feedback","","html-keyboard-response","498","5442630","0.0-1.0-681.0-0.0","0","0","34281","","null","","","null","75","","","","","","","","","","","","","","","",""
"","ITI","","html-keyboard-response","499","5443638","0.0-1.0-684.0","0","0","34281","","null","","","null","75","","","","","","","","","","","","","","","NaN",""
"","S1","","html-keyboard-response","500","5443900","0.0-1.0-686.0","0","0","34281","","null","","","null","76","","","","","","","","","","","","","","","",""
"","ISI","","html-keyboard-response","501","5445905","0.0-1.0-687.0","0","0","34281","","null","","","null","76","NaN","","","","","","","","","","","","","","",""
"","S2","","html-keyboard-response","502","5446172","0.0-1.0-688.0","0","0","34281","","null","","","null","76","","NaN","","","","","","","","","","","","","",""
"","response","","html-keyboard-response","503","5446670","0.0-1.0-689.0","0","0","34281","","493","","","75","76","","","2","76","training","adjacent","CB","3","2","O.jpg","N.jpg","1","0","0","",""
"","feedback","","html-keyboard-response","504","5447676","0.0-1.0-690.0-0.0","0","0","34281","","null","","","null","76","","","","","","","","","","","","","","","",""
"","time_out","","html-keyboard-response","505","5449694","0.0-1.0-692.0-0.0","0","0","34281","","null","","","null","76","","","","","","","","","","","","","","","",""
"","ITI","","html-keyboard-response","506","5450702","0.0-1.0-693.0","0","0","34281","","null","","","null","76","","","","","","","","","","","","","","","NaN",""
"","S1","","html-keyboard-response","507","5450969","0.0-1.0-695.0","0","0","34281","","null","","","null","77","","","","","","","","","","","","","","","",""
"","ISI","","html-keyboard-response","508","5452972","0.0-1.0-696.0","0","0","34281","","444","","","68","77","d","","","","","","","","","","","","","","",""
"","S2","","html-keyboard-response","509","5453235","0.0-1.0-697.0","0","0","34281","","40","","","75","77","","k","","","","","","","","","","","","","",""
"","response","","html-keyboard-response","510","5453860","0.0-1.0-698.0","0","0","34281","","622","","","68","77","","","2","77","training","adjacent","GF","7","6","Q.jpg","L.jpg","0","0","1","",""
"","feedback","","html-keyboard-response","511","5454866","0.0-1.0-699.0-0.0","0","0","34281","","null","","","null","77","","","","","","","","","","","","","","","",""
"","ITI","","html-keyboard-response","512","5455892","0.0-1.0-702.0","0","0","34281","","null","","","null","77","","","","","","","","","","","","","","","NaN",""
"","S1","","html-keyboard-response","513","5456146","0.0-1.0-704.0","0","0","34281","","null","","","null","78","","","","","","","","","","","","","","","",""
"","ISI","","html-keyboard-response","514","5458164","0.0-1.0-705.0","0","0","34281","","null","","","null","78","NaN","","","","","","","","","","","","","","",""
"","S2","","html-keyboard-response","515","5458427","0.0-1.0-706.0","0","0","34281","","null","","","null","78","","NaN","","","","","","","","","","","","","",""
"","response","","html-keyboard-response","516","5458858","0.0-1.0-707.0","0","0","34281","","429","","","68","78","","","2","78","training","adjacent","FG","6","7","L.jpg","Q.jpg","0","1","0","",""
"","feedback","","html-keyboard-response","517","5459864","0.0-1.0-708.0-0.0","0","0","34281","","null","","","null","78","","","","","","","","","","","","","","","",""
"","time_out","","html-keyboard-response","518","5461883","0.0-1.0-710.0-0.0","0","0","34281","","null","","","null","78","","","","","","","","","","","","","","","",""
"","ITI","","html-keyboard-response","519","5462896","0.0-1.0-711.0","0","0","34281","","null","","","null","78","","","","","","","","","","","","","","","NaN",""
"","S1","","html-keyboard-response","520","5463160","0.0-1.0-713.0","0","0","34281","","null","","","null","79","","","","","","","","","","","","","","","",""
"","ISI","","html-keyboard-response","521","5465174","0.0-1.0-714.0","0","0","34281","","586","","","68","79","d","","","","","","","","","","","","","","",""
"","S2","","html-keyboard-response","522","5465438","0.0-1.0-715.0","0","0","34281","","null","","","null","79","","NaN","","","","","","","","","","","","","",""
"","response","","html-keyboard-response","523","5466614","0.0-1.0-716.0","0","0","34281","","1173","","","68","79","","","2","79","training","adjacent","FE","6","5","L.jpg","M.jpg","0","0","1","",""
"","feedback","","html-keyboard-response","524","5467631","0.0-1.0-717.0-0.0","0","0","34281","","null","","","null","79","","","","","","","","","","","","","","","",""
"","ITI","","html-keyboard-response","525","5468644","0.0-1.0-720.0","0","0","34281","","null","","","null","79","","","","","","","","","","","","","","","NaN",""
"","S1","","html-keyboard-response","526","5468902","0.0-1.0-722.0","0","0","34281","","null","","","null","80","","","","","","","","","","","","","","","",""
"","ISI","","html-keyboard-response","527","5470913","0.0-1.0-723.0","0","0","34281","","null","","","null","80","NaN","","","","","","","","","","","","","","",""
"","S2","","html-keyboard-response","528","5471178","0.0-1.0-724.0","0","0","34281","","null","","","null","80","","NaN","","","","","","","","","","","","","",""
"","response","","html-keyboard-response","529","5471844","0.0-1.0-725.0","0","0","34281","","663","","","68","80","","","2","80","training","adjacent","DC","4","3","R.jpg","O.jpg","0","0","1","",""
"","feedback","","html-keyboard-response","530","5472855","0.0-1.0-726.0-0.0","0","0","34281","","null","","","null","80","","","","","","","","","","","","","","","",""
"","ITI","","html-keyboard-response","531","5473860","0.0-1.0-729.0","0","0","34281","","null","","","null","80","","","","","","","","","","","","","","","NaN",""
"","S1","","html-keyboard-response","532","5474126","0.0-1.0-731.0","0","0","34281","","null","","","null","81","","","","","","","","","","","","","","","",""
"","ISI","","html-keyboard-response","533","5476153","0.0-1.0-732.0","0","0","34281","","null","","","null","81","NaN","","","","","","","","","","","","","","",""
"","S2","","html-keyboard-response","534","5476423","0.0-1.0-733.0","0","0","34281","","null","","","null","81","","NaN","","","","","","","","","","","","","",""
"","response","","html-keyboard-response","535","5477258","0.0-1.0-734.0","0","0","34281","","831","","","75","81","","","2","81","training","adjacent","CB","3","2","O.jpg","N.jpg","1","0","0","",""
"","feedback","","html-keyboard-response","536","5478280","0.0-1.0-735.0-0.0","0","0","34281","","null","","","null","81","","","","","","","","","","","","","","","",""
"","time_out","","html-keyboard-response","537","5480294","0.0-1.0-737.0-0.0","0","0","34281","","null","","","null","81","","","","","","","","","","","","","","","",""
"","ITI","","html-keyboard-response","538","5481305","0.0-1.0-738.0","0","0","34281","","null","","","null","81","","","","","","","","","","","","","","","NaN",""
"","S1","","html-keyboard-response","539","5481573","0.0-1.0-740.0","0","0","34281","","null","","","null","82","","","","","","","","","","","","","","","",""
"","ISI","","html-keyboard-response","540","5483584","0.0-1.0-741.0","0","0","34281","","823","","","68","82","d","","","","","","","","","","","","","","",""
"","S2","","html-keyboard-response","541","5483848","0.0-1.0-742.0","0","0","34281","","null","","","null","82","","NaN","","","","","","","","","","","","","",""
"","response","","html-keyboard-response","542","5484231","0.0-1.0-743.0","0","0","34281","","378","","","68","82","","","2","82","training","adjacent","CB","3","2","O.jpg","N.jpg","0","0","1","",""
"","feedback","","html-keyboard-response","543","5485236","0.0-1.0-744.0-0.0","0","0","34281","","null","","","null","82","","","","","","","","","","","","","","","",""
"","ITI","","html-keyboard-response","544","5486246","0.0-1.0-747.0","0","0","34281","","null","","","null","82","","","","","","","","","","","","","","","NaN",""
"","S1","","html-keyboard-response","545","5486512","0.0-1.0-749.0","0","0","34281","","null","","","null","83","","","","","","","","","","","","","","","",""
"","ISI","","html-keyboard-response","546","5488527","0.0-1.0-750.0","0","0","34281","","null","","","null","83","NaN","","","","","","","","","","","","","","",""
"","S2","","html-keyboard-response","547","5488785","0.0-1.0-751.0","0","0","34281","","null","","","null","83","","NaN","","","","","","","","","","","","","",""
"","response","","html-keyboard-response","548","5489389","0.0-1.0-752.0","0","0","34281","","599","","","75","83","","","2","83","training","adjacent","CD","3","4","O.jpg","R.jpg","1","1","1","",""
"","feedback","","html-keyboard-response","549","5490409","0.0-1.0-753.0-0.0","0","0","34281","","null","","","null","83","","","","","","","","","","","","","","","",""
"","ITI","","html-keyboard-response","550","5491429","0.0-1.0-756.0","0","0","34281","","null","","","null","83","","","","","","","","","","","","","","","NaN",""
"","S1","","html-keyboard-response","551","5491697","0.0-1.0-758.0","0","0","34281","","null","","","null","84","","","","","","","","","","","","","","","",""
"","ISI","","html-keyboard-response","552","5493716","0.0-1.0-759.0","0","0","34281","","null","","","null","84","NaN","","","","","","","","","","","","","","",""
"","S2","","html-keyboard-response","553","5493982","0.0-1.0-760.0","0","0","34281","","null","","","null","84","","NaN","","","","","","","","","","","","","",""
"","response","","html-keyboard-response","554","5494001","0.0-1.0-761.0","0","0","34281","","16","","","75","84","","","2","84","training","adjacent","BC","2","3","N.jpg","O.jpg","1","1","1","",""
"","feedback","","html-keyboard-response","555","5495017","0.0-1.0-762.0-0.0","0","0","34281","","null","","","null","84","","","","","","","","","","","","","","","",""
"","ITI","","html-keyboard-response","556","5496027","0.0-1.0-765.0","0","0","34281","","null","","","null","84","","","","","","","","","","","","","","","NaN",""
"","S1","","html-keyboard-response","557","5496295","0.0-1.0-767.0","0","0","34281","","null","","","null","85","","","","","","","","","","","","","","","",""
"","ISI","","html-keyboard-response","558","5498301","0.0-1.0-768.0","0","0","34281","","null","","","null","85","NaN","","","","","","","","","","","","","","",""
"","S2","","html-keyboard-response","559","5498567","0.0-1.0-769.0","0","0","34281","","null","","","null","85","","NaN","","","","","","","","","","","","","",""
"","response","","html-keyboard-response","560","5498796","0.0-1.0-770.0","0","0","34281","","226","","","68","85","","","2","85","training","adjacent","AB","1","2","P.jpg","N.jpg","0","1","0","",""
"","feedback","","html-keyboard-response","561","5499819","0.0-1.0-771.0-0.0","0","0","34281","","null","","","null","85","","","","","","","","","","","","","","","",""
"","time_out","","html-keyboard-response","562","5501835","0.0-1.0-773.0-0.0","0","0","34281","","null","","","null","85","","","","","","","","","","","","","","","",""
"","ITI","","html-keyboard-response","563","5502855","0.0-1.0-774.0","0","0","34281","","null","","","null","85","","","","","","","","","","","","","","","NaN",""
"","S1","","html-keyboard-response","564","5503120","0.0-1.0-776.0","0","0","34281","","null","","","null","86","","","","","","","","","","","","","","","",""
"","ISI","","html-keyboard-response","565","5505125","0.0-1.0-777.0","0","0","34281","","844","","","68","86","d","","","","","","","","","","","","","","",""
"","S2","","html-keyboard-response","566","5505391","0.0-1.0-778.0","0","0","34281","","null","","","null","86","","NaN","","","","","","","","","","","","","",""
"","response","","html-keyboard-response","567","5507408","0.0-1.0-779.0","0","0","34281","","null","","","null","86","","","2","86","training","adjacent","EF","5","6","M.jpg","L.jpg","NaN","1","0","",""
"","too_slow_prompt","","html-keyboard-response","568","5508431","0.0-1.0-781.0-0.0","1","0","34281","","null","","","null","","","","","","","","","","","","","","","","",""
"","time_out","","html-keyboard-response","569","5510441","0.0-1.0-782.0-0.0","0","0","34281","","null","","","null","86","","","","","","","","","","","","","","","",""
"","ITI","","html-keyboard-response","570","5511452","0.0-1.0-783.0","0","0","34281","","145","","","68","86","","","","","","","","","","","","","","","d",""
"","S1","","html-keyboard-response","571","5511718","0.0-1.0-785.0","0","0","34281","","null","","","null","87","","","","","","","","","","","","","","","",""
"","ISI","","html-keyboard-response","572","5513738","0.0-1.0-786.0","0","0","34281","","null","","","null","87","NaN","","","","","","","","","","","","","","",""
"","S2","","html-keyboard-response","573","5514000","0.0-1.0-787.0","0","0","34281","","null","","","null","87","","NaN","","","","","","","","","","","","","",""
"","response","","html-keyboard-response","574","5514219","0.0-1.0-788.0","0","0","34281","","217","","","68","87","","","2","87","training","adjacent","FG","6","7","L.jpg","Q.jpg","0","1","0","",""
"","feedback","","html-keyboard-response","575","5515241","0.0-1.0-789.0-0.0","0","0","34281","","null","","","null","87","","","","","","","","","","","","","","","",""
"","time_out","","html-keyboard-response","576","5517257","0.0-1.0-791.0-0.0","0","0","34281","","null","","","null","87","","","","","","","","","","","","","","","",""
"","ITI","","html-keyboard-response","577","5518279","0.0-1.0-792.0","0","0","34281","","null","","","null","87","","","","","","","","","","","","","","","NaN",""
