"success","ttype","start_time","trial_type","trial_index","time_elapsed","internal_node_id","warning","missed_checkup","PID","view_history","rt","responses","repeat_instructions","key_press","index","keypress_isi","keypress_S2","block","trial_num","phase","group_type","pair_type","S1_stim","S2_stim","S1_img","S2_img","S1_chosen","S1_higher","accuracy","keypress_iti","total_bonus_tally"
"true","full_screen","d04062023hr2313","fullscreen","0","17261","0.0-0.0","0","0","29596","","","","","","","","","","","","","","","","","","","","","",""
"","instructions","","instructions","1","85948","0.0-1.0-0.0-0.0","0","0","29596","[{""page_index"":0,""viewing_time"":7712},{""page_index"":1,""viewing_time"":19462},{""page_index"":2,""viewing_time"":3381},{""page_index"":1,""viewing_time"":22840},{""page_index"":2,""viewing_time"":11946},{""page_index"":3,""viewing_time"":3345}]","68686","","","","","","","","","","","","","","","","","","","",""
"","comprehension_check","","survey-multi-choice","2","111822","0.0-1.0-0.0-1.0","0","0","29596","","25871","{""Q0"":""True"",""Q1"":""D"",""Q2"":""Once the second image appears and while the screen 'MAKE A CHOICE' is shown"",""Q3"":""Green mark"",""Q4"":""either D or K""}","0","","","","","","","","","","","","","","","","","",""
"","start_exp","","html-keyboard-response","3","114018","0.0-1.0-1.0","0","0","29596","","2193","","","32","","","","","","","","","","","","","","","","",""
"","S1","","html-keyboard-response","4","114171","0.0-1.0-2.0","0","0","29596","","null","","","null","0","","","","","","","","","","","","","","","",""
"","ISI","","html-keyboard-response","5","116173","0.0-1.0-3.0","0","0","29596","","null","","","null","0","NaN","","","","","","","","","","","","","","",""
"","S2","","html-keyboard-response","6","116326","0.0-1.0-4.0","0","0","29596","","null","","","null","0","","NaN","","","","","","","","","","","","","",""
"","response","","html-keyboard-response","7","117921","0.0-1.0-5.0-0.0","0","0","29596","","1594","","","68","0","","","1","0","training","adjacent","BA","2","1","R.jpg","M.jpg","1","0","0","",""
"","feedback","","html-keyboard-response","8","118924","0.0-1.0-6.0-0.0","0","0","29596","","null","","","null","0","","","","","","","","","","","","","","","",""
"","time_out","","html-keyboard-response","9","120926","0.0-1.0-8.0-0.0","0","0","29596","","null","","","null","0","","","","","","","","","","","","","","","",""
"","ITI","","html-keyboard-response","10","121928","0.0-1.0-9.0","0","0","29596","","null","","","null","0","","","","","","","","","","","","","","","NaN",""
"","S1","","html-keyboard-response","11","122082","0.0-1.0-11.0","0","0","29596","","null","","","null","1","","","","","","","","","","","","","","","",""
"","ISI","","html-keyboard-response","12","124084","0.0-1.0-12.0","0","0","29596","","null","","","null","1","NaN","","","","","","","","","","","","","","",""
"","S2","","html-keyboard-response","13","124237","0.0-1.0-13.0","0","0","29596","","null","","","null","1","","NaN","","","","","","","","","","","","","",""
"","response","","html-keyboard-response","14","125092","0.0-1.0-14.0-0.0","0","0","29596","","854","","","68","1","","","1","1","training","adjacent","FE","6","5","N.jpg","O.jpg","1","0","0","",""
"","feedback","","html-keyboard-response","15","126094","0.0-1.0-15.0-0.0","0","0","29596","","null","","","null","1","","","","","","","","","","","","","","","",""
"","time_out","","html-keyboard-response","16","128097","0.0-1.0-17.0-0.0","0","0","29596","","null","","","null","1","","","","","","","","","","","","","","","",""
"","ITI","","html-keyboard-response","17","129100","0.0-1.0-18.0","0","0","29596","","null","","","null","1","","","","","","","","","","","","","","","NaN",""
"","S1","","html-keyboard-response","18","129252","0.0-1.0-20.0","0","0","29596","","null","","","null","2","","","","","","","","","","","","","","","",""
"","ISI","","html-keyboard-response","19","131255","0.0-1.0-21.0","0","0","29596","","null","","","null","2","NaN","","","","","","","","","","","","","","",""
"","S2","","html-keyboard-response","20","131407","0.0-1.0-22.0","0","0","29596","","null","","","null","2","","NaN","","","","","","","","","","","","","",""
"","response","","html-keyboard-response","21","132121","0.0-1.0-23.0-0.0","0","0","29596","","713","","","68","2","","","1","2","training","adjacent","EF","5","6","O.jpg","N.jpg","1","1","1","",""
"","feedback","","html-keyboard-response","22","133124","0.0-1.0-24.0-0.0","0","0","29596","","null","","","null","2","","","","","","","","","","","","","","","",""
"","ITI","","html-keyboard-response","23","134127","0.0-1.0-27.0","0","0","29596","","null","","","null","2","","","","","","","","","","","","","","","NaN",""
"","S1","","html-keyboard-response","24","134280","0.0-1.0-29.0","0","0","29596","","null","","","null","3","","","","","","","","","","","","","","","",""
"","ISI","","html-keyboard-response","25","136281","0.0-1.0-30.0","0","0","29596","","null","","","null","3","NaN","","","","","","","","","","","","","","",""
"","S2","","html-keyboard-response","26","136433","0.0-1.0-31.0","0","0","29596","","null","","","null","3","","NaN","","","","","","","","","","","","","",""
"","response","","html-keyboard-response","27","137364","0.0-1.0-32.0-0.0","0","0","29596","","929","","","68","3","","","1","3","training","adjacent","FE","6","5","N.jpg","O.jpg","1","0","0","",""
"","feedback","","html-keyboard-response","28","138367","0.0-1.0-33.0-0.0","0","0","29596","","null","","","null","3","","","","","","","","","","","","","","","",""
"","time_out","","html-keyboard-response","29","140369","0.0-1.0-35.0-0.0","0","0","29596","","null","","","null","3","","","","","","","","","","","","","","","",""
"","ITI","","html-keyboard-response","30","141372","0.0-1.0-36.0","0","0","29596","","null","","","null","3","","","","","","","","","","","","","","","NaN",""
"","S1","","html-keyboard-response","31","141524","0.0-1.0-38.0","0","0","29596","","null","","","null","4","","","","","","","","","","","","","","","",""
"","ISI","","html-keyboard-response","32","143527","0.0-1.0-39.0","0","0","29596","","null","","","null","4","NaN","","","","","","","","","","","","","","",""
"","S2","","html-keyboard-response","33","143680","0.0-1.0-40.0","0","0","29596","","null","","","null","4","","NaN","","","","","","","","","","","","","",""
"","response","","html-keyboard-response","34","143866","0.0-1.0-41.0-0.0","0","0","29596","","185","","","68","4","","","1","4","training","adjacent","ED","5","4","O.jpg","Q.jpg","1","0","0","",""
"","feedback","","html-keyboard-response","35","144869","0.0-1.0-42.0-0.0","0","0","29596","","null","","","null","4","","","","","","","","","","","","","","","",""
"","time_out","","html-keyboard-response","36","146871","0.0-1.0-44.0-0.0","0","0","29596","","null","","","null","4","","","","","","","","","","","","","","","",""
"","ITI","","html-keyboard-response","37","147874","0.0-1.0-45.0","0","0","29596","","null","","","null","4","","","","","","","","","","","","","","","NaN",""
"","S1","","html-keyboard-response","38","148027","0.0-1.0-47.0","0","0","29596","","null","","","null","5","","","","","","","","","","","","","","","",""
"","ISI","","html-keyboard-response","39","150029","0.0-1.0-48.0","0","0","29596","","null","","","null","5","NaN","","","","","","","","","","","","","","",""
"","S2","","html-keyboard-response","40","150182","0.0-1.0-49.0","0","0","29596","","null","","","null","5","","NaN","","","","","","","","","","","","","",""
"","response","","html-keyboard-response","41","150292","0.0-1.0-50.0-0.0","0","0","29596","","109","","","68","5","","","1","5","training","adjacent","BA","2","1","R.jpg","M.jpg","1","0","0","",""
"","feedback","","html-keyboard-response","42","151294","0.0-1.0-51.0-0.0","0","0","29596","","null","","","null","5","","","","","","","","","","","","","","","",""
"","time_out","","html-keyboard-response","43","153297","0.0-1.0-53.0-0.0","0","0","29596","","null","","","null","5","","","","","","","","","","","","","","","",""
"","ITI","","html-keyboard-response","44","154300","0.0-1.0-54.0","0","0","29596","","null","","","null","5","","","","","","","","","","","","","","","NaN",""
"","S1","","html-keyboard-response","45","154452","0.0-1.0-56.0","0","0","29596","","null","","","null","6","","","","","","","","","","","","","","","",""
"","ISI","","html-keyboard-response","46","156454","0.0-1.0-57.0","0","0","29596","","1700","","","68","6","d","","","","","","","","","","","","","","",""
"","S2","","html-keyboard-response","47","156607","0.0-1.0-58.0","0","0","29596","","null","","","null","6","","NaN","","","","","","","","","","","","","",""
"","response","","html-keyboard-response","48","156841","0.0-1.0-59.0-0.0","0","0","29596","","233","","","68","6","","","1","6","training","adjacent","FE","6","5","N.jpg","O.jpg","1","0","0","",""
"","feedback","","html-keyboard-response","49","157843","0.0-1.0-60.0-0.0","0","0","29596","","null","","","null","6","","","","","","","","","","","","","","","",""
"","time_out","","html-keyboard-response","50","159846","0.0-1.0-62.0-0.0","0","0","29596","","null","","","null","6","","","","","","","","","","","","","","","",""
"","ITI","","html-keyboard-response","51","160848","0.0-1.0-63.0","0","0","29596","","null","","","null","6","","","","","","","","","","","","","","","NaN",""
"","S1","","html-keyboard-response","52","161001","0.0-1.0-65.0","0","0","29596","","null","","","null","7","","","","","","","","","","","","","","","",""
"","ISI","","html-keyboard-response","53","163003","0.0-1.0-66.0","0","0","29596","","null","","","null","7","NaN","","","","","","","","","","","","","","",""
"","S2","","html-keyboard-response","54","163156","0.0-1.0-67.0","0","0","29596","","null","","","null","7","","NaN","","","","","","","","","","","","","",""
"","response","","html-keyboard-response","55","163348","0.0-1.0-68.0-0.0","0","0","29596","","191","","","75","7","","","1","7","training","adjacent","BC","2","3","R.jpg","P.jpg","0","1","0","",""
"","feedback","","html-keyboard-response","56","164351","0.0-1.0-69.0-0.0","0","0","29596","","null","","","null","7","","","","","","","","","","","","","","","",""
"","time_out","","html-keyboard-response","57","166354","0.0-1.0-71.0-0.0","0","0","29596","","null","","","null","7","","","","","","","","","","","","","","","",""
"","ITI","","html-keyboard-response","58","167356","0.0-1.0-72.0","0","0","29596","","null","","","null","7","","","","","","","","","","","","","","","NaN",""
"","S1","","html-keyboard-response","59","167509","0.0-1.0-74.0","0","0","29596","","null","","","null","8","","","","","","","","","","","","","","","",""
"","ISI","","html-keyboard-response","60","169511","0.0-1.0-75.0","0","0","29596","","null","","","null","8","NaN","","","","","","","","","","","","","","",""
"","S2","","html-keyboard-response","61","169664","0.0-1.0-76.0","0","0","29596","","null","","","null","8","","NaN","","","","","","","","","","","","","",""
"","response","","html-keyboard-response","62","169890","0.0-1.0-77.0-0.0","0","0","29596","","225","","","68","8","","","1","8","training","adjacent","AB","1","2","M.jpg","R.jpg","1","1","1","",""
"","feedback","","html-keyboard-response","63","170892","0.0-1.0-78.0-0.0","0","0","29596","","null","","","null","8","","","","","","","","","","","","","","","",""
"","ITI","","html-keyboard-response","64","171894","0.0-1.0-81.0","0","0","29596","","null","","","null","8","","","","","","","","","","","","","","","NaN",""
"","S1","","html-keyboard-response","65","172047","0.0-1.0-83.0","0","0","29596","","null","","","null","9","","","","","","","","","","","","","","","",""
"","ISI","","html-keyboard-response","66","174049","0.0-1.0-84.0","0","0","29596","","null","","","null","9","NaN","","","","","","","","","","","","","","",""
"","S2","","html-keyboard-response","67","174201","0.0-1.0-85.0","0","0","29596","","null","","","null","9","","NaN","","","","","","","","","","","","","",""
"","response","","html-keyboard-response","68","174508","0.0-1.0-86.0-0.0","0","0","29596","","305","","","75","9","","","1","9","training","adjacent","BC","2","3","R.jpg","P.jpg","0","1","0","",""
"","feedback","","html-keyboard-response","69","175512","0.0-1.0-87.0-0.0","0","0","29596","","null","","","null","9","","","","","","","","","","","","","","","",""
"","time_out","","html-keyboard-response","70","177515","0.0-1.0-89.0-0.0","0","0","29596","","null","","","null","9","","","","","","","","","","","","","","","",""
"","ITI","","html-keyboard-response","71","178517","0.0-1.0-90.0","0","0","29596","","null","","","null","9","","","","","","","","","","","","","","","NaN",""
"","S1","","html-keyboard-response","72","178671","0.0-1.0-92.0","0","0","29596","","null","","","null","10","","","","","","","","","","","","","","","",""
"","ISI","","html-keyboard-response","73","180673","0.0-1.0-93.0","0","0","29596","","1913","","","68","10","d","","","","","","","","","","","","","","",""
"","S2","","html-keyboard-response","74","180826","0.0-1.0-94.0","0","0","29596","","null","","","null","10","","NaN","","","","","","","","","","","","","",""
"","response","","html-keyboard-response","75","181049","0.0-1.0-95.0-0.0","0","0","29596","","222","","","68","10","","","1","10","training","adjacent","EF","5","6","O.jpg","N.jpg","1","1","1","",""
"","feedback","","html-keyboard-response","76","182056","0.0-1.0-96.0-0.0","0","0","29596","","null","","","null","10","","","","","","","","","","","","","","","",""
"","ITI","","html-keyboard-response","77","183059","0.0-1.0-99.0","0","0","29596","","null","","","null","10","","","","","","","","","","","","","","","NaN",""
"","S1","","html-keyboard-response","78","183211","0.0-1.0-101.0","0","0","29596","","null","","","null","11","","","","","","","","","","","","","","","",""
"","ISI","","html-keyboard-response","79","185213","0.0-1.0-102.0","0","0","29596","","null","","","null","11","NaN","","","","","","","","","","","","","","",""
"","S2","","html-keyboard-response","80","185365","0.0-1.0-103.0","0","0","29596","","null","","","null","11","","NaN","","","","","","","","","","","","","",""
"","response","","html-keyboard-response","81","185652","0.0-1.0-104.0-0.0","0","0","29596","","286","","","68","11","","","1","11","training","adjacent","CB","3","2","P.jpg","R.jpg","1","0","0","",""
"","feedback","","html-keyboard-response","82","186656","0.0-1.0-105.0-0.0","0","0","29596","","null","","","null","11","","","","","","","","","","","","","","","",""
"","time_out","","html-keyboard-response","83","188658","0.0-1.0-107.0-0.0","0","0","29596","","null","","","null","11","","","","","","","","","","","","","","","",""
"","ITI","","html-keyboard-response","84","189660","0.0-1.0-108.0","0","0","29596","","null","","","null","11","","","","","","","","","","","","","","","NaN",""
"","S1","","html-keyboard-response","85","189813","0.0-1.0-110.0","0","0","29596","","null","","","null","12","","","","","","","","","","","","","","","",""
"","ISI","","html-keyboard-response","86","191815","0.0-1.0-111.0","0","0","29596","","null","","","null","12","NaN","","","","","","","","","","","","","","",""
"","S2","","html-keyboard-response","87","191967","0.0-1.0-112.0","0","0","29596","","null","","","null","12","","NaN","","","","","","","","","","","","","",""
"","response","","html-keyboard-response","88","192089","0.0-1.0-113.0-0.0","0","0","29596","","121","","","68","12","","","1","12","training","adjacent","ED","5","4","O.jpg","Q.jpg","1","0","0","",""
"","feedback","","html-keyboard-response","89","193091","0.0-1.0-114.0-0.0","0","0","29596","","null","","","null","12","","","","","","","","","","","","","","","",""
"","time_out","","html-keyboard-response","90","195093","0.0-1.0-116.0-0.0","0","0","29596","","null","","","null","12","","","","","","","","","","","","","","","",""
"","ITI","","html-keyboard-response","91","196096","0.0-1.0-117.0","0","0","29596","","null","","","null","12","","","","","","","","","","","","","","","NaN",""
"","S1","","html-keyboard-response","92","196249","0.0-1.0-119.0","0","0","29596","","null","","","null","13","","","","","","","","","","","","","","","",""
"","ISI","","html-keyboard-response","93","198250","0.0-1.0-120.0","0","0","29596","","null","","","null","13","NaN","","","","","","","","","","","","","","",""
"","S2","","html-keyboard-response","94","198403","0.0-1.0-121.0","0","0","29596","","null","","","null","13","","NaN","","","","","","","","","","","","","",""
"","response","","html-keyboard-response","95","198660","0.0-1.0-122.0-0.0","0","0","29596","","256","","","75","13","","","1","13","training","adjacent","CB","3","2","P.jpg","R.jpg","0","0","1","",""
"","feedback","","html-keyboard-response","96","199663","0.0-1.0-123.0-0.0","0","0","29596","","null","","","null","13","","","","","","","","","","","","","","","",""
"","ITI","","html-keyboard-response","97","200665","0.0-1.0-126.0","0","0","29596","","null","","","null","13","","","","","","","","","","","","","","","NaN",""
"","S1","","html-keyboard-response","98","200818","0.0-1.0-128.0","0","0","29596","","null","","","null","14","","","","","","","","","","","","","","","",""
"","ISI","","html-keyboard-response","99","202820","0.0-1.0-129.0","0","0","29596","","null","","","null","14","NaN","","","","","","","","","","","","","","",""
"","S2","","html-keyboard-response","100","202972","0.0-1.0-130.0","0","0","29596","","null","","","null","14","","NaN","","","","","","","","","","","","","",""
"","response","","html-keyboard-response","101","203250","0.0-1.0-131.0-0.0","0","0","29596","","275","","","75","14","","","1","14","training","adjacent","GF","7","6","L.jpg","N.jpg","0","0","1","",""
"","feedback","","html-keyboard-response","102","204253","0.0-1.0-132.0-0.0","0","0","29596","","null","","","null","14","","","","","","","","","","","","","","","",""
"","ITI","","html-keyboard-response","103","205255","0.0-1.0-135.0","0","0","29596","","null","","","null","14","","","","","","","","","","","","","","","NaN",""
"","S1","","html-keyboard-response","104","205408","0.0-1.0-137.0","0","0","29596","","null","","","null","15","","","","","","","","","","","","","","","",""
"","ISI","","html-keyboard-response","105","207410","0.0-1.0-138.0","0","0","29596","","null","","","null","15","NaN","","","","","","","","","","","","","","",""
"","S2","","html-keyboard-response","106","207563","0.0-1.0-139.0","0","0","29596","","null","","","null","15","","NaN","","","","","","","","","","","","","",""
"","response","","html-keyboard-response","107","208050","0.0-1.0-140.0-0.0","0","0","29596","","486","","","68","15","","","1","15","training","adjacent","CB","3","2","P.jpg","R.jpg","1","0","0","",""
"","feedback","","html-keyboard-response","108","209052","0.0-1.0-141.0-0.0","0","0","29596","","null","","","null","15","","","","","","","","","","","","","","","",""
"","time_out","","html-keyboard-response","109","211055","0.0-1.0-143.0-0.0","0","0","29596","","null","","","null","15","","","","","","","","","","","","","","","",""
"","ITI","","html-keyboard-response","110","212057","0.0-1.0-144.0","0","0","29596","","null","","","null","15","","","","","","","","","","","","","","","NaN",""
"","S1","","html-keyboard-response","111","212210","0.0-1.0-146.0","0","0","29596","","null","","","null","16","","","","","","","","","","","","","","","",""
"","ISI","","html-keyboard-response","112","214212","0.0-1.0-147.0","0","0","29596","","null","","","null","16","NaN","","","","","","","","","","","","","","",""
"","S2","","html-keyboard-response","113","214364","0.0-1.0-148.0","0","0","29596","","null","","","null","16","","NaN","","","","","","","","","","","","","",""
"","response","","html-keyboard-response","114","214595","0.0-1.0-149.0-0.0","0","0","29596","","230","","","75","16","","","1","16","training","adjacent","EF","5","6","O.jpg","N.jpg","0","1","0","",""
"","feedback","","html-keyboard-response","115","215598","0.0-1.0-150.0-0.0","0","0","29596","","null","","","null","16","","","","","","","","","","","","","","","",""
"","time_out","","html-keyboard-response","116","217599","0.0-1.0-152.0-0.0","0","0","29596","","null","","","null","16","","","","","","","","","","","","","","","",""
"","ITI","","html-keyboard-response","117","218602","0.0-1.0-153.0","0","0","29596","","null","","","null","16","","","","","","","","","","","","","","","NaN",""
"","S1","","html-keyboard-response","118","218754","0.0-1.0-155.0","0","0","29596","","null","","","null","17","","","","","","","","","","","","","","","",""
"","ISI","","html-keyboard-response","119","220757","0.0-1.0-156.0","0","0","29596","","null","","","null","17","NaN","","","","","","","","","","","","","","",""
"","S2","","html-keyboard-response","120","220922","0.0-1.0-157.0","0","0","29596","","null","","","null","17","","NaN","","","","","","","","","","","","","",""
"","response","","html-keyboard-response","121","221218","0.0-1.0-158.0-0.0","0","0","29596","","293","","","75","17","","","1","17","training","adjacent","CB","3","2","P.jpg","R.jpg","0","0","1","",""
"","feedback","","html-keyboard-response","122","222220","0.0-1.0-159.0-0.0","0","0","29596","","null","","","null","17","","","","","","","","","","","","","","","",""
"","ITI","","html-keyboard-response","123","223223","0.0-1.0-162.0","0","0","29596","","null","","","null","17","","","","","","","","","","","","","","","NaN",""
"","S1","","html-keyboard-response","124","223375","0.0-1.0-164.0","0","0","29596","","null","","","null","18","","","","","","","","","","","","","","","",""
"","ISI","","html-keyboard-response","125","225378","0.0-1.0-165.0","0","0","29596","","null","","","null","18","NaN","","","","","","","","","","","","","","",""
"","S2","","html-keyboard-response","126","225530","0.0-1.0-166.0","0","0","29596","","null","","","null","18","","NaN","","","","","","","","","","","","","",""
"","response","","html-keyboard-response","127","225900","0.0-1.0-167.0-0.0","0","0","29596","","368","","","75","18","","","1","18","training","adjacent","DE","4","5","Q.jpg","O.jpg","0","1","0","",""
"","feedback","","html-keyboard-response","128","226902","0.0-1.0-168.0-0.0","0","0","29596","","null","","","null","18","","","","","","","","","","","","","","","",""
"","time_out","","html-keyboard-response","129","228905","0.0-1.0-170.0-0.0","0","0","29596","","null","","","null","18","","","","","","","","","","","","","","","",""
"","ITI","","html-keyboard-response","130","229908","0.0-1.0-171.0","0","0","29596","","null","","","null","18","","","","","","","","","","","","","","","NaN",""
"","S1","","html-keyboard-response","131","230060","0.0-1.0-173.0","0","0","29596","","null","","","null","19","","","","","","","","","","","","","","","",""
"","ISI","","html-keyboard-response","132","232062","0.0-1.0-174.0","0","0","29596","","null","","","null","19","NaN","","","","","","","","","","","","","","",""
"","S2","","html-keyboard-response","133","232214","0.0-1.0-175.0","0","0","29596","","null","","","null","19","","NaN","","","","","","","","","","","","","",""
"","response","","html-keyboard-response","134","232458","0.0-1.0-176.0-0.0","0","0","29596","","243","","","75","19","","","1","19","training","adjacent","FG","6","7","N.jpg","L.jpg","0","1","0","",""
"","feedback","","html-keyboard-response","135","233460","0.0-1.0-177.0-0.0","0","0","29596","","null","","","null","19","","","","","","","","","","","","","","","",""
"","time_out","","html-keyboard-response","136","235462","0.0-1.0-179.0-0.0","0","0","29596","","null","","","null","19","","","","","","","","","","","","","","","",""
"","ITI","","html-keyboard-response","137","236464","0.0-1.0-180.0","0","0","29596","","null","","","null","19","","","","","","","","","","","","","","","NaN",""
"","S1","","html-keyboard-response","138","236617","0.0-1.0-182.0","0","0","29596","","null","","","null","20","","","","","","","","","","","","","","","",""
"","ISI","","html-keyboard-response","139","238619","0.0-1.0-183.0","0","0","29596","","null","","","null","20","NaN","","","","","","","","","","","","","","",""
"","S2","","html-keyboard-response","140","238771","0.0-1.0-184.0","0","0","29596","","null","","","null","20","","NaN","","","","","","","","","","","","","",""
"","response","","html-keyboard-response","141","238892","0.0-1.0-185.0-0.0","0","0","29596","","120","","","75","20","","","1","20","training","adjacent","FE","6","5","N.jpg","O.jpg","0","0","1","",""
"","feedback","","html-keyboard-response","142","239894","0.0-1.0-186.0-0.0","0","0","29596","","null","","","null","20","","","","","","","","","","","","","","","",""
"","ITI","","html-keyboard-response","143","240897","0.0-1.0-189.0","0","0","29596","","null","","","null","20","","","","","","","","","","","","","","","NaN",""
"","S1","","html-keyboard-response","144","241049","0.0-1.0-191.0","0","0","29596","","null","","","null","21","","","","","","","","","","","","","","","",""
"","ISI","","html-keyboard-response","145","243051","0.0-1.0-192.0","0","0","29596","","null","","","null","21","NaN","","","","","","","","","","","","","","",""
"","S2","","html-keyboard-response","146","243204","0.0-1.0-193.0","0","0","29596","","null","","","null","21","","NaN","","","","","","","","","","","","","",""
"","response","","html-keyboard-response","147","243418","0.0-1.0-194.0-0.0","0","0","29596","","213","","","75","21","","","1","21","training","adjacent","DC","4","3","Q.jpg","P.jpg","0","0","1","",""
"","feedback","","html-keyboard-response","148","244420","0.0-1.0-195.0-0.0","0","0","29596","","null","","","null","21","","","","","","","","","","","","","","","",""
"","ITI","","html-keyboard-response","149","245423","0.0-1.0-198.0","0","0","29596","","null","","","null","21","","","","","","","","","","","","","","","NaN",""
"","S1","","html-keyboard-response","150","245575","0.0-1.0-200.0","0","0","29596","","null","","","null","22","","","","","","","","","","","","","","","",""
"","ISI","","html-keyboard-response","151","247578","0.0-1.0-201.0","0","0","29596","","null","","","null","22","NaN","","","","","","","","","","","","","","",""
"","S2","","html-keyboard-response","152","247730","0.0-1.0-202.0","0","0","29596","","null","","","null","22","","NaN","","","","","","","","","","","","","",""
"","response","","html-keyboard-response","153","247969","0.0-1.0-203.0-0.0","0","0","29596","","238","","","75","22","","","1","22","training","adjacent","EF","5","6","O.jpg","N.jpg","0","1","0","",""
"","feedback","","html-keyboard-response","154","248972","0.0-1.0-204.0-0.0","0","0","29596","","null","","","null","22","","","","","","","","","","","","","","","",""
"","time_out","","html-keyboard-response","155","250974","0.0-1.0-206.0-0.0","0","0","29596","","null","","","null","22","","","","","","","","","","","","","","","",""
"","ITI","","html-keyboard-response","156","251975","0.0-1.0-207.0","0","0","29596","","null","","","null","22","","","","","","","","","","","","","","","NaN",""
"","S1","","html-keyboard-response","157","252128","0.0-1.0-209.0","0","0","29596","","null","","","null","23","","","","","","","","","","","","","","","",""
"","ISI","","html-keyboard-response","158","254129","0.0-1.0-210.0","0","0","29596","","null","","","null","23","NaN","","","","","","","","","","","","","","",""
"","S2","","html-keyboard-response","159","254282","0.0-1.0-211.0","0","0","29596","","null","","","null","23","","NaN","","","","","","","","","","","","","",""
"","response","","html-keyboard-response","160","254443","0.0-1.0-212.0-0.0","0","0","29596","","160","","","75","23","","","1","23","training","adjacent","BC","2","3","R.jpg","P.jpg","0","1","0","",""
"","feedback","","html-keyboard-response","161","255445","0.0-1.0-213.0-0.0","0","0","29596","","null","","","null","23","","","","","","","","","","","","","","","",""
"","time_out","","html-keyboard-response","162","257447","0.0-1.0-215.0-0.0","0","0","29596","","null","","","null","23","","","","","","","","","","","","","","","",""
"","ITI","","html-keyboard-response","163","258450","0.0-1.0-216.0","0","0","29596","","null","","","null","23","","","","","","","","","","","","","","","NaN",""
"","S1","","html-keyboard-response","164","258602","0.0-1.0-218.0","0","0","29596","","null","","","null","24","","","","","","","","","","","","","","","",""
"","ISI","","html-keyboard-response","165","260604","0.0-1.0-219.0","0","0","29596","","null","","","null","24","NaN","","","","","","","","","","","","","","",""
"","S2","","html-keyboard-response","166","260757","0.0-1.0-220.0","0","0","29596","","null","","","null","24","","NaN","","","","","","","","","","","","","",""
"","response","","html-keyboard-response","167","260905","0.0-1.0-221.0-0.0","0","0","29596","","147","","","75","24","","","1","24","training","adjacent","DC","4","3","Q.jpg","P.jpg","0","0","1","",""
"","feedback","","html-keyboard-response","168","261907","0.0-1.0-222.0-0.0","0","0","29596","","null","","","null","24","","","","","","","","","","","","","","","",""
"","ITI","","html-keyboard-response","169","262909","0.0-1.0-225.0","0","0","29596","","null","","","null","24","","","","","","","","","","","","","","","NaN",""
"","S1","","html-keyboard-response","170","263062","0.0-1.0-227.0","0","0","29596","","null","","","null","25","","","","","","","","","","","","","","","",""
"","ISI","","html-keyboard-response","171","265065","0.0-1.0-228.0","0","0","29596","","null","","","null","25","NaN","","","","","","","","","","","","","","",""
"","S2","","html-keyboard-response","172","265217","0.0-1.0-229.0","0","0","29596","","null","","","null","25","","NaN","","","","","","","","","","","","","",""
"","response","","html-keyboard-response","173","265436","0.0-1.0-230.0-0.0","0","0","29596","","217","","","75","25","","","1","25","training","adjacent","GF","7","6","L.jpg","N.jpg","0","0","1","",""
"","feedback","","html-keyboard-response","174","266438","0.0-1.0-231.0-0.0","0","0","29596","","null","","","null","25","","","","","","","","","","","","","","","",""
"","ITI","","html-keyboard-response","175","267442","0.0-1.0-234.0","0","0","29596","","null","","","null","25","","","","","","","","","","","","","","","NaN",""
"","S1","","html-keyboard-response","176","267594","0.0-1.0-236.0","0","0","29596","","null","","","null","26","","","","","","","","","","","","","","","",""
"","ISI","","html-keyboard-response","177","269596","0.0-1.0-237.0","0","0","29596","","null","","","null","26","NaN","","","","","","","","","","","","","","",""
"","S2","","html-keyboard-response","178","269749","0.0-1.0-238.0","0","0","29596","","null","","","null","26","","NaN","","","","","","","","","","","","","",""
"","response","","html-keyboard-response","179","269930","0.0-1.0-239.0-0.0","0","0","29596","","180","","","68","26","","","1","26","training","adjacent","FG","6","7","N.jpg","L.jpg","1","1","1","",""
"","feedback","","html-keyboard-response","180","270933","0.0-1.0-240.0-0.0","0","0","29596","","null","","","null","26","","","","","","","","","","","","","","","",""
"","ITI","","html-keyboard-response","181","271935","0.0-1.0-243.0","0","0","29596","","null","","","null","26","","","","","","","","","","","","","","","NaN",""
"","S1","","html-keyboard-response","182","272087","0.0-1.0-245.0","0","0","29596","","null","","","null","27","","","","","","","","","","","","","","","",""
"","ISI","","html-keyboard-response","183","274089","0.0-1.0-246.0","0","0","29596","","null","","","null","27","NaN","","","","","","","","","","","","","","",""
"","S2","","html-keyboard-response","184","274242","0.0-1.0-247.0","0","0","29596","","null","","","null","27","","NaN","","","","","","","","","","","","","",""
"","response","","html-keyboard-response","185","274578","0.0-1.0-248.0-0.0","0","0","29596","","334","","","68","27","","","1","27","training","adjacent","CD","3","4","P.jpg","Q.jpg","1","1","1","",""
"","feedback","","html-keyboard-response","186","275580","0.0-1.0-249.0-0.0","0","0","29596","","null","","","null","27","","","","","","","","","","","","","","","",""
"","ITI","","html-keyboard-response","187","276582","0.0-1.0-252.0","0","0","29596","","null","","","null","27","","","","","","","","","","","","","","","NaN",""
"","S1","","html-keyboard-response","188","276735","0.0-1.0-254.0","0","0","29596","","null","","","null","28","","","","","","","","","","","","","","","",""
"","ISI","","html-keyboard-response","189","278737","0.0-1.0-255.0","0","0","29596","","null","","","null","28","NaN","","","","","","","","","","","","","","",""
"","S2","","html-keyboard-response","190","278891","0.0-1.0-256.0","0","0","29596","","null","","","null","28","","NaN","","","","","","","","","","","","","",""
"","response","","html-keyboard-response","191","279155","0.0-1.0-257.0-0.0","0","0","29596","","263","","","75","28","","","1","28","training","adjacent","DE","4","5","Q.jpg","O.jpg","0","1","0","",""
"","feedback","","html-keyboard-response","192","280158","0.0-1.0-258.0-0.0","0","0","29596","","null","","","null","28","","","","","","","","","","","","","","","",""
"","time_out","","html-keyboard-response","193","282162","0.0-1.0-260.0-0.0","0","0","29596","","null","","","null","28","","","","","","","","","","","","","","","",""
"","ITI","","html-keyboard-response","194","283164","0.0-1.0-261.0","0","0","29596","","null","","","null","28","","","","","","","","","","","","","","","NaN",""
"","S1","","html-keyboard-response","195","283316","0.0-1.0-263.0","0","0","29596","","null","","","null","29","","","","","","","","","","","","","","","",""
"","ISI","","html-keyboard-response","196","285318","0.0-1.0-264.0","0","0","29596","","null","","","null","29","NaN","","","","","","","","","","","","","","",""
"","S2","","html-keyboard-response","197","285471","0.0-1.0-265.0","0","0","29596","","null","","","null","29","","NaN","","","","","","","","","","","","","",""
"","response","","html-keyboard-response","198","285641","0.0-1.0-266.0-0.0","0","0","29596","","168","","","75","29","","","1","29","training","adjacent","ED","5","4","O.jpg","Q.jpg","0","0","1","",""
"","feedback","","html-keyboard-response","199","286643","0.0-1.0-267.0-0.0","0","0","29596","","null","","","null","29","","","","","","","","","","","","","","","",""
"","ITI","","html-keyboard-response","200","287645","0.0-1.0-270.0","0","0","29596","","null","","","null","29","","","","","","","","","","","","","","","NaN",""
"","S1","","html-keyboard-response","201","287798","0.0-1.0-272.0","0","0","29596","","null","","","null","30","","","","","","","","","","","","","","","",""
"","ISI","","html-keyboard-response","202","289801","0.0-1.0-273.0","0","0","29596","","null","","","null","30","NaN","","","","","","","","","","","","","","",""
"","S2","","html-keyboard-response","203","289954","0.0-1.0-274.0","0","0","29596","","null","","","null","30","","NaN","","","","","","","","","","","","","",""
"","response","","html-keyboard-response","204","290236","0.0-1.0-275.0-0.0","0","0","29596","","281","","","68","30","","","1","30","training","adjacent","DE","4","5","Q.jpg","O.jpg","1","1","1","",""
"","feedback","","html-keyboard-response","205","291238","0.0-1.0-276.0-0.0","0","0","29596","","null","","","null","30","","","","","","","","","","","","","","","",""
"","ITI","","html-keyboard-response","206","292241","0.0-1.0-279.0","0","0","29596","","null","","","null","30","","","","","","","","","","","","","","","NaN",""
"","S1","","html-keyboard-response","207","292393","0.0-1.0-281.0","0","0","29596","","null","","","null","31","","","","","","","","","","","","","","","",""
"","ISI","","html-keyboard-response","208","294401","0.0-1.0-282.0","0","0","29596","","null","","","null","31","NaN","","","","","","","","","","","","","","",""
"","S2","","html-keyboard-response","209","294554","0.0-1.0-283.0","0","0","29596","","null","","","null","31","","NaN","","","","","","","","","","","","","",""
"","response","","html-keyboard-response","210","294905","0.0-1.0-284.0-0.0","0","0","29596","","349","","","68","31","","","1","31","training","adjacent","BA","2","1","R.jpg","M.jpg","1","0","0","",""
"","feedback","","html-keyboard-response","211","295908","0.0-1.0-285.0-0.0","0","0","29596","","null","","","null","31","","","","","","","","","","","","","","","",""
"","time_out","","html-keyboard-response","212","297910","0.0-1.0-287.0-0.0","0","0","29596","","null","","","null","31","","","","","","","","","","","","","","","",""
"","ITI","","html-keyboard-response","213","298912","0.0-1.0-288.0","0","0","29596","","null","","","null","31","","","","","","","","","","","","","","","NaN",""
"","S1","","html-keyboard-response","214","299065","0.0-1.0-290.0","0","0","29596","","null","","","null","32","","","","","","","","","","","","","","","",""
"","ISI","","html-keyboard-response","215","301067","0.0-1.0-291.0","0","0","29596","","null","","","null","32","NaN","","","","","","","","","","","","","","",""
"","S2","","html-keyboard-response","216","301219","0.0-1.0-292.0","0","0","29596","","null","","","null","32","","NaN","","","","","","","","","","","","","",""
"","response","","html-keyboard-response","217","301595","0.0-1.0-293.0-0.0","0","0","29596","","375","","","75","32","","","1","32","training","adjacent","ED","5","4","O.jpg","Q.jpg","0","0","1","",""
"","feedback","","html-keyboard-response","218","302598","0.0-1.0-294.0-0.0","0","0","29596","","null","","","null","32","","","","","","","","","","","","","","","",""
"","ITI","","html-keyboard-response","219","303600","0.0-1.0-297.0","0","0","29596","","null","","","null","32","","","","","","","","","","","","","","","NaN",""
"","S1","","html-keyboard-response","220","303753","0.0-1.0-299.0","0","0","29596","","null","","","null","33","","","","","","","","","","","","","","","",""
"","ISI","","html-keyboard-response","221","305755","0.0-1.0-300.0","0","0","29596","","null","","","null","33","NaN","","","","","","","","","","","","","","",""
"","S2","","html-keyboard-response","222","305908","0.0-1.0-301.0","0","0","29596","","null","","","null","33","","NaN","","","","","","","","","","","","","",""
"","response","","html-keyboard-response","223","307249","0.0-1.0-302.0-0.0","0","0","29596","","1341","","","75","33","","","1","33","training","adjacent","BC","2","3","R.jpg","P.jpg","0","1","0","",""
"","feedback","","html-keyboard-response","224","308252","0.0-1.0-303.0-0.0","0","0","29596","","null","","","null","33","","","","","","","","","","","","","","","",""
"","time_out","","html-keyboard-response","225","310254","0.0-1.0-305.0-0.0","0","0","29596","","null","","","null","33","","","","","","","","","","","","","","","",""
"","ITI","","html-keyboard-response","226","311256","0.0-1.0-306.0","0","0","29596","","null","","","null","33","","","","","","","","","","","","","","","NaN",""
"","S1","","html-keyboard-response","227","311409","0.0-1.0-308.0","0","0","29596","","null","","","null","34","","","","","","","","","","","","","","","",""
"","ISI","","html-keyboard-response","228","313411","0.0-1.0-309.0","0","0","29596","","null","","","null","34","NaN","","","","","","","","","","","","","","",""
"","S2","","html-keyboard-response","229","313563","0.0-1.0-310.0","0","0","29596","","null","","","null","34","","NaN","","","","","","","","","","","","","",""
"","response","","html-keyboard-response","230","313820","0.0-1.0-311.0-0.0","0","0","29596","","255","","","68","34","","","1","34","training","adjacent","DC","4","3","Q.jpg","P.jpg","1","0","0","",""
"","feedback","","html-keyboard-response","231","314822","0.0-1.0-312.0-0.0","0","0","29596","","null","","","null","34","","","","","","","","","","","","","","","",""
"","time_out","","html-keyboard-response","232","316824","0.0-1.0-314.0-0.0","0","0","29596","","null","","","null","34","","","","","","","","","","","","","","","",""
"","ITI","","html-keyboard-response","233","317828","0.0-1.0-315.0","0","0","29596","","null","","","null","34","","","","","","","","","","","","","","","NaN",""
"","S1","","html-keyboard-response","234","317980","0.0-1.0-317.0","0","0","29596","","null","","","null","35","","","","","","","","","","","","","","","",""
"","ISI","","html-keyboard-response","235","319982","0.0-1.0-318.0","0","0","29596","","null","","","null","35","NaN","","","","","","","","","","","","","","",""
"","S2","","html-keyboard-response","236","320134","0.0-1.0-319.0","0","0","29596","","null","","","null","35","","NaN","","","","","","","","","","","","","",""
"","response","","html-keyboard-response","237","320586","0.0-1.0-320.0-0.0","0","0","29596","","450","","","68","35","","","1","35","training","adjacent","FG","6","7","N.jpg","L.jpg","1","1","1","",""
"","feedback","","html-keyboard-response","238","321589","0.0-1.0-321.0-0.0","0","0","29596","","null","","","null","35","","","","","","","","","","","","","","","",""
"","ITI","","html-keyboard-response","239","322591","0.0-1.0-324.0","0","0","29596","","null","","","null","35","","","","","","","","","","","","","","","NaN",""
"","S1","","html-keyboard-response","240","322743","0.0-1.0-326.0","0","0","29596","","null","","","null","36","","","","","","","","","","","","","","","",""
"","ISI","","html-keyboard-response","241","324746","0.0-1.0-327.0","0","0","29596","","null","","","null","36","NaN","","","","","","","","","","","","","","",""
"","S2","","html-keyboard-response","242","324898","0.0-1.0-328.0","0","0","29596","","null","","","null","36","","NaN","","","","","","","","","","","","","",""
"","response","","html-keyboard-response","243","325668","0.0-1.0-329.0-0.0","0","0","29596","","768","","","75","36","","","1","36","training","adjacent","CD","3","4","P.jpg","Q.jpg","0","1","0","",""
"","feedback","","html-keyboard-response","244","326670","0.0-1.0-330.0-0.0","0","0","29596","","null","","","null","36","","","","","","","","","","","","","","","",""
"","time_out","","html-keyboard-response","245","328672","0.0-1.0-332.0-0.0","0","0","29596","","null","","","null","36","","","","","","","","","","","","","","","",""
"","ITI","","html-keyboard-response","246","329675","0.0-1.0-333.0","0","0","29596","","null","","","null","36","","","","","","","","","","","","","","","NaN",""
"","S1","","html-keyboard-response","247","329827","0.0-1.0-335.0","0","0","29596","","null","","","null","37","","","","","","","","","","","","","","","",""
"","ISI","","html-keyboard-response","248","331830","0.0-1.0-336.0","0","0","29596","","null","","","null","37","NaN","","","","","","","","","","","","","","",""
"","S2","","html-keyboard-response","249","331982","0.0-1.0-337.0","0","0","29596","","null","","","null","37","","NaN","","","","","","","","","","","","","",""
"","response","","html-keyboard-response","250","332250","0.0-1.0-338.0-0.0","0","0","29596","","265","","","75","37","","","1","37","training","adjacent","AB","1","2","M.jpg","R.jpg","0","1","0","",""
"","feedback","","html-keyboard-response","251","333252","0.0-1.0-339.0-0.0","0","0","29596","","null","","","null","37","","","","","","","","","","","","","","","",""
"","time_out","","html-keyboard-response","252","335254","0.0-1.0-341.0-0.0","0","0","29596","","null","","","null","37","","","","","","","","","","","","","","","",""
"","ITI","","html-keyboard-response","253","336257","0.0-1.0-342.0","0","0","29596","","null","","","null","37","","","","","","","","","","","","","","","NaN",""
"","S1","","html-keyboard-response","254","336409","0.0-1.0-344.0","0","0","29596","","null","","","null","38","","","","","","","","","","","","","","","",""
"","ISI","","html-keyboard-response","255","338411","0.0-1.0-345.0","0","0","29596","","null","","","null","38","NaN","","","","","","","","","","","","","","",""
"","S2","","html-keyboard-response","256","338563","0.0-1.0-346.0","0","0","29596","","null","","","null","38","","NaN","","","","","","","","","","","","","",""
"","response","","html-keyboard-response","257","338916","0.0-1.0-347.0-0.0","0","0","29596","","351","","","75","38","","","1","38","training","adjacent","AB","1","2","M.jpg","R.jpg","0","1","0","",""
"","feedback","","html-keyboard-response","258","339918","0.0-1.0-348.0-0.0","0","0","29596","","null","","","null","38","","","","","","","","","","","","","","","",""
"","time_out","","html-keyboard-response","259","341920","0.0-1.0-350.0-0.0","0","0","29596","","null","","","null","38","","","","","","","","","","","","","","","",""
"","ITI","","html-keyboard-response","260","342924","0.0-1.0-351.0","0","0","29596","","null","","","null","38","","","","","","","","","","","","","","","NaN",""
"","S1","","html-keyboard-response","261","343076","0.0-1.0-353.0","0","0","29596","","null","","","null","39","","","","","","","","","","","","","","","",""
"","ISI","","html-keyboard-response","262","345078","0.0-1.0-354.0","0","0","29596","","null","","","null","39","NaN","","","","","","","","","","","","","","",""
"","S2","","html-keyboard-response","263","345231","0.0-1.0-355.0","0","0","29596","","null","","","null","39","","NaN","","","","","","","","","","","","","",""
"","response","","html-keyboard-response","264","345850","0.0-1.0-356.0-0.0","0","0","29596","","618","","","68","39","","","1","39","training","adjacent","DE","4","5","Q.jpg","O.jpg","1","1","1","",""
"","feedback","","html-keyboard-response","265","346856","0.0-1.0-357.0-0.0","0","0","29596","","null","","","null","39","","","","","","","","","","","","","","","",""
"","ITI","","html-keyboard-response","266","347858","0.0-1.0-360.0","0","0","29596","","null","","","null","39","","","","","","","","","","","","","","","NaN",""
"","S1","","html-keyboard-response","267","348010","0.0-1.0-362.0","0","0","29596","","null","","","null","40","","","","","","","","","","","","","","","",""
"","ISI","","html-keyboard-response","268","350012","0.0-1.0-363.0","0","0","29596","","null","","","null","40","NaN","","","","","","","","","","","","","","",""
"","S2","","html-keyboard-response","269","350165","0.0-1.0-364.0","0","0","29596","","null","","","null","40","","NaN","","","","","","","","","","","","","",""
"","response","","html-keyboard-response","270","350524","0.0-1.0-365.0-0.0","0","0","29596","","358","","","68","40","","","1","40","training","adjacent","AB","1","2","M.jpg","R.jpg","1","1","1","",""
"","feedback","","html-keyboard-response","271","351527","0.0-1.0-366.0-0.0","0","0","29596","","null","","","null","40","","","","","","","","","","","","","","","",""
"","ITI","","html-keyboard-response","272","352530","0.0-1.0-369.0","0","0","29596","","null","","","null","40","","","","","","","","","","","","","","","NaN",""
"","S1","","html-keyboard-response","273","352683","0.0-1.0-371.0","0","0","29596","","null","","","null","41","","","","","","","","","","","","","","","",""
"","ISI","","html-keyboard-response","274","354694","0.0-1.0-372.0","0","0","29596","","null","","","null","41","NaN","","","","","","","","","","","","","","",""
"","S2","","html-keyboard-response","275","354846","0.0-1.0-373.0","0","0","29596","","null","","","null","41","","NaN","","","","","","","","","","","","","",""
"","response","","html-keyboard-response","276","355658","0.0-1.0-374.0-0.0","0","0","29596","","811","","","68","41","","","1","41","training","adjacent","FG","6","7","N.jpg","L.jpg","1","1","1","",""
"","feedback","","html-keyboard-response","277","356661","0.0-1.0-375.0-0.0","0","0","29596","","null","","","null","41","","","","","","","","","","","","","","","",""
"","ITI","","html-keyboard-response","278","357664","0.0-1.0-378.0","0","0","29596","","null","","","null","41","","","","","","","","","","","","","","","NaN",""
"","S1","","html-keyboard-response","279","357817","0.0-1.0-380.0","0","0","29596","","null","","","null","42","","","","","","","","","","","","","","","",""
"","ISI","","html-keyboard-response","280","359819","0.0-1.0-381.0","0","0","29596","","null","","","null","42","NaN","","","","","","","","","","","","","","",""
"","S2","","html-keyboard-response","281","359972","0.0-1.0-382.0","0","0","29596","","null","","","null","42","","NaN","","","","","","","","","","","","","",""
"","response","","html-keyboard-response","282","360812","0.0-1.0-383.0-0.0","0","0","29596","","839","","","75","42","","","1","42","training","adjacent","DC","4","3","Q.jpg","P.jpg","0","0","1","",""
"","feedback","","html-keyboard-response","283","361815","0.0-1.0-384.0-0.0","0","0","29596","","null","","","null","42","","","","","","","","","","","","","","","",""
"","ITI","","html-keyboard-response","284","362817","0.0-1.0-387.0","0","0","29596","","null","","","null","42","","","","","","","","","","","","","","","NaN",""
"","S1","","html-keyboard-response","285","362969","0.0-1.0-389.0","0","0","29596","","null","","","null","43","","","","","","","","","","","","","","","",""
"","ISI","","html-keyboard-response","286","364971","0.0-1.0-390.0","0","0","29596","","null","","","null","43","NaN","","","","","","","","","","","","","","",""
"","S2","","html-keyboard-response","287","365123","0.0-1.0-391.0","0","0","29596","","null","","","null","43","","NaN","","","","","","","","","","","","","",""
"","response","","html-keyboard-response","288","366050","0.0-1.0-392.0-0.0","0","0","29596","","925","","","68","43","","","1","43","training","adjacent","CD","3","4","P.jpg","Q.jpg","1","1","1","",""
"","feedback","","html-keyboard-response","289","367052","0.0-1.0-393.0-0.0","0","0","29596","","null","","","null","43","","","","","","","","","","","","","","","",""
"","ITI","","html-keyboard-response","290","368055","0.0-1.0-396.0","0","0","29596","","null","","","null","43","","","","","","","","","","","","","","","NaN",""
"","S1","","html-keyboard-response","291","368207","0.0-1.0-398.0","0","0","29596","","null","","","null","44","","","","","","","","","","","","","","","",""
"","ISI","","html-keyboard-response","292","370209","0.0-1.0-399.0","0","0","29596","","null","","","null","44","NaN","","","","","","","","","","","","","","",""
"","S2","","html-keyboard-response","293","370362","0.0-1.0-400.0","0","0","29596","","null","","","null","44","","NaN","","","","","","","","","","","","","",""
"","response","","html-keyboard-response","294","371348","0.0-1.0-401.0-0.0","0","0","29596","","985","","","75","44","","","1","44","training","adjacent","GF","7","6","L.jpg","N.jpg","0","0","1","",""
"","feedback","","html-keyboard-response","295","372352","0.0-1.0-402.0-0.0","0","0","29596","","null","","","null","44","","","","","","","","","","","","","","","",""
"","ITI","","html-keyboard-response","296","373354","0.0-1.0-405.0","0","0","29596","","null","","","null","44","","","","","","","","","","","","","","","NaN",""
"","S1","","html-keyboard-response","297","373507","0.0-1.0-407.0","0","0","29596","","null","","","null","45","","","","","","","","","","","","","","","",""
"","ISI","","html-keyboard-response","298","375509","0.0-1.0-408.0","0","0","29596","","null","","","null","45","NaN","","","","","","","","","","","","","","",""
"","S2","","html-keyboard-response","299","375662","0.0-1.0-409.0","0","0","29596","","null","","","null","45","","NaN","","","","","","","","","","","","","",""
"","response","","html-keyboard-response","300","376226","0.0-1.0-410.0-0.0","0","0","29596","","563","","","75","45","","","1","45","training","adjacent","GF","7","6","L.jpg","N.jpg","0","0","1","",""
"","feedback","","html-keyboard-response","301","377229","0.0-1.0-411.0-0.0","0","0","29596","","null","","","null","45","","","","","","","","","","","","","","","",""
"","ITI","","html-keyboard-response","302","378232","0.0-1.0-414.0","0","0","29596","","null","","","null","45","","","","","","","","","","","","","","","NaN",""
"","S1","","html-keyboard-response","303","378384","0.0-1.0-416.0","0","0","29596","","null","","","null","46","","","","","","","","","","","","","","","",""
"","ISI","","html-keyboard-response","304","380386","0.0-1.0-417.0","0","0","29596","","null","","","null","46","NaN","","","","","","","","","","","","","","",""
"","S2","","html-keyboard-response","305","380539","0.0-1.0-418.0","0","0","29596","","null","","","null","46","","NaN","","","","","","","","","","","","","",""
"","response","","html-keyboard-response","306","381113","0.0-1.0-419.0-0.0","0","0","29596","","574","","","68","46","","","1","46","training","adjacent","BA","2","1","R.jpg","M.jpg","1","0","0","",""
"","feedback","","html-keyboard-response","307","382116","0.0-1.0-420.0-0.0","0","0","29596","","null","","","null","46","","","","","","","","","","","","","","","",""
"","time_out","","html-keyboard-response","308","384119","0.0-1.0-422.0-0.0","0","0","29596","","null","","","null","46","","","","","","","","","","","","","","","",""
"","ITI","","html-keyboard-response","309","385121","0.0-1.0-423.0","0","0","29596","","null","","","null","46","","","","","","","","","","","","","","","NaN",""
"","S1","","html-keyboard-response","310","385274","0.0-1.0-425.0","0","0","29596","","null","","","null","47","","","","","","","","","","","","","","","",""
"","ISI","","html-keyboard-response","311","387277","0.0-1.0-426.0","0","0","29596","","null","","","null","47","NaN","","","","","","","","","","","","","","",""
"","S2","","html-keyboard-response","312","387429","0.0-1.0-427.0","0","0","29596","","null","","","null","47","","NaN","","","","","","","","","","","","","",""
"","response","","html-keyboard-response","313","388340","0.0-1.0-428.0-0.0","0","0","29596","","910","","","68","47","","","1","47","training","adjacent","CD","3","4","P.jpg","Q.jpg","1","1","1","",""
"","feedback","","html-keyboard-response","314","389343","0.0-1.0-429.0-0.0","0","0","29596","","null","","","null","47","","","","","","","","","","","","","","","",""
"","ITI","","html-keyboard-response","315","390345","0.0-1.0-432.0","0","0","29596","","null","","","null","47","","","","","","","","","","","","","","","NaN",""
"","block_over","","html-keyboard-response","316","396738","0.0-1.0-433.0-0.0","0","0","29596","","6391","","","32","47","","","","","","","","","","","","","","","",""
"","S1","","html-keyboard-response","317","396890","0.0-1.0-434.0","0","0","29596","","null","","","null","48","","","","","","","","","","","","","","","",""
"","ISI","","html-keyboard-response","318","398892","0.0-1.0-435.0","0","0","29596","","null","","","null","48","NaN","","","","","","","","","","","","","","",""
"","S2","","html-keyboard-response","319","399045","0.0-1.0-436.0","0","0","29596","","null","","","null","48","","NaN","","","","","","","","","","","","","",""
"","response","","html-keyboard-response","320","400124","0.0-1.0-437.0-0.0","0","0","29596","","1078","","","75","48","","","2","48","training","adjacent","DC","4","3","Q.jpg","P.jpg","0","0","1","",""
"","feedback","","html-keyboard-response","321","401126","0.0-1.0-438.0-0.0","0","0","29596","","null","","","null","48","","","","","","","","","","","","","","","",""
"","ITI","","html-keyboard-response","322","402129","0.0-1.0-441.0","0","0","29596","","null","","","null","48","","","","","","","","","","","","","","","NaN",""
"","S1","","html-keyboard-response","323","402282","0.0-1.0-443.0","0","0","29596","","null","","","null","49","","","","","","","","","","","","","","","",""
"","ISI","","html-keyboard-response","324","404284","0.0-1.0-444.0","0","0","29596","","null","","","null","49","NaN","","","","","","","","","","","","","","",""
"","S2","","html-keyboard-response","325","404436","0.0-1.0-445.0","0","0","29596","","null","","","null","49","","NaN","","","","","","","","","","","","","",""
"","response","","html-keyboard-response","326","405018","0.0-1.0-446.0-0.0","0","0","29596","","580","","","68","49","","","2","49","training","adjacent","BC","2","3","R.jpg","P.jpg","1","1","1","",""
"","feedback","","html-keyboard-response","327","406020","0.0-1.0-447.0-0.0","0","0","29596","","null","","","null","49","","","","","","","","","","","","","","","",""
"","ITI","","html-keyboard-response","328","407022","0.0-1.0-450.0","0","0","29596","","null","","","null","49","","","","","","","","","","","","","","","NaN",""
"","S1","","html-keyboard-response","329","407174","0.0-1.0-452.0","0","0","29596","","null","","","null","50","","","","","","","","","","","","","","","",""
"","ISI","","html-keyboard-response","330","409177","0.0-1.0-453.0","0","0","29596","","null","","","null","50","NaN","","","","","","","","","","","","","","",""
"","S2","","html-keyboard-response","331","409342","0.0-1.0-454.0","0","0","29596","","null","","","null","50","","NaN","","","","","","","","","","","","","",""
"","response","","html-keyboard-response","332","409874","0.0-1.0-455.0-0.0","0","0","29596","","531","","","68","50","","","2","50","training","adjacent","FE","6","5","N.jpg","O.jpg","1","0","0","",""
"","feedback","","html-keyboard-response","333","410877","0.0-1.0-456.0-0.0","0","0","29596","","null","","","null","50","","","","","","","","","","","","","","","",""
"","time_out","","html-keyboard-response","334","412878","0.0-1.0-458.0-0.0","0","0","29596","","null","","","null","50","","","","","","","","","","","","","","","",""
"","ITI","","html-keyboard-response","335","413881","0.0-1.0-459.0","0","0","29596","","null","","","null","50","","","","","","","","","","","","","","","NaN",""
"","S1","","html-keyboard-response","336","414034","0.0-1.0-461.0","0","0","29596","","null","","","null","51","","","","","","","","","","","","","","","",""
"","ISI","","html-keyboard-response","337","416036","0.0-1.0-462.0","0","0","29596","","null","","","null","51","NaN","","","","","","","","","","","","","","",""
"","S2","","html-keyboard-response","338","416188","0.0-1.0-463.0","0","0","29596","","null","","","null","51","","NaN","","","","","","","","","","","","","",""
"","response","","html-keyboard-response","339","416868","0.0-1.0-464.0-0.0","0","0","29596","","678","","","68","51","","","2","51","training","adjacent","FG","6","7","N.jpg","L.jpg","1","1","1","",""
"","feedback","","html-keyboard-response","340","417871","0.0-1.0-465.0-0.0","0","0","29596","","null","","","null","51","","","","","","","","","","","","","","","",""
"","ITI","","html-keyboard-response","341","418873","0.0-1.0-468.0","0","0","29596","","null","","","null","51","","","","","","","","","","","","","","","NaN",""
"","S1","","html-keyboard-response","342","419025","0.0-1.0-470.0","0","0","29596","","null","","","null","52","","","","","","","","","","","","","","","",""
"","ISI","","html-keyboard-response","343","421028","0.0-1.0-471.0","0","0","29596","","null","","","null","52","NaN","","","","","","","","","","","","","","",""
"","S2","","html-keyboard-response","344","421180","0.0-1.0-472.0","0","0","29596","","null","","","null","52","","NaN","","","","","","","","","","","","","",""
"","response","","html-keyboard-response","345","422018","0.0-1.0-473.0-0.0","0","0","29596","","837","","","68","52","","","2","52","training","adjacent","FG","6","7","N.jpg","L.jpg","1","1","1","",""
"","feedback","","html-keyboard-response","346","423020","0.0-1.0-474.0-0.0","0","0","29596","","null","","","null","52","","","","","","","","","","","","","","","",""
"","ITI","","html-keyboard-response","347","424022","0.0-1.0-477.0","0","0","29596","","null","","","null","52","","","","","","","","","","","","","","","NaN",""
"","S1","","html-keyboard-response","348","424175","0.0-1.0-479.0","0","0","29596","","null","","","null","53","","","","","","","","","","","","","","","",""
"","ISI","","html-keyboard-response","349","426176","0.0-1.0-480.0","0","0","29596","","null","","","null","53","NaN","","","","","","","","","","","","","","",""
"","S2","","html-keyboard-response","350","426344","0.0-1.0-481.0","0","0","29596","","null","","","null","53","","NaN","","","","","","","","","","","","","",""
"","response","","html-keyboard-response","351","426778","0.0-1.0-482.0-0.0","0","0","29596","","433","","","68","53","","","2","53","training","adjacent","ED","5","4","O.jpg","Q.jpg","1","0","0","",""
"","feedback","","html-keyboard-response","352","427786","0.0-1.0-483.0-0.0","0","0","29596","","null","","","null","53","","","","","","","","","","","","","","","",""
"","time_out","","html-keyboard-response","353","429788","0.0-1.0-485.0-0.0","0","0","29596","","null","","","null","53","","","","","","","","","","","","","","","",""
"","ITI","","html-keyboard-response","354","430792","0.0-1.0-486.0","0","0","29596","","null","","","null","53","","","","","","","","","","","","","","","NaN",""
"","S1","","html-keyboard-response","355","430945","0.0-1.0-488.0","0","0","29596","","null","","","null","54","","","","","","","","","","","","","","","",""
"","ISI","","html-keyboard-response","356","432947","0.0-1.0-489.0","0","0","29596","","null","","","null","54","NaN","","","","","","","","","","","","","","",""
"","S2","","html-keyboard-response","357","433098","0.0-1.0-490.0","0","0","29596","","null","","","null","54","","NaN","","","","","","","","","","","","","",""
"","response","","html-keyboard-response","358","433804","0.0-1.0-491.0-0.0","0","0","29596","","705","","","68","54","","","2","54","training","adjacent","EF","5","6","O.jpg","N.jpg","1","1","1","",""
"","feedback","","html-keyboard-response","359","434807","0.0-1.0-492.0-0.0","0","0","29596","","null","","","null","54","","","","","","","","","","","","","","","",""
"","ITI","","html-keyboard-response","360","435809","0.0-1.0-495.0","0","0","29596","","null","","","null","54","","","","","","","","","","","","","","","NaN",""
"","S1","","html-keyboard-response","361","435962","0.0-1.0-497.0","0","0","29596","","null","","","null","55","","","","","","","","","","","","","","","",""
"","ISI","","html-keyboard-response","362","437964","0.0-1.0-498.0","0","0","29596","","null","","","null","55","NaN","","","","","","","","","","","","","","",""
"","S2","","html-keyboard-response","363","438116","0.0-1.0-499.0","0","0","29596","","null","","","null","55","","NaN","","","","","","","","","","","","","",""
"","response","","html-keyboard-response","364","439058","0.0-1.0-500.0-0.0","0","0","29596","","941","","","75","55","","","2","55","training","adjacent","BA","2","1","R.jpg","M.jpg","0","0","1","",""
"","feedback","","html-keyboard-response","365","440062","0.0-1.0-501.0-0.0","0","0","29596","","null","","","null","55","","","","","","","","","","","","","","","",""
"","ITI","","html-keyboard-response","366","441064","0.0-1.0-504.0","0","0","29596","","null","","","null","55","","","","","","","","","","","","","","","NaN",""
"","S1","","html-keyboard-response","367","441217","0.0-1.0-506.0","0","0","29596","","null","","","null","56","","","","","","","","","","","","","","","",""
"","ISI","","html-keyboard-response","368","443219","0.0-1.0-507.0","0","0","29596","","null","","","null","56","NaN","","","","","","","","","","","","","","",""
"","S2","","html-keyboard-response","369","443372","0.0-1.0-508.0","0","0","29596","","null","","","null","56","","NaN","","","","","","","","","","","","","",""
"","response","","html-keyboard-response","370","444581","0.0-1.0-509.0-0.0","0","0","29596","","1207","","","75","56","","","2","56","training","adjacent","AB","1","2","M.jpg","R.jpg","0","1","0","",""
"","feedback","","html-keyboard-response","371","445583","0.0-1.0-510.0-0.0","0","0","29596","","null","","","null","56","","","","","","","","","","","","","","","",""
"","time_out","","html-keyboard-response","372","447585","0.0-1.0-512.0-0.0","0","0","29596","","null","","","null","56","","","","","","","","","","","","","","","",""
"","ITI","","html-keyboard-response","373","448588","0.0-1.0-513.0","0","0","29596","","null","","","null","56","","","","","","","","","","","","","","","NaN",""
"","S1","","html-keyboard-response","374","448742","0.0-1.0-515.0","0","0","29596","","null","","","null","57","","","","","","","","","","","","","","","",""
"","ISI","","html-keyboard-response","375","450743","0.0-1.0-516.0","0","0","29596","","null","","","null","57","NaN","","","","","","","","","","","","","","",""
"","S2","","html-keyboard-response","376","450896","0.0-1.0-517.0","0","0","29596","","null","","","null","57","","NaN","","","","","","","","","","","","","",""
"","response","","html-keyboard-response","377","452498","0.0-1.0-518.0-0.0","0","0","29596","","1600","","","68","57","","","2","57","training","adjacent","BC","2","3","R.jpg","P.jpg","1","1","1","",""
"","feedback","","html-keyboard-response","378","453501","0.0-1.0-519.0-0.0","0","0","29596","","null","","","null","57","","","","","","","","","","","","","","","",""
"","ITI","","html-keyboard-response","379","454513","0.0-1.0-522.0","0","0","29596","","null","","","null","57","","","","","","","","","","","","","","","NaN",""
"","S1","","html-keyboard-response","380","454666","0.0-1.0-524.0","0","0","29596","","null","","","null","58","","","","","","","","","","","","","","","",""
"","ISI","","html-keyboard-response","381","456668","0.0-1.0-525.0","0","0","29596","","null","","","null","58","NaN","","","","","","","","","","","","","","",""
"","S2","","html-keyboard-response","382","456820","0.0-1.0-526.0","0","0","29596","","null","","","null","58","","NaN","","","","","","","","","","","","","",""
"","response","","html-keyboard-response","383","457773","0.0-1.0-527.0-0.0","0","0","29596","","951","","","68","58","","","2","58","training","adjacent","EF","5","6","O.jpg","N.jpg","1","1","1","",""
"","feedback","","html-keyboard-response","384","458775","0.0-1.0-528.0-0.0","0","0","29596","","null","","","null","58","","","","","","","","","","","","","","","",""
"","ITI","","html-keyboard-response","385","459778","0.0-1.0-531.0","0","0","29596","","null","","","null","58","","","","","","","","","","","","","","","NaN",""
"","S1","","html-keyboard-response","386","459932","0.0-1.0-533.0","0","0","29596","","null","","","null","59","","","","","","","","","","","","","","","",""
"","ISI","","html-keyboard-response","387","461934","0.0-1.0-534.0","0","0","29596","","null","","","null","59","NaN","","","","","","","","","","","","","","",""
"","S2","","html-keyboard-response","388","462087","0.0-1.0-535.0","0","0","29596","","null","","","null","59","","NaN","","","","","","","","","","","","","",""
"","response","","html-keyboard-response","389","463618","0.0-1.0-536.0-0.0","0","0","29596","","1530","","","68","59","","","2","59","training","adjacent","CB","3","2","P.jpg","R.jpg","1","0","0","",""
"","feedback","","html-keyboard-response","390","464621","0.0-1.0-537.0-0.0","0","0","29596","","null","","","null","59","","","","","","","","","","","","","","","",""
"","time_out","","html-keyboard-response","391","466623","0.0-1.0-539.0-0.0","0","0","29596","","null","","","null","59","","","","","","","","","","","","","","","",""
"","ITI","","html-keyboard-response","392","467626","0.0-1.0-540.0","0","0","29596","","null","","","null","59","","","","","","","","","","","","","","","NaN",""
"","S1","","html-keyboard-response","393","467779","0.0-1.0-542.0","0","0","29596","","null","","","null","60","","","","","","","","","","","","","","","",""
"","ISI","","html-keyboard-response","394","469782","0.0-1.0-543.0","0","0","29596","","null","","","null","60","NaN","","","","","","","","","","","","","","",""
"","S2","","html-keyboard-response","395","469935","0.0-1.0-544.0","0","0","29596","","null","","","null","60","","NaN","","","","","","","","","","","","","",""
"","response","","html-keyboard-response","396","470667","0.0-1.0-545.0-0.0","0","0","29596","","731","","","68","60","","","2","60","training","adjacent","ED","5","4","O.jpg","Q.jpg","1","0","0","",""
"","feedback","","html-keyboard-response","397","471671","0.0-1.0-546.0-0.0","0","0","29596","","null","","","null","60","","","","","","","","","","","","","","","",""
"","time_out","","html-keyboard-response","398","473673","0.0-1.0-548.0-0.0","0","0","29596","","null","","","null","60","","","","","","","","","","","","","","","",""
"","ITI","","html-keyboard-response","399","474675","0.0-1.0-549.0","0","0","29596","","null","","","null","60","","","","","","","","","","","","","","","NaN",""
"","S1","","html-keyboard-response","400","474827","0.0-1.0-551.0","0","0","29596","","null","","","null","61","","","","","","","","","","","","","","","",""
"","ISI","","html-keyboard-response","401","476829","0.0-1.0-552.0","0","0","29596","","null","","","null","61","NaN","","","","","","","","","","","","","","",""
"","S2","","html-keyboard-response","402","476982","0.0-1.0-553.0","0","0","29596","","null","","","null","61","","NaN","","","","","","","","","","","","","",""
"","response","","html-keyboard-response","403","477578","0.0-1.0-554.0-0.0","0","0","29596","","595","","","75","61","","","2","61","training","adjacent","BC","2","3","R.jpg","P.jpg","0","1","0","",""
"","feedback","","html-keyboard-response","404","478581","0.0-1.0-555.0-0.0","0","0","29596","","null","","","null","61","","","","","","","","","","","","","","","",""
"","time_out","","html-keyboard-response","405","480583","0.0-1.0-557.0-0.0","0","0","29596","","null","","","null","61","","","","","","","","","","","","","","","",""
"","ITI","","html-keyboard-response","406","481585","0.0-1.0-558.0","0","0","29596","","null","","","null","61","","","","","","","","","","","","","","","NaN",""
"","S1","","html-keyboard-response","407","481738","0.0-1.0-560.0","0","0","29596","","null","","","null","62","","","","","","","","","","","","","","","",""
"","ISI","","html-keyboard-response","408","483740","0.0-1.0-561.0","0","0","29596","","null","","","null","62","NaN","","","","","","","","","","","","","","",""
"","S2","","html-keyboard-response","409","483893","0.0-1.0-562.0","0","0","29596","","null","","","null","62","","NaN","","","","","","","","","","","","","",""
"","response","","html-keyboard-response","410","484564","0.0-1.0-563.0-0.0","0","0","29596","","671","","","68","62","","","2","62","training","adjacent","AB","1","2","M.jpg","R.jpg","1","1","1","",""
"","feedback","","html-keyboard-response","411","485566","0.0-1.0-564.0-0.0","0","0","29596","","null","","","null","62","","","","","","","","","","","","","","","",""
"","ITI","","html-keyboard-response","412","486569","0.0-1.0-567.0","0","0","29596","","null","","","null","62","","","","","","","","","","","","","","","NaN",""
"","S1","","html-keyboard-response","413","486722","0.0-1.0-569.0","0","0","29596","","null","","","null","63","","","","","","","","","","","","","","","",""
"","ISI","","html-keyboard-response","414","488724","0.0-1.0-570.0","0","0","29596","","null","","","null","63","NaN","","","","","","","","","","","","","","",""
"","S2","","html-keyboard-response","415","488877","0.0-1.0-571.0","0","0","29596","","null","","","null","63","","NaN","","","","","","","","","","","","","",""
"","response","","html-keyboard-response","416","489498","0.0-1.0-572.0-0.0","0","0","29596","","619","","","75","63","","","2","63","training","adjacent","AB","1","2","M.jpg","R.jpg","0","1","0","",""
"","feedback","","html-keyboard-response","417","490500","0.0-1.0-573.0-0.0","0","0","29596","","null","","","null","63","","","","","","","","","","","","","","","",""
"","time_out","","html-keyboard-response","418","492503","0.0-1.0-575.0-0.0","0","0","29596","","null","","","null","63","","","","","","","","","","","","","","","",""
"","ITI","","html-keyboard-response","419","493506","0.0-1.0-576.0","0","0","29596","","null","","","null","63","","","","","","","","","","","","","","","NaN",""
"","S1","","html-keyboard-response","420","493658","0.0-1.0-578.0","0","0","29596","","null","","","null","64","","","","","","","","","","","","","","","",""
"","ISI","","html-keyboard-response","421","495660","0.0-1.0-579.0","0","0","29596","","null","","","null","64","NaN","","","","","","","","","","","","","","",""
"","S2","","html-keyboard-response","422","495813","0.0-1.0-580.0","0","0","29596","","null","","","null","64","","NaN","","","","","","","","","","","","","",""
"","response","","html-keyboard-response","423","496573","0.0-1.0-581.0-0.0","0","0","29596","","759","","","68","64","","","2","64","training","adjacent","BC","2","3","R.jpg","P.jpg","1","1","1","",""
"","feedback","","html-keyboard-response","424","497575","0.0-1.0-582.0-0.0","0","0","29596","","null","","","null","64","","","","","","","","","","","","","","","",""
"","ITI","","html-keyboard-response","425","498578","0.0-1.0-585.0","0","0","29596","","null","","","null","64","","","","","","","","","","","","","","","NaN",""
"","S1","","html-keyboard-response","426","498730","0.0-1.0-587.0","0","0","29596","","null","","","null","65","","","","","","","","","","","","","","","",""
"","ISI","","html-keyboard-response","427","500732","0.0-1.0-588.0","0","0","29596","","null","","","null","65","NaN","","","","","","","","","","","","","","",""
"","S2","","html-keyboard-response","428","500885","0.0-1.0-589.0","0","0","29596","","null","","","null","65","","NaN","","","","","","","","","","","","","",""
"","response","","html-keyboard-response","429","501242","0.0-1.0-590.0-0.0","0","0","29596","","356","","","75","65","","","2","65","training","adjacent","GF","7","6","L.jpg","N.jpg","0","0","1","",""
"","feedback","","html-keyboard-response","430","502245","0.0-1.0-591.0-0.0","0","0","29596","","null","","","null","65","","","","","","","","","","","","","","","",""
"","ITI","","html-keyboard-response","431","503247","0.0-1.0-594.0","0","0","29596","","null","","","null","65","","","","","","","","","","","","","","","NaN",""
"","S1","","html-keyboard-response","432","503400","0.0-1.0-596.0","0","0","29596","","null","","","null","66","","","","","","","","","","","","","","","",""
"","ISI","","html-keyboard-response","433","505402","0.0-1.0-597.0","0","0","29596","","null","","","null","66","NaN","","","","","","","","","","","","","","",""
"","S2","","html-keyboard-response","434","505555","0.0-1.0-598.0","0","0","29596","","null","","","null","66","","NaN","","","","","","","","","","","","","",""
"","response","","html-keyboard-response","435","506378","0.0-1.0-599.0-0.0","0","0","29596","","821","","","75","66","","","2","66","training","adjacent","CD","3","4","P.jpg","Q.jpg","0","1","0","",""
"","feedback","","html-keyboard-response","436","507380","0.0-1.0-600.0-0.0","0","0","29596","","null","","","null","66","","","","","","","","","","","","","","","",""
"","time_out","","html-keyboard-response","437","509382","0.0-1.0-602.0-0.0","0","0","29596","","null","","","null","66","","","","","","","","","","","","","","","",""
"","ITI","","html-keyboard-response","438","510385","0.0-1.0-603.0","0","0","29596","","null","","","null","66","","","","","","","","","","","","","","","NaN",""
"","S1","","html-keyboard-response","439","510537","0.0-1.0-605.0","0","0","29596","","null","","","null","67","","","","","","","","","","","","","","","",""
"","ISI","","html-keyboard-response","440","512540","0.0-1.0-606.0","0","0","29596","","null","","","null","67","NaN","","","","","","","","","","","","","","",""
"","S2","","html-keyboard-response","441","512692","0.0-1.0-607.0","0","0","29596","","null","","","null","67","","NaN","","","","","","","","","","","","","",""
"","response","","html-keyboard-response","442","513450","0.0-1.0-608.0-0.0","0","0","29596","","756","","","75","67","","","2","67","training","adjacent","EF","5","6","O.jpg","N.jpg","0","1","0","",""
"","feedback","","html-keyboard-response","443","514453","0.0-1.0-609.0-0.0","0","0","29596","","null","","","null","67","","","","","","","","","","","","","","","",""
"","time_out","","html-keyboard-response","444","516455","0.0-1.0-611.0-0.0","0","0","29596","","null","","","null","67","","","","","","","","","","","","","","","",""
"","ITI","","html-keyboard-response","445","517457","0.0-1.0-612.0","0","0","29596","","null","","","null","67","","","","","","","","","","","","","","","NaN",""
"","S1","","html-keyboard-response","446","517610","0.0-1.0-614.0","0","0","29596","","null","","","null","68","","","","","","","","","","","","","","","",""
"","ISI","","html-keyboard-response","447","519612","0.0-1.0-615.0","0","0","29596","","null","","","null","68","NaN","","","","","","","","","","","","","","",""
"","S2","","html-keyboard-response","448","519765","0.0-1.0-616.0","0","0","29596","","null","","","null","68","","NaN","","","","","","","","","","","","","",""
"","response","","html-keyboard-response","449","520364","0.0-1.0-617.0-0.0","0","0","29596","","599","","","75","68","","","2","68","training","adjacent","DE","4","5","Q.jpg","O.jpg","0","1","0","",""
"","feedback","","html-keyboard-response","450","521366","0.0-1.0-618.0-0.0","0","0","29596","","null","","","null","68","","","","","","","","","","","","","","","",""
"","time_out","","html-keyboard-response","451","523369","0.0-1.0-620.0-0.0","0","0","29596","","null","","","null","68","","","","","","","","","","","","","","","",""
"","ITI","","html-keyboard-response","452","524372","0.0-1.0-621.0","0","0","29596","","null","","","null","68","","","","","","","","","","","","","","","NaN",""
"","S1","","html-keyboard-response","453","524524","0.0-1.0-623.0","0","0","29596","","null","","","null","69","","","","","","","","","","","","","","","",""
"","ISI","","html-keyboard-response","454","526526","0.0-1.0-624.0","0","0","29596","","null","","","null","69","NaN","","","","","","","","","","","","","","",""
"","S2","","html-keyboard-response","455","526679","0.0-1.0-625.0","0","0","29596","","null","","","null","69","","NaN","","","","","","","","","","","","","",""
"","response","","html-keyboard-response","456","527490","0.0-1.0-626.0-0.0","0","0","29596","","810","","","68","69","","","2","69","training","adjacent","DE","4","5","Q.jpg","O.jpg","1","1","1","",""
"","feedback","","html-keyboard-response","457","528493","0.0-1.0-627.0-0.0","0","0","29596","","null","","","null","69","","","","","","","","","","","","","","","",""
"","ITI","","html-keyboard-response","458","529496","0.0-1.0-630.0","0","0","29596","","null","","","null","69","","","","","","","","","","","","","","","NaN",""
"","S1","","html-keyboard-response","459","529648","0.0-1.0-632.0","0","0","29596","","null","","","null","70","","","","","","","","","","","","","","","",""
"","ISI","","html-keyboard-response","460","531651","0.0-1.0-633.0","0","0","29596","","null","","","null","70","NaN","","","","","","","","","","","","","","",""
"","S2","","html-keyboard-response","461","531803","0.0-1.0-634.0","0","0","29596","","null","","","null","70","","NaN","","","","","","","","","","","","","",""
"","response","","html-keyboard-response","462","532628","0.0-1.0-635.0-0.0","0","0","29596","","823","","","75","70","","","2","70","training","adjacent","CB","3","2","P.jpg","R.jpg","0","0","1","",""
"","feedback","","html-keyboard-response","463","533630","0.0-1.0-636.0-0.0","0","0","29596","","null","","","null","70","","","","","","","","","","","","","","","",""
"","ITI","","html-keyboard-response","464","534633","0.0-1.0-639.0","0","0","29596","","null","","","null","70","","","","","","","","","","","","","","","NaN",""
"","S1","","html-keyboard-response","465","534785","0.0-1.0-641.0","0","0","29596","","null","","","null","71","","","","","","","","","","","","","","","",""
"","ISI","","html-keyboard-response","466","536788","0.0-1.0-642.0","0","0","29596","","null","","","null","71","NaN","","","","","","","","","","","","","","",""
"","S2","","html-keyboard-response","467","536940","0.0-1.0-643.0","0","0","29596","","null","","","null","71","","NaN","","","","","","","","","","","","","",""
"","response","","html-keyboard-response","468","537402","0.0-1.0-644.0-0.0","0","0","29596","","460","","","68","71","","","2","71","training","adjacent","BA","2","1","R.jpg","M.jpg","1","0","0","",""
"","feedback","","html-keyboard-response","469","538405","0.0-1.0-645.0-0.0","0","0","29596","","null","","","null","71","","","","","","","","","","","","","","","",""
"","time_out","","html-keyboard-response","470","540408","0.0-1.0-647.0-0.0","0","0","29596","","null","","","null","71","","","","","","","","","","","","","","","",""
"","ITI","","html-keyboard-response","471","541411","0.0-1.0-648.0","0","0","29596","","null","","","null","71","","","","","","","","","","","","","","","NaN",""
"","S1","","html-keyboard-response","472","541563","0.0-1.0-650.0","0","0","29596","","null","","","null","72","","","","","","","","","","","","","","","",""
"","ISI","","html-keyboard-response","473","543566","0.0-1.0-651.0","0","0","29596","","null","","","null","72","NaN","","","","","","","","","","","","","","",""
"","S2","","html-keyboard-response","474","543719","0.0-1.0-652.0","0","0","29596","","null","","","null","72","","NaN","","","","","","","","","","","","","",""
"","response","","html-keyboard-response","475","544189","0.0-1.0-653.0-0.0","0","0","29596","","469","","","68","72","","","2","72","training","adjacent","DC","4","3","Q.jpg","P.jpg","1","0","0","",""
"","feedback","","html-keyboard-response","476","545196","0.0-1.0-654.0-0.0","0","0","29596","","null","","","null","72","","","","","","","","","","","","","","","",""
"","time_out","","html-keyboard-response","477","547199","0.0-1.0-656.0-0.0","0","0","29596","","null","","","null","72","","","","","","","","","","","","","","","",""
"","ITI","","html-keyboard-response","478","548201","0.0-1.0-657.0","0","0","29596","","null","","","null","72","","","","","","","","","","","","","","","NaN",""
"","S1","","html-keyboard-response","479","548354","0.0-1.0-659.0","0","0","29596","","null","","","null","73","","","","","","","","","","","","","","","",""
"","ISI","","html-keyboard-response","480","550356","0.0-1.0-660.0","0","0","29596","","null","","","null","73","NaN","","","","","","","","","","","","","","",""
"","S2","","html-keyboard-response","481","550508","0.0-1.0-661.0","0","0","29596","","null","","","null","73","","NaN","","","","","","","","","","","","","",""
"","response","","html-keyboard-response","482","551242","0.0-1.0-662.0-0.0","0","0","29596","","732","","","68","73","","","2","73","training","adjacent","DC","4","3","Q.jpg","P.jpg","1","0","0","",""
"","feedback","","html-keyboard-response","483","552244","0.0-1.0-663.0-0.0","0","0","29596","","null","","","null","73","","","","","","","","","","","","","","","",""
"","time_out","","html-keyboard-response","484","554247","0.0-1.0-665.0-0.0","0","0","29596","","null","","","null","73","","","","","","","","","","","","","","","",""
"","ITI","","html-keyboard-response","485","555249","0.0-1.0-666.0","0","0","29596","","null","","","null","73","","","","","","","","","","","","","","","NaN",""
"","S1","","html-keyboard-response","486","555402","0.0-1.0-668.0","0","0","29596","","null","","","null","74","","","","","","","","","","","","","","","",""
"","ISI","","html-keyboard-response","487","557405","0.0-1.0-669.0","0","0","29596","","null","","","null","74","NaN","","","","","","","","","","","","","","",""
"","S2","","html-keyboard-response","488","557557","0.0-1.0-670.0","0","0","29596","","null","","","null","74","","NaN","","","","","","","","","","","","","",""
"","response","","html-keyboard-response","489","558252","0.0-1.0-671.0-0.0","0","0","29596","","694","","","75","74","","","2","74","training","adjacent","BA","2","1","R.jpg","M.jpg","0","0","1","",""
"","feedback","","html-keyboard-response","490","559254","0.0-1.0-672.0-0.0","0","0","29596","","null","","","null","74","","","","","","","","","","","","","","","",""
"","ITI","","html-keyboard-response","491","560256","0.0-1.0-675.0","0","0","29596","","null","","","null","74","","","","","","","","","","","","","","","NaN",""
"","S1","","html-keyboard-response","492","560409","0.0-1.0-677.0","0","0","29596","","null","","","null","75","","","","","","","","","","","","","","","",""
"","ISI","","html-keyboard-response","493","562411","0.0-1.0-678.0","0","0","29596","","null","","","null","75","NaN","","","","","","","","","","","","","","",""
"","S2","","html-keyboard-response","494","562564","0.0-1.0-679.0","0","0","29596","","null","","","null","75","","NaN","","","","","","","","","","","","","",""
"","response","","html-keyboard-response","495","563746","0.0-1.0-680.0-0.0","0","0","29596","","1180","","","68","75","","","2","75","training","adjacent","CB","3","2","P.jpg","R.jpg","1","0","0","",""
"","feedback","","html-keyboard-response","496","564749","0.0-1.0-681.0-0.0","0","0","29596","","null","","","null","75","","","","","","","","","","","","","","","",""
"","time_out","","html-keyboard-response","497","566752","0.0-1.0-683.0-0.0","0","0","29596","","null","","","null","75","","","","","","","","","","","","","","","",""
"","ITI","","html-keyboard-response","498","567754","0.0-1.0-684.0","0","0","29596","","null","","","null","75","","","","","","","","","","","","","","","NaN",""
"","S1","","html-keyboard-response","499","567906","0.0-1.0-686.0","0","0","29596","","null","","","null","76","","","","","","","","","","","","","","","",""
"","ISI","","html-keyboard-response","500","569908","0.0-1.0-687.0","0","0","29596","","null","","","null","76","NaN","","","","","","","","","","","","","","",""
"","S2","","html-keyboard-response","501","570062","0.0-1.0-688.0","0","0","29596","","null","","","null","76","","NaN","","","","","","","","","","","","","",""
"","response","","html-keyboard-response","502","570444","0.0-1.0-689.0-0.0","0","0","29596","","382","","","75","76","","","2","76","training","adjacent","GF","7","6","L.jpg","N.jpg","0","0","1","",""
"","feedback","","html-keyboard-response","503","571447","0.0-1.0-690.0-0.0","0","0","29596","","null","","","null","76","","","","","","","","","","","","","","","",""
"","ITI","","html-keyboard-response","504","572450","0.0-1.0-693.0","0","0","29596","","null","","","null","76","","","","","","","","","","","","","","","NaN",""
"","S1","","html-keyboard-response","505","572602","0.0-1.0-695.0","0","0","29596","","null","","","null","77","","","","","","","","","","","","","","","",""
"","ISI","","html-keyboard-response","506","574605","0.0-1.0-696.0","0","0","29596","","null","","","null","77","NaN","","","","","","","","","","","","","","",""
"","S2","","html-keyboard-response","507","574757","0.0-1.0-697.0","0","0","29596","","null","","","null","77","","NaN","","","","","","","","","","","","","",""
"","response","","html-keyboard-response","508","575234","0.0-1.0-698.0-0.0","0","0","29596","","476","","","68","77","","","2","77","training","adjacent","FE","6","5","N.jpg","O.jpg","1","0","0","",""
"","feedback","","html-keyboard-response","509","576237","0.0-1.0-699.0-0.0","0","0","29596","","null","","","null","77","","","","","","","","","","","","","","","",""
"","time_out","","html-keyboard-response","510","578239","0.0-1.0-701.0-0.0","0","0","29596","","null","","","null","77","","","","","","","","","","","","","","","",""
"","ITI","","html-keyboard-response","511","579242","0.0-1.0-702.0","0","0","29596","","null","","","null","77","","","","","","","","","","","","","","","NaN",""
"","S1","","html-keyboard-response","512","579394","0.0-1.0-704.0","0","0","29596","","null","","","null","78","","","","","","","","","","","","","","","",""
"","ISI","","html-keyboard-response","513","581397","0.0-1.0-705.0","0","0","29596","","null","","","null","78","NaN","","","","","","","","","","","","","","",""
"","S2","","html-keyboard-response","514","581563","0.0-1.0-706.0","0","0","29596","","null","","","null","78","","NaN","","","","","","","","","","","","","",""
"","response","","html-keyboard-response","515","583012","0.0-1.0-707.0-0.0","0","0","29596","","1449","","","75","78","","","2","78","training","adjacent","FE","6","5","N.jpg","O.jpg","0","0","1","",""
"","feedback","","html-keyboard-response","516","584014","0.0-1.0-708.0-0.0","0","0","29596","","null","","","null","78","","","","","","","","","","","","","","","",""
"","ITI","","html-keyboard-response","517","585018","0.0-1.0-711.0","0","0","29596","","null","","","null","78","","","","","","","","","","","","","","","NaN",""
"","S1","","html-keyboard-response","518","585171","0.0-1.0-713.0","0","0","29596","","null","","","null","79","","","","","","","","","","","","","","","",""
"","ISI","","html-keyboard-response","519","587174","0.0-1.0-714.0","0","0","29596","","null","","","null","79","NaN","","","","","","","","","","","","","","",""
"","S2","","html-keyboard-response","520","587327","0.0-1.0-715.0","0","0","29596","","null","","","null","79","","NaN","","","","","","","","","","","","","",""
"","response","","html-keyboard-response","521","588490","0.0-1.0-716.0-0.0","0","0","29596","","1162","","","68","79","","","2","79","training","adjacent","EF","5","6","O.jpg","N.jpg","1","1","1","",""
"","feedback","","html-keyboard-response","522","589492","0.0-1.0-717.0-0.0","0","0","29596","","null","","","null","79","","","","","","","","","","","","","","","",""
"","ITI","","html-keyboard-response","523","590495","0.0-1.0-720.0","0","0","29596","","null","","","null","79","","","","","","","","","","","","","","","NaN",""
"","S1","","html-keyboard-response","524","590647","0.0-1.0-722.0","0","0","29596","","null","","","null","80","","","","","","","","","","","","","","","",""
"","ISI","","html-keyboard-response","525","592649","0.0-1.0-723.0","0","0","29596","","null","","","null","80","NaN","","","","","","","","","","","","","","",""
"","S2","","html-keyboard-response","526","592802","0.0-1.0-724.0","0","0","29596","","null","","","null","80","","NaN","","","","","","","","","","","","","",""
"","response","","html-keyboard-response","527","593524","0.0-1.0-725.0-0.0","0","0","29596","","721","","","75","80","","","2","80","training","adjacent","ED","5","4","O.jpg","Q.jpg","0","0","1","",""
"","feedback","","html-keyboard-response","528","594526","0.0-1.0-726.0-0.0","0","0","29596","","null","","","null","80","","","","","","","","","","","","","","","",""
"","ITI","","html-keyboard-response","529","595528","0.0-1.0-729.0","0","0","29596","","null","","","null","80","","","","","","","","","","","","","","","NaN",""
"","S1","","html-keyboard-response","530","595681","0.0-1.0-731.0","0","0","29596","","null","","","null","81","","","","","","","","","","","","","","","",""
"","ISI","","html-keyboard-response","531","597683","0.0-1.0-732.0","0","0","29596","","null","","","null","81","NaN","","","","","","","","","","","","","","",""
"","S2","","html-keyboard-response","532","597835","0.0-1.0-733.0","0","0","29596","","null","","","null","81","","NaN","","","","","","","","","","","","","",""
"","response","","html-keyboard-response","533","598882","0.0-1.0-734.0-0.0","0","0","29596","","1045","","","68","81","","","2","81","training","adjacent","GF","7","6","L.jpg","N.jpg","1","0","0","",""
"","feedback","","html-keyboard-response","534","599884","0.0-1.0-735.0-0.0","0","0","29596","","null","","","null","81","","","","","","","","","","","","","","","",""
"","time_out","","html-keyboard-response","535","601886","0.0-1.0-737.0-0.0","0","0","29596","","null","","","null","81","","","","","","","","","","","","","","","",""
"","ITI","","html-keyboard-response","536","602889","0.0-1.0-738.0","0","0","29596","","null","","","null","81","","","","","","","","","","","","","","","NaN",""
"","S1","","html-keyboard-response","537","603042","0.0-1.0-740.0","0","0","29596","","null","","","null","82","","","","","","","","","","","","","","","",""
"","ISI","","html-keyboard-response","538","605044","0.0-1.0-741.0","0","0","29596","","null","","","null","82","NaN","","","","","","","","","","","","","","",""
"","S2","","html-keyboard-response","539","605197","0.0-1.0-742.0","0","0","29596","","null","","","null","82","","NaN","","","","","","","","","","","","","",""
"","response","","html-keyboard-response","540","605573","0.0-1.0-743.0-0.0","0","0","29596","","374","","","75","82","","","2","82","training","adjacent","GF","7","6","L.jpg","N.jpg","0","0","1","",""
"","feedback","","html-keyboard-response","541","606576","0.0-1.0-744.0-0.0","0","0","29596","","null","","","null","82","","","","","","","","","","","","","","","",""
"","ITI","","html-keyboard-response","542","607578","0.0-1.0-747.0","0","0","29596","","null","","","null","82","","","","","","","","","","","","","","","NaN",""
"","S1","","html-keyboard-response","543","607732","0.0-1.0-749.0","0","0","29596","","null","","","null","83","","","","","","","","","","","","","","","",""
"","ISI","","html-keyboard-response","544","609734","0.0-1.0-750.0","0","0","29596","","null","","","null","83","NaN","","","","","","","","","","","","","","",""
"","S2","","html-keyboard-response","545","609886","0.0-1.0-751.0","0","0","29596","","null","","","null","83","","NaN","","","","","","","","","","","","","",""
"","response","","html-keyboard-response","546","610242","0.0-1.0-752.0-0.0","0","0","29596","","355","","","68","83","","","2","83","training","adjacent","FE","6","5","N.jpg","O.jpg","1","0","0","",""
"","feedback","","html-keyboard-response","547","611244","0.0-1.0-753.0-0.0","0","0","29596","","null","","","null","83","","","","","","","","","","","","","","","",""
"","time_out","","html-keyboard-response","548","613246","0.0-1.0-755.0-0.0","0","0","29596","","null","","","null","83","","","","","","","","","","","","","","","",""
"","ITI","","html-keyboard-response","549","614256","0.0-1.0-756.0","0","0","29596","","null","","","null","83","","","","","","","","","","","","","","","NaN",""
"","S1","","html-keyboard-response","550","614408","0.0-1.0-758.0","0","0","29596","","null","","","null","84","","","","","","","","","","","","","","","",""
"","ISI","","html-keyboard-response","551","616411","0.0-1.0-759.0","0","0","29596","","null","","","null","84","NaN","","","","","","","","","","","","","","",""
"","S2","","html-keyboard-response","552","616564","0.0-1.0-760.0","0","0","29596","","null","","","null","84","","NaN","","","","","","","","","","","","","",""
"","response","","html-keyboard-response","553","617453","0.0-1.0-761.0-0.0","0","0","29596","","888","","","75","84","","","2","84","training","adjacent","AB","1","2","M.jpg","R.jpg","0","1","0","",""
"","feedback","","html-keyboard-response","554","618455","0.0-1.0-762.0-0.0","0","0","29596","","null","","","null","84","","","","","","","","","","","","","","","",""
"","time_out","","html-keyboard-response","555","620458","0.0-1.0-764.0-0.0","0","0","29596","","null","","","null","84","","","","","","","","","","","","","","","",""
"","ITI","","html-keyboard-response","556","621461","0.0-1.0-765.0","0","0","29596","","null","","","null","84","","","","","","","","","","","","","","","NaN",""
"","S1","","html-keyboard-response","557","621613","0.0-1.0-767.0","0","0","29596","","null","","","null","85","","","","","","","","","","","","","","","",""
"","ISI","","html-keyboard-response","558","623615","0.0-1.0-768.0","0","0","29596","","null","","","null","85","NaN","","","","","","","","","","","","","","",""
"","S2","","html-keyboard-response","559","623767","0.0-1.0-769.0","0","0","29596","","null","","","null","85","","NaN","","","","","","","","","","","","","",""
"","response","","html-keyboard-response","560","624162","0.0-1.0-770.0-0.0","0","0","29596","","393","","","75","85","","","2","85","training","adjacent","CD","3","4","P.jpg","Q.jpg","0","1","0","",""
"","feedback","","html-keyboard-response","561","625164","0.0-1.0-771.0-0.0","0","0","29596","","null","","","null","85","","","","","","","","","","","","","","","",""
"","time_out","","html-keyboard-response","562","627166","0.0-1.0-773.0-0.0","0","0","29596","","null","","","null","85","","","","","","","","","","","","","","","",""
"","ITI","","html-keyboard-response","563","628169","0.0-1.0-774.0","0","0","29596","","null","","","null","85","","","","","","","","","","","","","","","NaN",""
"","S1","","html-keyboard-response","564","628321","0.0-1.0-776.0","0","0","29596","","null","","","null","86","","","","","","","","","","","","","","","",""
"","ISI","","html-keyboard-response","565","630323","0.0-1.0-777.0","0","0","29596","","null","","","null","86","NaN","","","","","","","","","","","","","","",""
"","S2","","html-keyboard-response","566","630475","0.0-1.0-778.0","0","0","29596","","null","","","null","86","","NaN","","","","","","","","","","","","","",""
"","response","","html-keyboard-response","567","631740","0.0-1.0-779.0-0.0","0","0","29596","","1265","","","75","86","","","2","86","training","adjacent","BA","2","1","R.jpg","M.jpg","0","0","1","",""
"","feedback","","html-keyboard-response","568","632743","0.0-1.0-780.0-0.0","0","0","29596","","null","","","null","86","","","","","","","","","","","","","","","",""
"","ITI","","html-keyboard-response","569","633745","0.0-1.0-783.0","0","0","29596","","null","","","null","86","","","","","","","","","","","","","","","NaN",""
"","S1","","html-keyboard-response","570","633898","0.0-1.0-785.0","0","0","29596","","null","","","null","87","","","","","","","","","","","","","","","",""
"","ISI","","html-keyboard-response","571","635900","0.0-1.0-786.0","0","0","29596","","null","","","null","87","NaN","","","","","","","","","","","","","","",""
"","S2","","html-keyboard-response","572","636052","0.0-1.0-787.0","0","0","29596","","null","","","null","87","","NaN","","","","","","","","","","","","","",""
"","response","","html-keyboard-response","573","636690","0.0-1.0-788.0-0.0","0","0","29596","","636","","","68","87","","","2","87","training","adjacent","DE","4","5","Q.jpg","O.jpg","1","1","1","",""
"","feedback","","html-keyboard-response","574","637693","0.0-1.0-789.0-0.0","0","0","29596","","null","","","null","87","","","","","","","","","","","","","","","",""
"","ITI","","html-keyboard-response","575","638695","0.0-1.0-792.0","0","0","29596","","null","","","null","87","","","","","","","","","","","","","","","NaN",""
"","S1","","html-keyboard-response","576","638847","0.0-1.0-794.0","0","0","29596","","null","","","null","88","","","","","","","","","","","","","","","",""
"","ISI","","html-keyboard-response","577","640856","0.0-1.0-795.0","0","0","29596","","null","","","null","88","NaN","","","","","","","","","","","","","","",""
"","S2","","html-keyboard-response","578","641009","0.0-1.0-796.0","0","0","29596","","null","","","null","88","","NaN","","","","","","","","","","","","","",""
"","response","","html-keyboard-response","579","641789","0.0-1.0-797.0-0.0","0","0","29596","","778","","","68","88","","","2","88","training","adjacent","FG","6","7","N.jpg","L.jpg","1","1","1","",""
"","feedback","","html-keyboard-response","580","642792","0.0-1.0-798.0-0.0","0","0","29596","","null","","","null","88","","","","","","","","","","","","","","","",""
"","ITI","","html-keyboard-response","581","643794","0.0-1.0-801.0","0","0","29596","","null","","","null","88","","","","","","","","","","","","","","","NaN",""
"","S1","","html-keyboard-response","582","643946","0.0-1.0-803.0","0","0","29596","","null","","","null","89","","","","","","","","","","","","","","","",""
