"success","ttype","start_time","trial_type","trial_index","time_elapsed","internal_node_id","warning","missed_checkup","PID","view_history","rt","responses","repeat_instructions","key_press","index","keypress_isi","keypress_S2","block","trial_num","phase","group_type","pair_type","S1_stim","S2_stim","S1_img","S2_img","S1_chosen","S1_higher","accuracy","keypress_iti","total_bonus_tally"
"true","full_screen","d04152023hr1135","fullscreen","0","15785","0.0-0.0","0","0","40398","","","","","","","","","","","","","","","","","","","","","",""
"","instructions","","instructions","1","57125","0.0-1.0-0.0-0.0","0","0","40398","[{""page_index"":0,""viewing_time"":5967},{""page_index"":1,""viewing_time"":24171},{""page_index"":2,""viewing_time"":9099},{""page_index"":3,""viewing_time"":2101}]","41338","","","","","","","","","","","","","","","","","","","",""
"","comprehension_check","","survey-multi-choice","2","78304","0.0-1.0-0.0-1.0","0","0","40398","","21174","{""Q0"":""True"",""Q1"":""D"",""Q2"":""Only when the screen 'MAKE A CHOICE' is shown"",""Q3"":""Green mark"",""Q4"":""either D or K""}","1","","","","","","","","","","","","","","","","","",""
"","missed_instruction_checkup","","html-keyboard-response","3","81480","0.0-1.0-0.0-2.0-0.0","0","1","40398","","3172","","","32","","","","","","","","","","","","","","","","",""
"","instructions","","instructions","4","102886","0.0-1.0-0.1-0.1","0","0","40398","[{""page_index"":0,""viewing_time"":3737},{""page_index"":1,""viewing_time"":10907},{""page_index"":2,""viewing_time"":5510},{""page_index"":3,""viewing_time"":1250}]","21404","","","","","","","","","","","","","","","","","","","",""
"","comprehension_check","","survey-multi-choice","5","120053","0.0-1.0-0.1-1.1","0","0","40398","","17162","{""Q0"":""True"",""Q1"":""D"",""Q2"":""Once the second image appears and while the screen 'MAKE A CHOICE' is shown"",""Q3"":""Green mark"",""Q4"":""either D or K""}","0","","","","","","","","","","","","","","","","","",""
"","start_exp","","html-keyboard-response","6","121761","0.0-1.0-1.0","0","0","40398","","1706","","","32","","","","","","","","","","","","","","","","",""
"","S1","","html-keyboard-response","7","122022","0.0-1.0-2.0","0","0","40398","","null","","","null","0","","","","","","","","","","","","","","","",""
"","ISI","","html-keyboard-response","8","123029","0.0-1.0-3.0","0","0","40398","","null","","","null","0","NaN","","","","","","","","","","","","","","",""
"","S2","","html-keyboard-response","9","123285","0.0-1.0-4.0","0","0","40398","","null","","","null","0","","NaN","","","","","","","","","","","","","",""
"","response","","html-keyboard-response","10","123367","0.0-1.0-5.0-0.0","0","0","40398","","79","","","68","0","","","1","0","training","adjacent","CD","3","4","Q.jpg","M.jpg","1","1","1","",""
"","feedback","","html-keyboard-response","11","124376","0.0-1.0-6.0-0.0","0","0","40398","","null","","","null","0","","","","","","","","","","","","","","","",""
"","ITI","","html-keyboard-response","12","125380","0.0-1.0-9.0","0","0","40398","","null","","","null","0","","","","","","","","","","","","","","","NaN",""
"","S1","","html-keyboard-response","13","125641","0.0-1.0-11.0","0","0","40398","","null","","","null","1","","","","","","","","","","","","","","","",""
"","ISI","","html-keyboard-response","14","126646","0.0-1.0-12.0","0","0","40398","","84","","","75","1","k","","","","","","","","","","","","","","",""
"","S2","","html-keyboard-response","15","126901","0.0-1.0-13.0","0","0","40398","","null","","","null","1","","NaN","","","","","","","","","","","","","",""
"","response","","html-keyboard-response","16","127001","0.0-1.0-14.0-0.0","0","0","40398","","98","","","75","1","","","1","1","training","adjacent","EF","5","6","P.jpg","N.jpg","0","1","0","",""
"","feedback","","html-keyboard-response","17","128004","0.0-1.0-15.0-0.0","0","0","40398","","null","","","null","1","","","","","","","","","","","","","","","",""
"","time_out","","html-keyboard-response","18","130012","0.0-1.0-17.0-0.0","0","0","40398","","null","","","null","1","","","","","","","","","","","","","","","",""
"","ITI","","html-keyboard-response","19","131017","0.0-1.0-18.0","0","0","40398","","855","","","68","1","","","","","","","","","","","","","","","d",""
"","S1","","html-keyboard-response","20","131278","0.0-1.0-20.0","0","0","40398","","null","","","null","2","","","","","","","","","","","","","","","",""
"","ISI","","html-keyboard-response","21","132288","0.0-1.0-21.0","0","0","40398","","null","","","null","2","NaN","","","","","","","","","","","","","","",""
"","S2","","html-keyboard-response","22","132549","0.0-1.0-22.0","0","0","40398","","null","","","null","2","","NaN","","","","","","","","","","","","","",""
"","response","","html-keyboard-response","23","133160","0.0-1.0-23.0-0.0","0","0","40398","","609","","","68","2","","","1","2","training","adjacent","DE","4","5","M.jpg","P.jpg","1","1","1","",""
"","feedback","","html-keyboard-response","24","134169","0.0-1.0-24.0-0.0","0","0","40398","","null","","","null","2","","","","","","","","","","","","","","","",""
"","ITI","","html-keyboard-response","25","135173","0.0-1.0-27.0","0","0","40398","","null","","","null","2","","","","","","","","","","","","","","","NaN",""
"","S1","","html-keyboard-response","26","135428","0.0-1.0-29.0","0","0","40398","","null","","","null","3","","","","","","","","","","","","","","","",""
"","ISI","","html-keyboard-response","27","136438","0.0-1.0-30.0","0","0","40398","","null","","","null","3","NaN","","","","","","","","","","","","","","",""
"","S2","","html-keyboard-response","28","136694","0.0-1.0-31.0","0","0","40398","","null","","","null","3","","NaN","","","","","","","","","","","","","",""
"","response","","html-keyboard-response","29","137070","0.0-1.0-32.0-0.0","0","0","40398","","374","","","68","3","","","1","3","training","adjacent","AB","1","2","L.jpg","R.jpg","1","1","1","",""
"","feedback","","html-keyboard-response","30","138081","0.0-1.0-33.0-0.0","0","0","40398","","null","","","null","3","","","","","","","","","","","","","","","",""
"","ITI","","html-keyboard-response","31","139085","0.0-1.0-36.0","0","0","40398","","null","","","null","3","","","","","","","","","","","","","","","NaN",""
"","S1","","html-keyboard-response","32","139341","0.0-1.0-38.0","0","0","40398","","null","","","null","4","","","","","","","","","","","","","","","",""
"","ISI","","html-keyboard-response","33","140351","0.0-1.0-39.0","0","0","40398","","null","","","null","4","NaN","","","","","","","","","","","","","","",""
"","S2","","html-keyboard-response","34","140606","0.0-1.0-40.0","0","0","40398","","null","","","null","4","","NaN","","","","","","","","","","","","","",""
"","response","","html-keyboard-response","35","141009","0.0-1.0-41.0-0.0","0","0","40398","","401","","","68","4","","","1","4","training","adjacent","BA","2","1","R.jpg","L.jpg","1","0","0","",""
"","feedback","","html-keyboard-response","36","142011","0.0-1.0-42.0-0.0","0","0","40398","","null","","","null","4","","","","","","","","","","","","","","","",""
"","time_out","","html-keyboard-response","37","144014","0.0-1.0-44.0-0.0","0","0","40398","","null","","","null","4","","","","","","","","","","","","","","","",""
"","ITI","","html-keyboard-response","38","145020","0.0-1.0-45.0","0","0","40398","","350","","","75","4","","","","","","","","","","","","","","","k",""
"","S1","","html-keyboard-response","39","145279","0.0-1.0-47.0","0","0","40398","","null","","","null","5","","","","","","","","","","","","","","","",""
"","ISI","","html-keyboard-response","40","146283","0.0-1.0-48.0","0","0","40398","","null","","","null","5","NaN","","","","","","","","","","","","","","",""
"","S2","","html-keyboard-response","41","146541","0.0-1.0-49.0","0","0","40398","","null","","","null","5","","NaN","","","","","","","","","","","","","",""
"","response","","html-keyboard-response","42","147054","0.0-1.0-50.0-0.0","0","0","40398","","512","","","75","5","","","1","5","training","adjacent","EF","5","6","P.jpg","N.jpg","0","1","0","",""
"","feedback","","html-keyboard-response","43","148059","0.0-1.0-51.0-0.0","0","0","40398","","null","","","null","5","","","","","","","","","","","","","","","",""
"","time_out","","html-keyboard-response","44","150063","0.0-1.0-53.0-0.0","0","0","40398","","null","","","null","5","","","","","","","","","","","","","","","",""
"","ITI","","html-keyboard-response","45","151068","0.0-1.0-54.0","0","0","40398","","null","","","null","5","","","","","","","","","","","","","","","NaN",""
"","S1","","html-keyboard-response","46","151326","0.0-1.0-56.0","0","0","40398","","null","","","null","6","","","","","","","","","","","","","","","",""
"","ISI","","html-keyboard-response","47","152332","0.0-1.0-57.0","0","0","40398","","null","","","null","6","NaN","","","","","","","","","","","","","","",""
"","S2","","html-keyboard-response","48","152587","0.0-1.0-58.0","0","0","40398","","null","","","null","6","","NaN","","","","","","","","","","","","","",""
"","response","","html-keyboard-response","49","153097","0.0-1.0-59.0-0.0","0","0","40398","","507","","","68","6","","","1","6","training","adjacent","BA","2","1","R.jpg","L.jpg","1","0","0","",""
"","feedback","","html-keyboard-response","50","154108","0.0-1.0-60.0-0.0","0","0","40398","","null","","","null","6","","","","","","","","","","","","","","","",""
"","time_out","","html-keyboard-response","51","156111","0.0-1.0-62.0-0.0","0","0","40398","","null","","","null","6","","","","","","","","","","","","","","","",""
"","ITI","","html-keyboard-response","52","157115","0.0-1.0-63.0","0","0","40398","","null","","","null","6","","","","","","","","","","","","","","","NaN",""
"","S1","","html-keyboard-response","53","157376","0.0-1.0-65.0","0","0","40398","","null","","","null","7","","","","","","","","","","","","","","","",""
"","ISI","","html-keyboard-response","54","158381","0.0-1.0-66.0","0","0","40398","","null","","","null","7","NaN","","","","","","","","","","","","","","",""
"","S2","","html-keyboard-response","55","158636","0.0-1.0-67.0","0","0","40398","","null","","","null","7","","NaN","","","","","","","","","","","","","",""
"","response","","html-keyboard-response","56","158969","0.0-1.0-68.0-0.0","0","0","40398","","331","","","68","7","","","1","7","training","adjacent","CB","3","2","Q.jpg","R.jpg","1","0","0","",""
"","feedback","","html-keyboard-response","57","159982","0.0-1.0-69.0-0.0","0","0","40398","","null","","","null","7","","","","","","","","","","","","","","","",""
"","time_out","","html-keyboard-response","58","161990","0.0-1.0-71.0-0.0","0","0","40398","","null","","","null","7","","","","","","","","","","","","","","","",""
"","ITI","","html-keyboard-response","59","162995","0.0-1.0-72.0","0","0","40398","","null","","","null","7","","","","","","","","","","","","","","","NaN",""
"","S1","","html-keyboard-response","60","163256","0.0-1.0-74.0","0","0","40398","","null","","","null","8","","","","","","","","","","","","","","","",""
"","ISI","","html-keyboard-response","61","164261","0.0-1.0-75.0","0","0","40398","","null","","","null","8","NaN","","","","","","","","","","","","","","",""
"","S2","","html-keyboard-response","62","164516","0.0-1.0-76.0","0","0","40398","","null","","","null","8","","NaN","","","","","","","","","","","","","",""
"","response","","html-keyboard-response","63","164859","0.0-1.0-77.0-0.0","0","0","40398","","341","","","75","8","","","1","8","training","adjacent","BC","2","3","R.jpg","Q.jpg","0","1","0","",""
"","feedback","","html-keyboard-response","64","165869","0.0-1.0-78.0-0.0","0","0","40398","","null","","","null","8","","","","","","","","","","","","","","","",""
"","time_out","","html-keyboard-response","65","167877","0.0-1.0-80.0-0.0","0","0","40398","","null","","","null","8","","","","","","","","","","","","","","","",""
"","ITI","","html-keyboard-response","66","168887","0.0-1.0-81.0","0","0","40398","","null","","","null","8","","","","","","","","","","","","","","","NaN",""
"","S1","","html-keyboard-response","67","169148","0.0-1.0-83.0","0","0","40398","","null","","","null","9","","","","","","","","","","","","","","","",""
"","ISI","","html-keyboard-response","68","170158","0.0-1.0-84.0","0","0","40398","","null","","","null","9","NaN","","","","","","","","","","","","","","",""
"","S2","","html-keyboard-response","69","170414","0.0-1.0-85.0","0","0","40398","","null","","","null","9","","NaN","","","","","","","","","","","","","",""
"","response","","html-keyboard-response","70","170969","0.0-1.0-86.0-0.0","0","0","40398","","554","","","75","9","","","1","9","training","adjacent","DE","4","5","M.jpg","P.jpg","0","1","0","",""
"","feedback","","html-keyboard-response","71","171981","0.0-1.0-87.0-0.0","0","0","40398","","null","","","null","9","","","","","","","","","","","","","","","",""
"","time_out","","html-keyboard-response","72","173990","0.0-1.0-89.0-0.0","0","0","40398","","null","","","null","9","","","","","","","","","","","","","","","",""
"","ITI","","html-keyboard-response","73","174995","0.0-1.0-90.0","0","0","40398","","null","","","null","9","","","","","","","","","","","","","","","NaN",""
"","S1","","html-keyboard-response","74","175255","0.0-1.0-92.0","0","0","40398","","null","","","null","10","","","","","","","","","","","","","","","",""
"","ISI","","html-keyboard-response","75","176258","0.0-1.0-93.0","0","0","40398","","null","","","null","10","NaN","","","","","","","","","","","","","","",""
"","S2","","html-keyboard-response","76","176514","0.0-1.0-94.0","0","0","40398","","null","","","null","10","","NaN","","","","","","","","","","","","","",""
"","response","","html-keyboard-response","77","176845","0.0-1.0-95.0-0.0","0","0","40398","","329","","","75","10","","","1","10","training","adjacent","GF","7","6","O.jpg","N.jpg","0","0","1","",""
"","feedback","","html-keyboard-response","78","177850","0.0-1.0-96.0-0.0","0","0","40398","","null","","","null","10","","","","","","","","","","","","","","","",""
"","ITI","","html-keyboard-response","79","178860","0.0-1.0-99.0","0","0","40398","","null","","","null","10","","","","","","","","","","","","","","","NaN",""
"","S1","","html-keyboard-response","80","179114","0.0-1.0-101.0","0","0","40398","","null","","","null","11","","","","","","","","","","","","","","","",""
"","ISI","","html-keyboard-response","81","180125","0.0-1.0-102.0","0","0","40398","","null","","","null","11","NaN","","","","","","","","","","","","","","",""
"","S2","","html-keyboard-response","82","180380","0.0-1.0-103.0","0","0","40398","","null","","","null","11","","NaN","","","","","","","","","","","","","",""
"","response","","html-keyboard-response","83","180810","0.0-1.0-104.0-0.0","0","0","40398","","428","","","68","11","","","1","11","training","adjacent","ED","5","4","P.jpg","M.jpg","1","0","0","",""
"","feedback","","html-keyboard-response","84","181814","0.0-1.0-105.0-0.0","0","0","40398","","null","","","null","11","","","","","","","","","","","","","","","",""
"","time_out","","html-keyboard-response","85","183820","0.0-1.0-107.0-0.0","0","0","40398","","null","","","null","11","","","","","","","","","","","","","","","",""
"","ITI","","html-keyboard-response","86","184827","0.0-1.0-108.0","0","0","40398","","null","","","null","11","","","","","","","","","","","","","","","NaN",""
"","S1","","html-keyboard-response","87","185083","0.0-1.0-110.0","0","0","40398","","null","","","null","12","","","","","","","","","","","","","","","",""
"","ISI","","html-keyboard-response","88","186093","0.0-1.0-111.0","0","0","40398","","null","","","null","12","NaN","","","","","","","","","","","","","","",""
"","S2","","html-keyboard-response","89","186348","0.0-1.0-112.0","0","0","40398","","null","","","null","12","","NaN","","","","","","","","","","","","","",""
"","response","","html-keyboard-response","90","186891","0.0-1.0-113.0-0.0","0","0","40398","","540","","","75","12","","","1","12","training","adjacent","FE","6","5","N.jpg","P.jpg","0","0","1","",""
"","feedback","","html-keyboard-response","91","187901","0.0-1.0-114.0-0.0","0","0","40398","","null","","","null","12","","","","","","","","","","","","","","","",""
"","ITI","","html-keyboard-response","92","188908","0.0-1.0-117.0","0","0","40398","","null","","","null","12","","","","","","","","","","","","","","","NaN",""
"","S1","","html-keyboard-response","93","189164","0.0-1.0-119.0","0","0","40398","","null","","","null","13","","","","","","","","","","","","","","","",""
"","ISI","","html-keyboard-response","94","190173","0.0-1.0-120.0","0","0","40398","","null","","","null","13","NaN","","","","","","","","","","","","","","",""
"","S2","","html-keyboard-response","95","190429","0.0-1.0-121.0","0","0","40398","","null","","","null","13","","NaN","","","","","","","","","","","","","",""
"","response","","html-keyboard-response","96","190794","0.0-1.0-122.0-0.0","0","0","40398","","363","","","75","13","","","1","13","training","adjacent","BA","2","1","R.jpg","L.jpg","0","0","1","",""
"","feedback","","html-keyboard-response","97","191804","0.0-1.0-123.0-0.0","0","0","40398","","null","","","null","13","","","","","","","","","","","","","","","",""
"","ITI","","html-keyboard-response","98","192814","0.0-1.0-126.0","0","0","40398","","null","","","null","13","","","","","","","","","","","","","","","NaN",""
"","S1","","html-keyboard-response","99","193076","0.0-1.0-128.0","0","0","40398","","null","","","null","14","","","","","","","","","","","","","","","",""
"","ISI","","html-keyboard-response","100","194086","0.0-1.0-129.0","0","0","40398","","null","","","null","14","NaN","","","","","","","","","","","","","","",""
"","S2","","html-keyboard-response","101","194346","0.0-1.0-130.0","0","0","40398","","null","","","null","14","","NaN","","","","","","","","","","","","","",""
"","response","","html-keyboard-response","102","194695","0.0-1.0-131.0-0.0","0","0","40398","","346","","","75","14","","","1","14","training","adjacent","AB","1","2","L.jpg","R.jpg","0","1","0","",""
"","feedback","","html-keyboard-response","103","195700","0.0-1.0-132.0-0.0","0","0","40398","","null","","","null","14","","","","","","","","","","","","","","","",""
"","time_out","","html-keyboard-response","104","197708","0.0-1.0-134.0-0.0","0","0","40398","","null","","","null","14","","","","","","","","","","","","","","","",""
"","ITI","","html-keyboard-response","105","198714","0.0-1.0-135.0","0","0","40398","","null","","","null","14","","","","","","","","","","","","","","","NaN",""
"","S1","","html-keyboard-response","106","198974","0.0-1.0-137.0","0","0","40398","","null","","","null","15","","","","","","","","","","","","","","","",""
"","ISI","","html-keyboard-response","107","199982","0.0-1.0-138.0","0","0","40398","","null","","","null","15","NaN","","","","","","","","","","","","","","",""
"","S2","","html-keyboard-response","108","200245","0.0-1.0-139.0","0","0","40398","","null","","","null","15","","NaN","","","","","","","","","","","","","",""
"","response","","html-keyboard-response","109","200345","0.0-1.0-140.0-0.0","0","0","40398","","99","","","68","15","","","1","15","training","adjacent","AB","1","2","L.jpg","R.jpg","1","1","1","",""
"","feedback","","html-keyboard-response","110","201358","0.0-1.0-141.0-0.0","0","0","40398","","null","","","null","15","","","","","","","","","","","","","","","",""
"","ITI","","html-keyboard-response","111","202363","0.0-1.0-144.0","0","0","40398","","null","","","null","15","","","","","","","","","","","","","","","NaN",""
"","S1","","html-keyboard-response","112","202619","0.0-1.0-146.0","0","0","40398","","null","","","null","16","","","","","","","","","","","","","","","",""
"","ISI","","html-keyboard-response","113","203629","0.0-1.0-147.0","0","0","40398","","null","","","null","16","NaN","","","","","","","","","","","","","","",""
"","S2","","html-keyboard-response","114","203884","0.0-1.0-148.0","0","0","40398","","null","","","null","16","","NaN","","","","","","","","","","","","","",""
"","response","","html-keyboard-response","115","204249","0.0-1.0-149.0-0.0","0","0","40398","","362","","","68","16","","","1","16","training","adjacent","DE","4","5","M.jpg","P.jpg","1","1","1","",""
"","feedback","","html-keyboard-response","116","205260","0.0-1.0-150.0-0.0","0","0","40398","","null","","","null","16","","","","","","","","","","","","","","","",""
"","ITI","","html-keyboard-response","117","206270","0.0-1.0-153.0","0","0","40398","","null","","","null","16","","","","","","","","","","","","","","","NaN",""
"","S1","","html-keyboard-response","118","206531","0.0-1.0-155.0","0","0","40398","","null","","","null","17","","","","","","","","","","","","","","","",""
"","ISI","","html-keyboard-response","119","207541","0.0-1.0-156.0","0","0","40398","","null","","","null","17","NaN","","","","","","","","","","","","","","",""
"","S2","","html-keyboard-response","120","207802","0.0-1.0-157.0","0","0","40398","","null","","","null","17","","NaN","","","","","","","","","","","","","",""
"","response","","html-keyboard-response","121","208084","0.0-1.0-158.0-0.0","0","0","40398","","281","","","68","17","","","1","17","training","adjacent","GF","7","6","O.jpg","N.jpg","1","0","0","",""
"","feedback","","html-keyboard-response","122","209091","0.0-1.0-159.0-0.0","0","0","40398","","null","","","null","17","","","","","","","","","","","","","","","",""
"","time_out","","html-keyboard-response","123","211099","0.0-1.0-161.0-0.0","0","0","40398","","null","","","null","17","","","","","","","","","","","","","","","",""
"","ITI","","html-keyboard-response","124","212107","0.0-1.0-162.0","0","0","40398","","null","","","null","17","","","","","","","","","","","","","","","NaN",""
"","S1","","html-keyboard-response","125","212365","0.0-1.0-164.0","0","0","40398","","null","","","null","18","","","","","","","","","","","","","","","",""
"","ISI","","html-keyboard-response","126","213370","0.0-1.0-165.0","0","0","40398","","null","","","null","18","NaN","","","","","","","","","","","","","","",""
"","S2","","html-keyboard-response","127","213628","0.0-1.0-166.0","0","0","40398","","null","","","null","18","","NaN","","","","","","","","","","","","","",""
"","response","","html-keyboard-response","128","213896","0.0-1.0-167.0-0.0","0","0","40398","","266","","","75","18","","","1","18","training","adjacent","ED","5","4","P.jpg","M.jpg","0","0","1","",""
"","feedback","","html-keyboard-response","129","214908","0.0-1.0-168.0-0.0","0","0","40398","","null","","","null","18","","","","","","","","","","","","","","","",""
"","ITI","","html-keyboard-response","130","215914","0.0-1.0-171.0","0","0","40398","","null","","","null","18","","","","","","","","","","","","","","","NaN",""
"","S1","","html-keyboard-response","131","216173","0.0-1.0-173.0","0","0","40398","","null","","","null","19","","","","","","","","","","","","","","","",""
"","ISI","","html-keyboard-response","132","217178","0.0-1.0-174.0","0","0","40398","","null","","","null","19","NaN","","","","","","","","","","","","","","",""
"","S2","","html-keyboard-response","133","217433","0.0-1.0-175.0","0","0","40398","","null","","","null","19","","NaN","","","","","","","","","","","","","",""
"","response","","html-keyboard-response","134","217735","0.0-1.0-176.0-0.0","0","0","40398","","300","","","68","19","","","1","19","training","adjacent","BC","2","3","R.jpg","Q.jpg","1","1","1","",""
"","feedback","","html-keyboard-response","135","218749","0.0-1.0-177.0-0.0","0","0","40398","","null","","","null","19","","","","","","","","","","","","","","","",""
"","ITI","","html-keyboard-response","136","219755","0.0-1.0-180.0","0","0","40398","","null","","","null","19","","","","","","","","","","","","","","","NaN",""
"","S1","","html-keyboard-response","137","220010","0.0-1.0-182.0","0","0","40398","","null","","","null","20","","","","","","","","","","","","","","","",""
"","ISI","","html-keyboard-response","138","221014","0.0-1.0-183.0","0","0","40398","","null","","","null","20","NaN","","","","","","","","","","","","","","",""
"","S2","","html-keyboard-response","139","221276","0.0-1.0-184.0","0","0","40398","","null","","","null","20","","NaN","","","","","","","","","","","","","",""
"","response","","html-keyboard-response","140","221570","0.0-1.0-185.0-0.0","0","0","40398","","293","","","68","20","","","1","20","training","adjacent","DC","4","3","M.jpg","Q.jpg","1","0","0","",""
"","feedback","","html-keyboard-response","141","222581","0.0-1.0-186.0-0.0","0","0","40398","","null","","","null","20","","","","","","","","","","","","","","","",""
"","time_out","","html-keyboard-response","142","224590","0.0-1.0-188.0-0.0","0","0","40398","","null","","","null","20","","","","","","","","","","","","","","","",""
"","ITI","","html-keyboard-response","143","225595","0.0-1.0-189.0","0","0","40398","","null","","","null","20","","","","","","","","","","","","","","","NaN",""
"","S1","","html-keyboard-response","144","225850","0.0-1.0-191.0","0","0","40398","","null","","","null","21","","","","","","","","","","","","","","","",""
"","ISI","","html-keyboard-response","145","226860","0.0-1.0-192.0","0","0","40398","","null","","","null","21","NaN","","","","","","","","","","","","","","",""
"","S2","","html-keyboard-response","146","227114","0.0-1.0-193.0","0","0","40398","","null","","","null","21","","NaN","","","","","","","","","","","","","",""
"","response","","html-keyboard-response","147","227433","0.0-1.0-194.0-0.0","0","0","40398","","318","","","75","21","","","1","21","training","adjacent","ED","5","4","P.jpg","M.jpg","0","0","1","",""
"","feedback","","html-keyboard-response","148","228445","0.0-1.0-195.0-0.0","0","0","40398","","null","","","null","21","","","","","","","","","","","","","","","",""
"","ITI","","html-keyboard-response","149","229449","0.0-1.0-198.0","0","0","40398","","null","","","null","21","","","","","","","","","","","","","","","NaN",""
"","S1","","html-keyboard-response","150","229706","0.0-1.0-200.0","0","0","40398","","null","","","null","22","","","","","","","","","","","","","","","",""
"","ISI","","html-keyboard-response","151","230709","0.0-1.0-201.0","0","0","40398","","null","","","null","22","NaN","","","","","","","","","","","","","","",""
"","S2","","html-keyboard-response","152","230970","0.0-1.0-202.0","0","0","40398","","null","","","null","22","","NaN","","","","","","","","","","","","","",""
"","response","","html-keyboard-response","153","231781","0.0-1.0-203.0-0.0","0","0","40398","","810","","","68","22","","","1","22","training","adjacent","CD","3","4","Q.jpg","M.jpg","1","1","1","",""
"","feedback","","html-keyboard-response","154","232787","0.0-1.0-204.0-0.0","0","0","40398","","null","","","null","22","","","","","","","","","","","","","","","",""
"","ITI","","html-keyboard-response","155","233797","0.0-1.0-207.0","0","0","40398","","null","","","null","22","","","","","","","","","","","","","","","NaN",""
"","S1","","html-keyboard-response","156","234058","0.0-1.0-209.0","0","0","40398","","null","","","null","23","","","","","","","","","","","","","","","",""
"","ISI","","html-keyboard-response","157","235068","0.0-1.0-210.0","0","0","40398","","null","","","null","23","NaN","","","","","","","","","","","","","","",""
"","S2","","html-keyboard-response","158","235323","0.0-1.0-211.0","0","0","40398","","null","","","null","23","","NaN","","","","","","","","","","","","","",""
"","response","","html-keyboard-response","159","235751","0.0-1.0-212.0-0.0","0","0","40398","","426","","","68","23","","","1","23","training","adjacent","FE","6","5","N.jpg","P.jpg","1","0","0","",""
"","feedback","","html-keyboard-response","160","236762","0.0-1.0-213.0-0.0","0","0","40398","","null","","","null","23","","","","","","","","","","","","","","","",""
"","time_out","","html-keyboard-response","161","238772","0.0-1.0-215.0-0.0","0","0","40398","","null","","","null","23","","","","","","","","","","","","","","","",""
"","ITI","","html-keyboard-response","162","239781","0.0-1.0-216.0","0","0","40398","","null","","","null","23","","","","","","","","","","","","","","","NaN",""
"","S1","","html-keyboard-response","163","240043","0.0-1.0-218.0","0","0","40398","","null","","","null","24","","","","","","","","","","","","","","","",""
"","ISI","","html-keyboard-response","164","241053","0.0-1.0-219.0","0","0","40398","","null","","","null","24","NaN","","","","","","","","","","","","","","",""
"","S2","","html-keyboard-response","165","241308","0.0-1.0-220.0","0","0","40398","","null","","","null","24","","NaN","","","","","","","","","","","","","",""
"","response","","html-keyboard-response","166","241654","0.0-1.0-221.0-0.0","0","0","40398","","343","","","75","24","","","1","24","training","adjacent","FE","6","5","N.jpg","P.jpg","0","0","1","",""
"","feedback","","html-keyboard-response","167","242661","0.0-1.0-222.0-0.0","0","0","40398","","null","","","null","24","","","","","","","","","","","","","","","",""
"","ITI","","html-keyboard-response","168","243665","0.0-1.0-225.0","0","0","40398","","null","","","null","24","","","","","","","","","","","","","","","NaN",""
"","S1","","html-keyboard-response","169","243921","0.0-1.0-227.0","0","0","40398","","null","","","null","25","","","","","","","","","","","","","","","",""
"","ISI","","html-keyboard-response","170","244930","0.0-1.0-228.0","0","0","40398","","null","","","null","25","NaN","","","","","","","","","","","","","","",""
"","S2","","html-keyboard-response","171","245186","0.0-1.0-229.0","0","0","40398","","null","","","null","25","","NaN","","","","","","","","","","","","","",""
"","response","","html-keyboard-response","172","245788","0.0-1.0-230.0-0.0","0","0","40398","","600","","","75","25","","","1","25","training","adjacent","CD","3","4","Q.jpg","M.jpg","0","1","0","",""
"","feedback","","html-keyboard-response","173","246794","0.0-1.0-231.0-0.0","0","0","40398","","null","","","null","25","","","","","","","","","","","","","","","",""
"","time_out","","html-keyboard-response","174","248802","0.0-1.0-233.0-0.0","0","0","40398","","null","","","null","25","","","","","","","","","","","","","","","",""
"","ITI","","html-keyboard-response","175","249812","0.0-1.0-234.0","0","0","40398","","null","","","null","25","","","","","","","","","","","","","","","NaN",""
"","S1","","html-keyboard-response","176","250073","0.0-1.0-236.0","0","0","40398","","null","","","null","26","","","","","","","","","","","","","","","",""
"","ISI","","html-keyboard-response","177","251083","0.0-1.0-237.0","0","0","40398","","null","","","null","26","NaN","","","","","","","","","","","","","","",""
"","S2","","html-keyboard-response","178","251339","0.0-1.0-238.0","0","0","40398","","null","","","null","26","","NaN","","","","","","","","","","","","","",""
"","response","","html-keyboard-response","179","251639","0.0-1.0-239.0-0.0","0","0","40398","","298","","","68","26","","","1","26","training","adjacent","FE","6","5","N.jpg","P.jpg","1","0","0","",""
"","feedback","","html-keyboard-response","180","252651","0.0-1.0-240.0-0.0","0","0","40398","","null","","","null","26","","","","","","","","","","","","","","","",""
"","time_out","","html-keyboard-response","181","254659","0.0-1.0-242.0-0.0","0","0","40398","","null","","","null","26","","","","","","","","","","","","","","","",""
"","ITI","","html-keyboard-response","182","255669","0.0-1.0-243.0","0","0","40398","","null","","","null","26","","","","","","","","","","","","","","","NaN",""
"","S1","","html-keyboard-response","183","255930","0.0-1.0-245.0","0","0","40398","","null","","","null","27","","","","","","","","","","","","","","","",""
"","ISI","","html-keyboard-response","184","256940","0.0-1.0-246.0","0","0","40398","","null","","","null","27","NaN","","","","","","","","","","","","","","",""
"","S2","","html-keyboard-response","185","257202","0.0-1.0-247.0","0","0","40398","","null","","","null","27","","NaN","","","","","","","","","","","","","",""
"","response","","html-keyboard-response","186","257414","0.0-1.0-248.0-0.0","0","0","40398","","211","","","75","27","","","1","27","training","adjacent","EF","5","6","P.jpg","N.jpg","0","1","0","",""
"","feedback","","html-keyboard-response","187","258427","0.0-1.0-249.0-0.0","0","0","40398","","null","","","null","27","","","","","","","","","","","","","","","",""
"","time_out","","html-keyboard-response","188","260435","0.0-1.0-251.0-0.0","0","0","40398","","null","","","null","27","","","","","","","","","","","","","","","",""
"","ITI","","html-keyboard-response","189","261441","0.0-1.0-252.0","0","0","40398","","null","","","null","27","","","","","","","","","","","","","","","NaN",""
"","S1","","html-keyboard-response","190","261701","0.0-1.0-254.0","0","0","40398","","null","","","null","28","","","","","","","","","","","","","","","",""
"","ISI","","html-keyboard-response","191","262705","0.0-1.0-255.0","0","0","40398","","null","","","null","28","NaN","","","","","","","","","","","","","","",""
"","S2","","html-keyboard-response","192","262960","0.0-1.0-256.0","0","0","40398","","null","","","null","28","","NaN","","","","","","","","","","","","","",""
"","response","","html-keyboard-response","193","263153","0.0-1.0-257.0-0.0","0","0","40398","","190","","","75","28","","","1","28","training","adjacent","EF","5","6","P.jpg","N.jpg","0","1","0","",""
"","feedback","","html-keyboard-response","194","264162","0.0-1.0-258.0-0.0","0","0","40398","","null","","","null","28","","","","","","","","","","","","","","","",""
"","time_out","","html-keyboard-response","195","266170","0.0-1.0-260.0-0.0","0","0","40398","","null","","","null","28","","","","","","","","","","","","","","","",""
"","ITI","","html-keyboard-response","196","267180","0.0-1.0-261.0","0","0","40398","","null","","","null","28","","","","","","","","","","","","","","","NaN",""
"","S1","","html-keyboard-response","197","267441","0.0-1.0-263.0","0","0","40398","","null","","","null","29","","","","","","","","","","","","","","","",""
"","ISI","","html-keyboard-response","198","268451","0.0-1.0-264.0","0","0","40398","","null","","","null","29","NaN","","","","","","","","","","","","","","",""
"","S2","","html-keyboard-response","199","268707","0.0-1.0-265.0","0","0","40398","","null","","","null","29","","NaN","","","","","","","","","","","","","",""
"","response","","html-keyboard-response","200","268979","0.0-1.0-266.0-0.0","0","0","40398","","271","","","68","29","","","1","29","training","adjacent","CB","3","2","Q.jpg","R.jpg","1","0","0","",""
"","feedback","","html-keyboard-response","201","269984","0.0-1.0-267.0-0.0","0","0","40398","","null","","","null","29","","","","","","","","","","","","","","","",""
"","time_out","","html-keyboard-response","202","271992","0.0-1.0-269.0-0.0","0","0","40398","","null","","","null","29","","","","","","","","","","","","","","","",""
"","ITI","","html-keyboard-response","203","273003","0.0-1.0-270.0","0","0","40398","","null","","","null","29","","","","","","","","","","","","","","","NaN",""
"","S1","","html-keyboard-response","204","273258","0.0-1.0-272.0","0","0","40398","","null","","","null","30","","","","","","","","","","","","","","","",""
"","ISI","","html-keyboard-response","205","274268","0.0-1.0-273.0","0","0","40398","","null","","","null","30","NaN","","","","","","","","","","","","","","",""
"","S2","","html-keyboard-response","206","274529","0.0-1.0-274.0","0","0","40398","","null","","","null","30","","NaN","","","","","","","","","","","","","",""
"","response","","html-keyboard-response","207","274749","0.0-1.0-275.0-0.0","0","0","40398","","217","","","68","30","","","1","30","training","adjacent","BC","2","3","R.jpg","Q.jpg","1","1","1","",""
"","feedback","","html-keyboard-response","208","275754","0.0-1.0-276.0-0.0","0","0","40398","","null","","","null","30","","","","","","","","","","","","","","","",""
"","ITI","","html-keyboard-response","209","276764","0.0-1.0-279.0","0","0","40398","","null","","","null","30","","","","","","","","","","","","","","","NaN",""
"","S1","","html-keyboard-response","210","277025","0.0-1.0-281.0","0","0","40398","","null","","","null","31","","","","","","","","","","","","","","","",""
"","ISI","","html-keyboard-response","211","278035","0.0-1.0-282.0","0","0","40398","","null","","","null","31","NaN","","","","","","","","","","","","","","",""
"","S2","","html-keyboard-response","212","278291","0.0-1.0-283.0","0","0","40398","","null","","","null","31","","NaN","","","","","","","","","","","","","",""
"","response","","html-keyboard-response","213","278546","0.0-1.0-284.0-0.0","0","0","40398","","254","","","75","31","","","1","31","training","adjacent","CB","3","2","Q.jpg","R.jpg","0","0","1","",""
"","feedback","","html-keyboard-response","214","279556","0.0-1.0-285.0-0.0","0","0","40398","","null","","","null","31","","","","","","","","","","","","","","","",""
"","ITI","","html-keyboard-response","215","280560","0.0-1.0-288.0","0","0","40398","","null","","","null","31","","","","","","","","","","","","","","","NaN",""
"","S1","","html-keyboard-response","216","280816","0.0-1.0-290.0","0","0","40398","","null","","","null","32","","","","","","","","","","","","","","","",""
"","ISI","","html-keyboard-response","217","281826","0.0-1.0-291.0","0","0","40398","","null","","","null","32","NaN","","","","","","","","","","","","","","",""
"","S2","","html-keyboard-response","218","282082","0.0-1.0-292.0","0","0","40398","","null","","","null","32","","NaN","","","","","","","","","","","","","",""
"","response","","html-keyboard-response","219","282348","0.0-1.0-293.0-0.0","0","0","40398","","265","","","75","32","","","1","32","training","adjacent","DC","4","3","M.jpg","Q.jpg","0","0","1","",""
"","feedback","","html-keyboard-response","220","283352","0.0-1.0-294.0-0.0","0","0","40398","","null","","","null","32","","","","","","","","","","","","","","","",""
"","ITI","","html-keyboard-response","221","284363","0.0-1.0-297.0","0","0","40398","","null","","","null","32","","","","","","","","","","","","","","","NaN",""
"","S1","","html-keyboard-response","222","284616","0.0-1.0-299.0","0","0","40398","","null","","","null","33","","","","","","","","","","","","","","","",""
"","ISI","","html-keyboard-response","223","285624","0.0-1.0-300.0","0","0","40398","","null","","","null","33","NaN","","","","","","","","","","","","","","",""
"","S2","","html-keyboard-response","224","285883","0.0-1.0-301.0","0","0","40398","","null","","","null","33","","NaN","","","","","","","","","","","","","",""
"","response","","html-keyboard-response","225","286102","0.0-1.0-302.0-0.0","0","0","40398","","217","","","75","33","","","1","33","training","adjacent","BC","2","3","R.jpg","Q.jpg","0","1","0","",""
"","feedback","","html-keyboard-response","226","287108","0.0-1.0-303.0-0.0","0","0","40398","","null","","","null","33","","","","","","","","","","","","","","","",""
"","time_out","","html-keyboard-response","227","289113","0.0-1.0-305.0-0.0","0","0","40398","","null","","","null","33","","","","","","","","","","","","","","","",""
"","ITI","","html-keyboard-response","228","290121","0.0-1.0-306.0","0","0","40398","","null","","","null","33","","","","","","","","","","","","","","","NaN",""
"","S1","","html-keyboard-response","229","290376","0.0-1.0-308.0","0","0","40398","","null","","","null","34","","","","","","","","","","","","","","","",""
"","ISI","","html-keyboard-response","230","291386","0.0-1.0-309.0","0","0","40398","","null","","","null","34","NaN","","","","","","","","","","","","","","",""
"","S2","","html-keyboard-response","231","291643","0.0-1.0-310.0","0","0","40398","","null","","","null","34","","NaN","","","","","","","","","","","","","",""
"","response","","html-keyboard-response","232","291717","0.0-1.0-311.0-0.0","0","0","40398","","71","","","68","34","","","1","34","training","adjacent","FG","6","7","N.jpg","O.jpg","1","1","1","",""
"","feedback","","html-keyboard-response","233","292727","0.0-1.0-312.0-0.0","0","0","40398","","null","","","null","34","","","","","","","","","","","","","","","",""
"","ITI","","html-keyboard-response","234","293737","0.0-1.0-315.0","0","0","40398","","null","","","null","34","","","","","","","","","","","","","","","NaN",""
"","S1","","html-keyboard-response","235","293993","0.0-1.0-317.0","0","0","40398","","null","","","null","35","","","","","","","","","","","","","","","",""
"","ISI","","html-keyboard-response","236","295003","0.0-1.0-318.0","0","0","40398","","null","","","null","35","NaN","","","","","","","","","","","","","","",""
"","S2","","html-keyboard-response","237","295264","0.0-1.0-319.0","0","0","40398","","null","","","null","35","","NaN","","","","","","","","","","","","","",""
"","response","","html-keyboard-response","238","295592","0.0-1.0-320.0-0.0","0","0","40398","","326","","","68","35","","","1","35","training","adjacent","FG","6","7","N.jpg","O.jpg","1","1","1","",""
"","feedback","","html-keyboard-response","239","296599","0.0-1.0-321.0-0.0","0","0","40398","","null","","","null","35","","","","","","","","","","","","","","","",""
"","ITI","","html-keyboard-response","240","297609","0.0-1.0-324.0","0","0","40398","","null","","","null","35","","","","","","","","","","","","","","","NaN",""
"","S1","","html-keyboard-response","241","297864","0.0-1.0-326.0","0","0","40398","","null","","","null","36","","","","","","","","","","","","","","","",""
"","ISI","","html-keyboard-response","242","298875","0.0-1.0-327.0","0","0","40398","","null","","","null","36","NaN","","","","","","","","","","","","","","",""
"","S2","","html-keyboard-response","243","299136","0.0-1.0-328.0","0","0","40398","","null","","","null","36","","NaN","","","","","","","","","","","","","",""
"","response","","html-keyboard-response","244","299325","0.0-1.0-329.0-0.0","0","0","40398","","187","","","75","36","","","1","36","training","adjacent","AB","1","2","L.jpg","R.jpg","0","1","0","",""
"","feedback","","html-keyboard-response","245","300337","0.0-1.0-330.0-0.0","0","0","40398","","null","","","null","36","","","","","","","","","","","","","","","",""
"","time_out","","html-keyboard-response","246","302346","0.0-1.0-332.0-0.0","0","0","40398","","null","","","null","36","","","","","","","","","","","","","","","",""
"","ITI","","html-keyboard-response","247","303351","0.0-1.0-333.0","0","0","40398","","null","","","null","36","","","","","","","","","","","","","","","NaN",""
"","S1","","html-keyboard-response","248","303611","0.0-1.0-335.0","0","0","40398","","null","","","null","37","","","","","","","","","","","","","","","",""
"","ISI","","html-keyboard-response","249","304615","0.0-1.0-336.0","0","0","40398","","null","","","null","37","NaN","","","","","","","","","","","","","","",""
"","S2","","html-keyboard-response","250","304871","0.0-1.0-337.0","0","0","40398","","null","","","null","37","","NaN","","","","","","","","","","","","","",""
"","response","","html-keyboard-response","251","304970","0.0-1.0-338.0-0.0","0","0","40398","","97","","","75","37","","","1","37","training","adjacent","DC","4","3","M.jpg","Q.jpg","0","0","1","",""
"","feedback","","html-keyboard-response","252","305979","0.0-1.0-339.0-0.0","0","0","40398","","null","","","null","37","","","","","","","","","","","","","","","",""
"","ITI","","html-keyboard-response","253","306984","0.0-1.0-342.0","0","0","40398","","null","","","null","37","","","","","","","","","","","","","","","NaN",""
"","S1","","html-keyboard-response","254","307239","0.0-1.0-344.0","0","0","40398","","null","","","null","38","","","","","","","","","","","","","","","",""
"","ISI","","html-keyboard-response","255","308249","0.0-1.0-345.0","0","0","40398","","null","","","null","38","NaN","","","","","","","","","","","","","","",""
"","S2","","html-keyboard-response","256","308505","0.0-1.0-346.0","0","0","40398","","null","","","null","38","","NaN","","","","","","","","","","","","","",""
"","response","","html-keyboard-response","257","308816","0.0-1.0-347.0-0.0","0","0","40398","","310","","","68","38","","","1","38","training","adjacent","CB","3","2","Q.jpg","R.jpg","1","0","0","",""
"","feedback","","html-keyboard-response","258","309824","0.0-1.0-348.0-0.0","0","0","40398","","null","","","null","38","","","","","","","","","","","","","","","",""
"","time_out","","html-keyboard-response","259","311831","0.0-1.0-350.0-0.0","0","0","40398","","null","","","null","38","","","","","","","","","","","","","","","",""
"","ITI","","html-keyboard-response","260","312841","0.0-1.0-351.0","0","0","40398","","null","","","null","38","","","","","","","","","","","","","","","NaN",""
"","S1","","html-keyboard-response","261","313096","0.0-1.0-353.0","0","0","40398","","null","","","null","39","","","","","","","","","","","","","","","",""
"","ISI","","html-keyboard-response","262","314106","0.0-1.0-354.0","0","0","40398","","null","","","null","39","NaN","","","","","","","","","","","","","","",""
"","S2","","html-keyboard-response","263","314368","0.0-1.0-355.0","0","0","40398","","null","","","null","39","","NaN","","","","","","","","","","","","","",""
"","response","","html-keyboard-response","264","314513","0.0-1.0-356.0-0.0","0","0","40398","","144","","","68","39","","","1","39","training","adjacent","FG","6","7","N.jpg","O.jpg","1","1","1","",""
"","feedback","","html-keyboard-response","265","315519","0.0-1.0-357.0-0.0","0","0","40398","","null","","","null","39","","","","","","","","","","","","","","","",""
"","ITI","","html-keyboard-response","266","316527","0.0-1.0-360.0","0","0","40398","","null","","","null","39","","","","","","","","","","","","","","","NaN",""
"","S1","","html-keyboard-response","267","316783","0.0-1.0-362.0","0","0","40398","","null","","","null","40","","","","","","","","","","","","","","","",""
"","ISI","","html-keyboard-response","268","317793","0.0-1.0-363.0","0","0","40398","","null","","","null","40","NaN","","","","","","","","","","","","","","",""
"","S2","","html-keyboard-response","269","318048","0.0-1.0-364.0","0","0","40398","","null","","","null","40","","NaN","","","","","","","","","","","","","",""
"","response","","html-keyboard-response","270","318390","0.0-1.0-365.0-0.0","0","0","40398","","341","","","75","40","","","1","40","training","adjacent","FG","6","7","N.jpg","O.jpg","0","1","0","",""
"","feedback","","html-keyboard-response","271","319400","0.0-1.0-366.0-0.0","0","0","40398","","null","","","null","40","","","","","","","","","","","","","","","",""
"","time_out","","html-keyboard-response","272","321409","0.0-1.0-368.0-0.0","0","0","40398","","null","","","null","40","","","","","","","","","","","","","","","",""
"","ITI","","html-keyboard-response","273","322416","0.0-1.0-369.0","0","0","40398","","null","","","null","40","","","","","","","","","","","","","","","NaN",""
"","S1","","html-keyboard-response","274","322674","0.0-1.0-371.0","0","0","40398","","null","","","null","41","","","","","","","","","","","","","","","",""
"","ISI","","html-keyboard-response","275","323679","0.0-1.0-372.0","0","0","40398","","null","","","null","41","NaN","","","","","","","","","","","","","","",""
"","S2","","html-keyboard-response","276","323934","0.0-1.0-373.0","0","0","40398","","null","","","null","41","","NaN","","","","","","","","","","","","","",""
"","response","","html-keyboard-response","277","323991","0.0-1.0-374.0-0.0","0","0","40398","","54","","","68","41","","","1","41","training","adjacent","GF","7","6","O.jpg","N.jpg","1","0","0","",""
"","feedback","","html-keyboard-response","278","325002","0.0-1.0-375.0-0.0","0","0","40398","","null","","","null","41","","","","","","","","","","","","","","","",""
"","time_out","","html-keyboard-response","279","327011","0.0-1.0-377.0-0.0","0","0","40398","","null","","","null","41","","","","","","","","","","","","","","","",""
"","ITI","","html-keyboard-response","280","328015","0.0-1.0-378.0","0","0","40398","","null","","","null","41","","","","","","","","","","","","","","","NaN",""
"","S1","","html-keyboard-response","281","328270","0.0-1.0-380.0","0","0","40398","","null","","","null","42","","","","","","","","","","","","","","","",""
"","ISI","","html-keyboard-response","282","329280","0.0-1.0-381.0","0","0","40398","","null","","","null","42","NaN","","","","","","","","","","","","","","",""
"","S2","","html-keyboard-response","283","329374","0.0-1.0-382.0","0","0","40398","","91","","","75","42","","k","1","42","training","adjacent","ED","5","4","P.jpg","M.jpg","0","0","1","",""
"","feedback","","html-keyboard-response","284","330383","0.0-1.0-384.0-0.0","0","0","40398","","null","","","null","42","","","","","","","","","","","","","","","",""
"","ITI","","html-keyboard-response","285","331393","0.0-1.0-387.0","0","0","40398","","null","","","null","42","","","","","","","","","","","","","","","NaN",""
"","S1","","html-keyboard-response","286","331649","0.0-1.0-389.0","0","0","40398","","null","","","null","43","","","","","","","","","","","","","","","",""
"","ISI","","html-keyboard-response","287","332659","0.0-1.0-390.0","0","0","40398","","null","","","null","43","NaN","","","","","","","","","","","","","","",""
"","S2","","html-keyboard-response","288","332920","0.0-1.0-391.0","0","0","40398","","null","","","null","43","","NaN","","","","","","","","","","","","","",""
"","response","","html-keyboard-response","289","333036","0.0-1.0-392.0-0.0","0","0","40398","","115","","","75","43","","","1","43","training","adjacent","GF","7","6","O.jpg","N.jpg","0","0","1","",""
"","feedback","","html-keyboard-response","290","334046","0.0-1.0-393.0-0.0","0","0","40398","","null","","","null","43","","","","","","","","","","","","","","","",""
"","ITI","","html-keyboard-response","291","335055","0.0-1.0-396.0","0","0","40398","","null","","","null","43","","","","","","","","","","","","","","","NaN",""
"","S1","","html-keyboard-response","292","335311","0.0-1.0-398.0","0","0","40398","","null","","","null","44","","","","","","","","","","","","","","","",""
"","ISI","","html-keyboard-response","293","336319","0.0-1.0-399.0","0","0","40398","","null","","","null","44","NaN","","","","","","","","","","","","","","",""
"","S2","","html-keyboard-response","294","336577","0.0-1.0-400.0","0","0","40398","","null","","","null","44","","NaN","","","","","","","","","","","","","",""
"","response","","html-keyboard-response","295","336689","0.0-1.0-401.0-0.0","0","0","40398","","111","","","68","44","","","1","44","training","adjacent","CD","3","4","Q.jpg","M.jpg","1","1","1","",""
"","feedback","","html-keyboard-response","296","337697","0.0-1.0-402.0-0.0","0","0","40398","","null","","","null","44","","","","","","","","","","","","","","","",""
"","ITI","","html-keyboard-response","297","338703","0.0-1.0-405.0","0","0","40398","","null","","","null","44","","","","","","","","","","","","","","","NaN",""
"","S1","","html-keyboard-response","298","338963","0.0-1.0-407.0","0","0","40398","","null","","","null","45","","","","","","","","","","","","","","","",""
"","ISI","","html-keyboard-response","299","339967","0.0-1.0-408.0","0","0","40398","","null","","","null","45","NaN","","","","","","","","","","","","","","",""
"","S2","","html-keyboard-response","300","340222","0.0-1.0-409.0","0","0","40398","","null","","","null","45","","NaN","","","","","","","","","","","","","",""
"","response","","html-keyboard-response","301","340533","0.0-1.0-410.0-0.0","0","0","40398","","309","","","75","45","","","1","45","training","adjacent","DE","4","5","M.jpg","P.jpg","0","1","0","",""
"","feedback","","html-keyboard-response","302","341546","0.0-1.0-411.0-0.0","0","0","40398","","null","","","null","45","","","","","","","","","","","","","","","",""
"","time_out","","html-keyboard-response","303","343554","0.0-1.0-413.0-0.0","0","0","40398","","null","","","null","45","","","","","","","","","","","","","","","",""
"","ITI","","html-keyboard-response","304","344558","0.0-1.0-414.0","0","0","40398","","null","","","null","45","","","","","","","","","","","","","","","NaN",""
"","S1","","html-keyboard-response","305","344814","0.0-1.0-416.0","0","0","40398","","null","","","null","46","","","","","","","","","","","","","","","",""
"","ISI","","html-keyboard-response","306","345824","0.0-1.0-417.0","0","0","40398","","null","","","null","46","NaN","","","","","","","","","","","","","","",""
"","S2","","html-keyboard-response","307","346079","0.0-1.0-418.0","0","0","40398","","null","","","null","46","","NaN","","","","","","","","","","","","","",""
"","response","","html-keyboard-response","308","346415","0.0-1.0-419.0-0.0","0","0","40398","","334","","","68","46","","","1","46","training","adjacent","BA","2","1","R.jpg","L.jpg","1","0","0","",""
"","feedback","","html-keyboard-response","309","347425","0.0-1.0-420.0-0.0","0","0","40398","","null","","","null","46","","","","","","","","","","","","","","","",""
"","time_out","","html-keyboard-response","310","349429","0.0-1.0-422.0-0.0","0","0","40398","","null","","","null","46","","","","","","","","","","","","","","","",""
"","ITI","","html-keyboard-response","311","350438","0.0-1.0-423.0","0","0","40398","","null","","","null","46","","","","","","","","","","","","","","","NaN",""
"","S1","","html-keyboard-response","312","350694","0.0-1.0-425.0","0","0","40398","","null","","","null","47","","","","","","","","","","","","","","","",""
"","ISI","","html-keyboard-response","313","351704","0.0-1.0-426.0","0","0","40398","","null","","","null","47","NaN","","","","","","","","","","","","","","",""
"","S2","","html-keyboard-response","314","351960","0.0-1.0-427.0","0","0","40398","","null","","","null","47","","NaN","","","","","","","","","","","","","",""
"","response","","html-keyboard-response","315","352215","0.0-1.0-428.0-0.0","0","0","40398","","253","","","68","47","","","1","47","training","adjacent","DC","4","3","M.jpg","Q.jpg","1","0","0","",""
"","feedback","","html-keyboard-response","316","353225","0.0-1.0-429.0-0.0","0","0","40398","","null","","","null","47","","","","","","","","","","","","","","","",""
"","time_out","","html-keyboard-response","317","355234","0.0-1.0-431.0-0.0","0","0","40398","","null","","","null","47","","","","","","","","","","","","","","","",""
"","ITI","","html-keyboard-response","318","356238","0.0-1.0-432.0","0","0","40398","","null","","","null","47","","","","","","","","","","","","","","","NaN",""
"","block_over","","html-keyboard-response","319","361334","0.0-1.0-433.0-0.0","0","0","40398","","5093","","","32","47","","","","","","","","","","","","","","","",""
"","S1","","html-keyboard-response","320","361590","0.0-1.0-434.0","0","0","40398","","null","","","null","48","","","","","","","","","","","","","","","",""
"","ISI","","html-keyboard-response","321","362600","0.0-1.0-435.0","0","0","40398","","null","","","null","48","NaN","","","","","","","","","","","","","","",""
"","S2","","html-keyboard-response","322","362854","0.0-1.0-436.0","0","0","40398","","null","","","null","48","","NaN","","","","","","","","","","","","","",""
"","response","","html-keyboard-response","323","363157","0.0-1.0-437.0-0.0","0","0","40398","","301","","","75","48","","","2","48","training","adjacent","FE","6","5","N.jpg","P.jpg","0","0","1","",""
"","feedback","","html-keyboard-response","324","364167","0.0-1.0-438.0-0.0","0","0","40398","","null","","","null","48","","","","","","","","","","","","","","","",""
"","ITI","","html-keyboard-response","325","365177","0.0-1.0-441.0","0","0","40398","","null","","","null","48","","","","","","","","","","","","","","","NaN",""
"","S1","","html-keyboard-response","326","365438","0.0-1.0-443.0","0","0","40398","","null","","","null","49","","","","","","","","","","","","","","","",""
"","ISI","","html-keyboard-response","327","366448","0.0-1.0-444.0","0","0","40398","","null","","","null","49","NaN","","","","","","","","","","","","","","",""
"","S2","","html-keyboard-response","328","366704","0.0-1.0-445.0","0","0","40398","","null","","","null","49","","NaN","","","","","","","","","","","","","",""
"","response","","html-keyboard-response","329","366908","0.0-1.0-446.0-0.0","0","0","40398","","203","","","75","49","","","2","49","training","adjacent","FE","6","5","N.jpg","P.jpg","0","0","1","",""
"","feedback","","html-keyboard-response","330","367917","0.0-1.0-447.0-0.0","0","0","40398","","null","","","null","49","","","","","","","","","","","","","","","",""
"","ITI","","html-keyboard-response","331","368927","0.0-1.0-450.0","0","0","40398","","null","","","null","49","","","","","","","","","","","","","","","NaN",""
"","S1","","html-keyboard-response","332","369183","0.0-1.0-452.0","0","0","40398","","null","","","null","50","","","","","","","","","","","","","","","",""
"","ISI","","html-keyboard-response","333","370193","0.0-1.0-453.0","0","0","40398","","null","","","null","50","NaN","","","","","","","","","","","","","","",""
"","S2","","html-keyboard-response","334","370453","0.0-1.0-454.0","0","0","40398","","null","","","null","50","","NaN","","","","","","","","","","","","","",""
"","response","","html-keyboard-response","335","370690","0.0-1.0-455.0-0.0","0","0","40398","","234","","","75","50","","","2","50","training","adjacent","GF","7","6","O.jpg","N.jpg","0","0","1","",""
"","feedback","","html-keyboard-response","336","371696","0.0-1.0-456.0-0.0","0","0","40398","","null","","","null","50","","","","","","","","","","","","","","","",""
"","ITI","","html-keyboard-response","337","372706","0.0-1.0-459.0","0","0","40398","","null","","","null","50","","","","","","","","","","","","","","","NaN",""
"","S1","","html-keyboard-response","338","372967","0.0-1.0-461.0","0","0","40398","","null","","","null","51","","","","","","","","","","","","","","","",""
"","ISI","","html-keyboard-response","339","373978","0.0-1.0-462.0","0","0","40398","","null","","","null","51","NaN","","","","","","","","","","","","","","",""
"","S2","","html-keyboard-response","340","374238","0.0-1.0-463.0","0","0","40398","","null","","","null","51","","NaN","","","","","","","","","","","","","",""
"","response","","html-keyboard-response","341","374476","0.0-1.0-464.0-0.0","0","0","40398","","235","","","75","51","","","2","51","training","adjacent","EF","5","6","P.jpg","N.jpg","0","1","0","",""
"","feedback","","html-keyboard-response","342","375486","0.0-1.0-465.0-0.0","0","0","40398","","null","","","null","51","","","","","","","","","","","","","","","",""
"","time_out","","html-keyboard-response","343","377495","0.0-1.0-467.0-0.0","0","0","40398","","null","","","null","51","","","","","","","","","","","","","","","",""
"","ITI","","html-keyboard-response","344","378505","0.0-1.0-468.0","0","0","40398","","null","","","null","51","","","","","","","","","","","","","","","NaN",""
"","S1","","html-keyboard-response","345","378766","0.0-1.0-470.0","0","0","40398","","null","","","null","52","","","","","","","","","","","","","","","",""
"","ISI","","html-keyboard-response","346","379776","0.0-1.0-471.0","0","0","40398","","null","","","null","52","NaN","","","","","","","","","","","","","","",""
"","S2","","html-keyboard-response","347","380038","0.0-1.0-472.0","0","0","40398","","null","","","null","52","","NaN","","","","","","","","","","","","","",""
"","response","","html-keyboard-response","348","380308","0.0-1.0-473.0-0.0","0","0","40398","","268","","","68","52","","","2","52","training","adjacent","DE","4","5","M.jpg","P.jpg","1","1","1","",""
"","feedback","","html-keyboard-response","349","381317","0.0-1.0-474.0-0.0","0","0","40398","","null","","","null","52","","","","","","","","","","","","","","","",""
"","ITI","","html-keyboard-response","350","382325","0.0-1.0-477.0","0","0","40398","","null","","","null","52","","","","","","","","","","","","","","","NaN",""
"","S1","","html-keyboard-response","351","382581","0.0-1.0-479.0","0","0","40398","","null","","","null","53","","","","","","","","","","","","","","","",""
"","ISI","","html-keyboard-response","352","383590","0.0-1.0-480.0","0","0","40398","","null","","","null","53","NaN","","","","","","","","","","","","","","",""
"","S2","","html-keyboard-response","353","383845","0.0-1.0-481.0","0","0","40398","","null","","","null","53","","NaN","","","","","","","","","","","","","",""
"","response","","html-keyboard-response","354","384115","0.0-1.0-482.0-0.0","0","0","40398","","268","","","68","53","","","2","53","training","adjacent","DE","4","5","M.jpg","P.jpg","1","1","1","",""
"","feedback","","html-keyboard-response","355","385128","0.0-1.0-483.0-0.0","0","0","40398","","null","","","null","53","","","","","","","","","","","","","","","",""
"","ITI","","html-keyboard-response","356","386133","0.0-1.0-486.0","0","0","40398","","null","","","null","53","","","","","","","","","","","","","","","NaN",""
"","S1","","html-keyboard-response","357","386391","0.0-1.0-488.0","0","0","40398","","null","","","null","54","","","","","","","","","","","","","","","",""
"","ISI","","html-keyboard-response","358","387398","0.0-1.0-489.0","0","0","40398","","null","","","null","54","NaN","","","","","","","","","","","","","","",""
"","S2","","html-keyboard-response","359","387654","0.0-1.0-490.0","0","0","40398","","null","","","null","54","","NaN","","","","","","","","","","","","","",""
"","response","","html-keyboard-response","360","387946","0.0-1.0-491.0-0.0","0","0","40398","","290","","","68","54","","","2","54","training","adjacent","ED","5","4","P.jpg","M.jpg","1","0","0","",""
"","feedback","","html-keyboard-response","361","388960","0.0-1.0-492.0-0.0","0","0","40398","","null","","","null","54","","","","","","","","","","","","","","","",""
"","time_out","","html-keyboard-response","362","390968","0.0-1.0-494.0-0.0","0","0","40398","","null","","","null","54","","","","","","","","","","","","","","","",""
"","ITI","","html-keyboard-response","363","391972","0.0-1.0-495.0","0","0","40398","","null","","","null","54","","","","","","","","","","","","","","","NaN",""
"","S1","","html-keyboard-response","364","392233","0.0-1.0-497.0","0","0","40398","","null","","","null","55","","","","","","","","","","","","","","","",""
"","ISI","","html-keyboard-response","365","393237","0.0-1.0-498.0","0","0","40398","","null","","","null","55","NaN","","","","","","","","","","","","","","",""
"","S2","","html-keyboard-response","366","393493","0.0-1.0-499.0","0","0","40398","","null","","","null","55","","NaN","","","","","","","","","","","","","",""
"","response","","html-keyboard-response","367","393609","0.0-1.0-500.0-0.0","0","0","40398","","114","","","68","55","","","2","55","training","adjacent","AB","1","2","L.jpg","R.jpg","1","1","1","",""
"","feedback","","html-keyboard-response","368","394612","0.0-1.0-501.0-0.0","0","0","40398","","null","","","null","55","","","","","","","","","","","","","","","",""
"","ITI","","html-keyboard-response","369","395623","0.0-1.0-504.0","0","0","40398","","null","","","null","55","","","","","","","","","","","","","","","NaN",""
"","S1","","html-keyboard-response","370","395879","0.0-1.0-506.0","0","0","40398","","null","","","null","56","","","","","","","","","","","","","","","",""
"","ISI","","html-keyboard-response","371","396889","0.0-1.0-507.0","0","0","40398","","null","","","null","56","NaN","","","","","","","","","","","","","","",""
"","S2","","html-keyboard-response","372","397150","0.0-1.0-508.0","0","0","40398","","null","","","null","56","","NaN","","","","","","","","","","","","","",""
"","response","","html-keyboard-response","373","397387","0.0-1.0-509.0-0.0","0","0","40398","","235","","","75","56","","","2","56","training","adjacent","DC","4","3","M.jpg","Q.jpg","0","0","1","",""
"","feedback","","html-keyboard-response","374","398398","0.0-1.0-510.0-0.0","0","0","40398","","null","","","null","56","","","","","","","","","","","","","","","",""
"","ITI","","html-keyboard-response","375","399408","0.0-1.0-513.0","0","0","40398","","null","","","null","56","","","","","","","","","","","","","","","NaN",""
"","S1","","html-keyboard-response","376","399669","0.0-1.0-515.0","0","0","40398","","null","","","null","57","","","","","","","","","","","","","","","",""
"","ISI","","html-keyboard-response","377","400680","0.0-1.0-516.0","0","0","40398","","null","","","null","57","NaN","","","","","","","","","","","","","","",""
"","S2","","html-keyboard-response","378","400941","0.0-1.0-517.0","0","0","40398","","null","","","null","57","","NaN","","","","","","","","","","","","","",""
"","response","","html-keyboard-response","379","401208","0.0-1.0-518.0-0.0","0","0","40398","","266","","","75","57","","","2","57","training","adjacent","BA","2","1","R.jpg","L.jpg","0","0","1","",""
"","feedback","","html-keyboard-response","380","402212","0.0-1.0-519.0-0.0","0","0","40398","","null","","","null","57","","","","","","","","","","","","","","","",""
"","ITI","","html-keyboard-response","381","403222","0.0-1.0-522.0","0","0","40398","","null","","","null","57","","","","","","","","","","","","","","","NaN",""
"","S1","","html-keyboard-response","382","403477","0.0-1.0-524.0","0","0","40398","","null","","","null","58","","","","","","","","","","","","","","","",""
"","ISI","","html-keyboard-response","383","404487","0.0-1.0-525.0","0","0","40398","","null","","","null","58","NaN","","","","","","","","","","","","","","",""
"","S2","","html-keyboard-response","384","404749","0.0-1.0-526.0","0","0","40398","","null","","","null","58","","NaN","","","","","","","","","","","","","",""
"","response","","html-keyboard-response","385","404798","0.0-1.0-527.0-0.0","0","0","40398","","47","","","68","58","","","2","58","training","adjacent","DE","4","5","M.jpg","P.jpg","1","1","1","",""
"","feedback","","html-keyboard-response","386","405805","0.0-1.0-528.0-0.0","0","0","40398","","null","","","null","58","","","","","","","","","","","","","","","",""
"","ITI","","html-keyboard-response","387","406814","0.0-1.0-531.0","0","0","40398","","null","","","null","58","","","","","","","","","","","","","","","NaN",""
"","S1","","html-keyboard-response","388","407071","0.0-1.0-533.0","0","0","40398","","null","","","null","59","","","","","","","","","","","","","","","",""
"","ISI","","html-keyboard-response","389","408080","0.0-1.0-534.0","0","0","40398","","null","","","null","59","NaN","","","","","","","","","","","","","","",""
"","S2","","html-keyboard-response","390","408342","0.0-1.0-535.0","0","0","40398","","null","","","null","59","","NaN","","","","","","","","","","","","","",""
"","response","","html-keyboard-response","391","408446","0.0-1.0-536.0-0.0","0","0","40398","","102","","","75","59","","","2","59","training","adjacent","BA","2","1","R.jpg","L.jpg","0","0","1","",""
"","feedback","","html-keyboard-response","392","409456","0.0-1.0-537.0-0.0","0","0","40398","","null","","","null","59","","","","","","","","","","","","","","","",""
"","ITI","","html-keyboard-response","393","410460","0.0-1.0-540.0","0","0","40398","","null","","","null","59","","","","","","","","","","","","","","","NaN",""
"","S1","","html-keyboard-response","394","410716","0.0-1.0-542.0","0","0","40398","","null","","","null","60","","","","","","","","","","","","","","","",""
"","ISI","","html-keyboard-response","395","411726","0.0-1.0-543.0","0","0","40398","","null","","","null","60","NaN","","","","","","","","","","","","","","",""
"","S2","","html-keyboard-response","396","411982","0.0-1.0-544.0","0","0","40398","","null","","","null","60","","NaN","","","","","","","","","","","","","",""
"","response","","html-keyboard-response","397","412184","0.0-1.0-545.0-0.0","0","0","40398","","201","","","68","60","","","2","60","training","adjacent","CD","3","4","Q.jpg","M.jpg","1","1","1","",""
"","feedback","","html-keyboard-response","398","413189","0.0-1.0-546.0-0.0","0","0","40398","","null","","","null","60","","","","","","","","","","","","","","","",""
"","ITI","","html-keyboard-response","399","414199","0.0-1.0-549.0","0","0","40398","","null","","","null","60","","","","","","","","","","","","","","","NaN",""
"","S1","","html-keyboard-response","400","414454","0.0-1.0-551.0","0","0","40398","","null","","","null","61","","","","","","","","","","","","","","","",""
"","ISI","","html-keyboard-response","401","415463","0.0-1.0-552.0","0","0","40398","","null","","","null","61","NaN","","","","","","","","","","","","","","",""
"","S2","","html-keyboard-response","402","415726","0.0-1.0-553.0","0","0","40398","","null","","","null","61","","NaN","","","","","","","","","","","","","",""
"","response","","html-keyboard-response","403","415856","0.0-1.0-554.0-0.0","0","0","40398","","128","","","75","61","","","2","61","training","adjacent","DC","4","3","M.jpg","Q.jpg","0","0","1","",""
"","feedback","","html-keyboard-response","404","416863","0.0-1.0-555.0-0.0","0","0","40398","","null","","","null","61","","","","","","","","","","","","","","","",""
"","ITI","","html-keyboard-response","405","417868","0.0-1.0-558.0","0","0","40398","","null","","","null","61","","","","","","","","","","","","","","","NaN",""
"","S1","","html-keyboard-response","406","418128","0.0-1.0-560.0","0","0","40398","","null","","","null","62","","","","","","","","","","","","","","","",""
"","ISI","","html-keyboard-response","407","419133","0.0-1.0-561.0","0","0","40398","","null","","","null","62","NaN","","","","","","","","","","","","","","",""
"","S2","","html-keyboard-response","408","419388","0.0-1.0-562.0","0","0","40398","","null","","","null","62","","NaN","","","","","","","","","","","","","",""
"","response","","html-keyboard-response","409","419480","0.0-1.0-563.0-0.0","0","0","40398","","89","","","68","62","","","2","62","training","adjacent","GF","7","6","O.jpg","N.jpg","1","0","0","",""
"","feedback","","html-keyboard-response","410","420484","0.0-1.0-564.0-0.0","0","0","40398","","null","","","null","62","","","","","","","","","","","","","","","",""
"","time_out","","html-keyboard-response","411","422494","0.0-1.0-566.0-0.0","0","0","40398","","null","","","null","62","","","","","","","","","","","","","","","",""
"","ITI","","html-keyboard-response","412","423504","0.0-1.0-567.0","0","0","40398","","null","","","null","62","","","","","","","","","","","","","","","NaN",""
"","S1","","html-keyboard-response","413","423765","0.0-1.0-569.0","0","0","40398","","null","","","null","63","","","","","","","","","","","","","","","",""
"","ISI","","html-keyboard-response","414","424775","0.0-1.0-570.0","0","0","40398","","null","","","null","63","NaN","","","","","","","","","","","","","","",""
"","S2","","html-keyboard-response","415","425036","0.0-1.0-571.0","0","0","40398","","null","","","null","63","","NaN","","","","","","","","","","","","","",""
"","response","","html-keyboard-response","416","425084","0.0-1.0-572.0-0.0","0","0","40398","","46","","","75","63","","","2","63","training","adjacent","CB","3","2","Q.jpg","R.jpg","0","0","1","",""
"","feedback","","html-keyboard-response","417","426092","0.0-1.0-573.0-0.0","0","0","40398","","null","","","null","63","","","","","","","","","","","","","","","",""
"","ITI","","html-keyboard-response","418","427102","0.0-1.0-576.0","0","0","40398","","null","","","null","63","","","","","","","","","","","","","","","NaN",""
"","S1","","html-keyboard-response","419","427357","0.0-1.0-578.0","0","0","40398","","null","","","null","64","","","","","","","","","","","","","","","",""
"","ISI","","html-keyboard-response","420","428363","0.0-1.0-579.0","0","0","40398","","null","","","null","64","NaN","","","","","","","","","","","","","","",""
"","S2","","html-keyboard-response","421","428619","0.0-1.0-580.0","0","0","40398","","null","","","null","64","","NaN","","","","","","","","","","","","","",""
"","response","","html-keyboard-response","422","428813","0.0-1.0-581.0-0.0","0","0","40398","","192","","","75","64","","","2","64","training","adjacent","BC","2","3","R.jpg","Q.jpg","0","1","0","",""
"","feedback","","html-keyboard-response","423","429819","0.0-1.0-582.0-0.0","0","0","40398","","null","","","null","64","","","","","","","","","","","","","","","",""
"","time_out","","html-keyboard-response","424","431828","0.0-1.0-584.0-0.0","0","0","40398","","null","","","null","64","","","","","","","","","","","","","","","",""
"","ITI","","html-keyboard-response","425","432837","0.0-1.0-585.0","0","0","40398","","null","","","null","64","","","","","","","","","","","","","","","NaN",""
"","S1","","html-keyboard-response","426","433094","0.0-1.0-587.0","0","0","40398","","null","","","null","65","","","","","","","","","","","","","","","",""
"","ISI","","html-keyboard-response","427","434103","0.0-1.0-588.0","0","0","40398","","null","","","null","65","NaN","","","","","","","","","","","","","","",""
"","S2","","html-keyboard-response","428","434359","0.0-1.0-589.0","0","0","40398","","254","","","68","65","","d","2","65","training","adjacent","CD","3","4","Q.jpg","M.jpg","1","1","1","",""
"","feedback","","html-keyboard-response","429","435363","0.0-1.0-591.0-0.0","0","0","40398","","null","","","null","65","","","","","","","","","","","","","","","",""
"","ITI","","html-keyboard-response","430","436375","0.0-1.0-594.0","0","0","40398","","null","","","null","65","","","","","","","","","","","","","","","NaN",""
"","S1","","html-keyboard-response","431","436636","0.0-1.0-596.0","0","0","40398","","null","","","null","66","","","","","","","","","","","","","","","",""
"","ISI","","html-keyboard-response","432","437645","0.0-1.0-597.0","0","0","40398","","null","","","null","66","NaN","","","","","","","","","","","","","","",""
"","S2","","html-keyboard-response","433","437900","0.0-1.0-598.0","0","0","40398","","null","","","null","66","","NaN","","","","","","","","","","","","","",""
"","response","","html-keyboard-response","434","438167","0.0-1.0-599.0-0.0","0","0","40398","","265","","","75","66","","","2","66","training","adjacent","ED","5","4","P.jpg","M.jpg","0","0","1","",""
"","feedback","","html-keyboard-response","435","439171","0.0-1.0-600.0-0.0","0","0","40398","","null","","","null","66","","","","","","","","","","","","","","","",""
"","ITI","","html-keyboard-response","436","440183","0.0-1.0-603.0","0","0","40398","","null","","","null","66","","","","","","","","","","","","","","","NaN",""
"","S1","","html-keyboard-response","437","440443","0.0-1.0-605.0","0","0","40398","","null","","","null","67","","","","","","","","","","","","","","","",""
"","ISI","","html-keyboard-response","438","441452","0.0-1.0-606.0","0","0","40398","","null","","","null","67","NaN","","","","","","","","","","","","","","",""
"","S2","","html-keyboard-response","439","441708","0.0-1.0-607.0","0","0","40398","","null","","","null","67","","NaN","","","","","","","","","","","","","",""
"","response","","html-keyboard-response","440","441999","0.0-1.0-608.0-0.0","0","0","40398","","289","","","75","67","","","2","67","training","adjacent","EF","5","6","P.jpg","N.jpg","0","1","0","",""
"","feedback","","html-keyboard-response","441","443003","0.0-1.0-609.0-0.0","0","0","40398","","null","","","null","67","","","","","","","","","","","","","","","",""
"","time_out","","html-keyboard-response","442","445005","0.0-1.0-611.0-0.0","0","0","40398","","null","","","null","67","","","","","","","","","","","","","","","",""
"","ITI","","html-keyboard-response","443","446012","0.0-1.0-612.0","0","0","40398","","null","","","null","67","","","","","","","","","","","","","","","NaN",""
"","S1","","html-keyboard-response","444","446271","0.0-1.0-614.0","0","0","40398","","null","","","null","68","","","","","","","","","","","","","","","",""
"","ISI","","html-keyboard-response","445","447275","0.0-1.0-615.0","0","0","40398","","null","","","null","68","NaN","","","","","","","","","","","","","","",""
"","S2","","html-keyboard-response","446","447536","0.0-1.0-616.0","0","0","40398","","null","","","null","68","","NaN","","","","","","","","","","","","","",""
"","response","","html-keyboard-response","447","447703","0.0-1.0-617.0-0.0","0","0","40398","","166","","","68","68","","","2","68","training","adjacent","BA","2","1","R.jpg","L.jpg","1","0","0","",""
"","feedback","","html-keyboard-response","448","448707","0.0-1.0-618.0-0.0","0","0","40398","","null","","","null","68","","","","","","","","","","","","","","","",""
"","time_out","","html-keyboard-response","449","450716","0.0-1.0-620.0-0.0","0","0","40398","","null","","","null","68","","","","","","","","","","","","","","","",""
"","ITI","","html-keyboard-response","450","451727","0.0-1.0-621.0","0","0","40398","","null","","","null","68","","","","","","","","","","","","","","","NaN",""
"","S1","","html-keyboard-response","451","451988","0.0-1.0-623.0","0","0","40398","","null","","","null","69","","","","","","","","","","","","","","","",""
"","ISI","","html-keyboard-response","452","452998","0.0-1.0-624.0","0","0","40398","","null","","","null","69","NaN","","","","","","","","","","","","","","",""
"","S2","","html-keyboard-response","453","453254","0.0-1.0-625.0","0","0","40398","","null","","","null","69","","NaN","","","","","","","","","","","","","",""
"","response","","html-keyboard-response","454","453553","0.0-1.0-626.0-0.0","0","0","40398","","298","","","75","69","","","2","69","training","adjacent","CD","3","4","Q.jpg","M.jpg","0","1","0","",""
"","feedback","","html-keyboard-response","455","454566","0.0-1.0-627.0-0.0","0","0","40398","","null","","","null","69","","","","","","","","","","","","","","","",""
"","time_out","","html-keyboard-response","456","456574","0.0-1.0-629.0-0.0","0","0","40398","","null","","","null","69","","","","","","","","","","","","","","","",""
"","ITI","","html-keyboard-response","457","457578","0.0-1.0-630.0","0","0","40398","","null","","","null","69","","","","","","","","","","","","","","","NaN",""
"","S1","","html-keyboard-response","458","457839","0.0-1.0-632.0","0","0","40398","","null","","","null","70","","","","","","","","","","","","","","","",""
"","ISI","","html-keyboard-response","459","458844","0.0-1.0-633.0","0","0","40398","","null","","","null","70","NaN","","","","","","","","","","","","","","",""
"","S2","","html-keyboard-response","460","459099","0.0-1.0-634.0","0","0","40398","","null","","","null","70","","NaN","","","","","","","","","","","","","",""
"","response","","html-keyboard-response","461","459349","0.0-1.0-635.0-0.0","0","0","40398","","248","","","68","70","","","2","70","training","adjacent","FG","6","7","N.jpg","O.jpg","1","1","1","",""
"","feedback","","html-keyboard-response","462","460359","0.0-1.0-636.0-0.0","0","0","40398","","null","","","null","70","","","","","","","","","","","","","","","",""
"","ITI","","html-keyboard-response","463","461362","0.0-1.0-639.0","0","0","40398","","null","","","null","70","","","","","","","","","","","","","","","NaN",""
"","S1","","html-keyboard-response","464","461619","0.0-1.0-641.0","0","0","40398","","null","","","null","71","","","","","","","","","","","","","","","",""
"","ISI","","html-keyboard-response","465","462627","0.0-1.0-642.0","0","0","40398","","null","","","null","71","NaN","","","","","","","","","","","","","","",""
"","S2","","html-keyboard-response","466","462883","0.0-1.0-643.0","0","0","40398","","null","","","null","71","","NaN","","","","","","","","","","","","","",""
"","response","","html-keyboard-response","467","463159","0.0-1.0-644.0-0.0","0","0","40398","","274","","","68","71","","","2","71","training","adjacent","CB","3","2","Q.jpg","R.jpg","1","0","0","",""
"","feedback","","html-keyboard-response","468","464167","0.0-1.0-645.0-0.0","0","0","40398","","null","","","null","71","","","","","","","","","","","","","","","",""
"","time_out","","html-keyboard-response","469","466170","0.0-1.0-647.0-0.0","0","0","40398","","null","","","null","71","","","","","","","","","","","","","","","",""
"","ITI","","html-keyboard-response","470","467179","0.0-1.0-648.0","0","0","40398","","null","","","null","71","","","","","","","","","","","","","","","NaN",""
"","S1","","html-keyboard-response","471","467435","0.0-1.0-650.0","0","0","40398","","null","","","null","72","","","","","","","","","","","","","","","",""
"","ISI","","html-keyboard-response","472","468445","0.0-1.0-651.0","0","0","40398","","null","","","null","72","NaN","","","","","","","","","","","","","","",""
"","S2","","html-keyboard-response","473","468700","0.0-1.0-652.0","0","0","40398","","null","","","null","72","","NaN","","","","","","","","","","","","","",""
"","response","","html-keyboard-response","474","468729","0.0-1.0-653.0-0.0","0","0","40398","","27","","","75","72","","","2","72","training","adjacent","EF","5","6","P.jpg","N.jpg","0","1","0","",""
"","feedback","","html-keyboard-response","475","469739","0.0-1.0-654.0-0.0","0","0","40398","","null","","","null","72","","","","","","","","","","","","","","","",""
"","time_out","","html-keyboard-response","476","471748","0.0-1.0-656.0-0.0","0","0","40398","","null","","","null","72","","","","","","","","","","","","","","","",""
"","ITI","","html-keyboard-response","477","472758","0.0-1.0-657.0","0","0","40398","","null","","","null","72","","","","","","","","","","","","","","","NaN",""
"","S1","","html-keyboard-response","478","473019","0.0-1.0-659.0","0","0","40398","","null","","","null","73","","","","","","","","","","","","","","","",""
"","ISI","","html-keyboard-response","479","474029","0.0-1.0-660.0","0","0","40398","","null","","","null","73","NaN","","","","","","","","","","","","","","",""
"","S2","","html-keyboard-response","480","474284","0.0-1.0-661.0","0","0","40398","","null","","","null","73","","NaN","","","","","","","","","","","","","",""
"","response","","html-keyboard-response","481","474389","0.0-1.0-662.0-0.0","0","0","40398","","102","","","68","73","","","2","73","training","adjacent","DC","4","3","M.jpg","Q.jpg","1","0","0","",""
"","feedback","","html-keyboard-response","482","475395","0.0-1.0-663.0-0.0","0","0","40398","","null","","","null","73","","","","","","","","","","","","","","","",""
"","time_out","","html-keyboard-response","483","477402","0.0-1.0-665.0-0.0","0","0","40398","","null","","","null","73","","","","","","","","","","","","","","","",""
"","ITI","","html-keyboard-response","484","478405","0.0-1.0-666.0","0","0","40398","","null","","","null","73","","","","","","","","","","","","","","","NaN",""
"","S1","","html-keyboard-response","485","478661","0.0-1.0-668.0","0","0","40398","","null","","","null","74","","","","","","","","","","","","","","","",""
"","ISI","","html-keyboard-response","486","479665","0.0-1.0-669.0","0","0","40398","","null","","","null","74","NaN","","","","","","","","","","","","","","",""
"","S2","","html-keyboard-response","487","479927","0.0-1.0-670.0","0","0","40398","","null","","","null","74","","NaN","","","","","","","","","","","","","",""
"","response","","html-keyboard-response","488","480171","0.0-1.0-671.0-0.0","0","0","40398","","242","","","68","74","","","2","74","training","adjacent","CB","3","2","Q.jpg","R.jpg","1","0","0","",""
"","feedback","","html-keyboard-response","489","481180","0.0-1.0-672.0-0.0","0","0","40398","","null","","","null","74","","","","","","","","","","","","","","","",""
"","time_out","","html-keyboard-response","490","483189","0.0-1.0-674.0-0.0","0","0","40398","","null","","","null","74","","","","","","","","","","","","","","","",""
"","ITI","","html-keyboard-response","491","484195","0.0-1.0-675.0","0","0","40398","","null","","","null","74","","","","","","","","","","","","","","","NaN",""
"","S1","","html-keyboard-response","492","484454","0.0-1.0-677.0","0","0","40398","","null","","","null","75","","","","","","","","","","","","","","","",""
"","ISI","","html-keyboard-response","493","485458","0.0-1.0-678.0","0","0","40398","","null","","","null","75","NaN","","","","","","","","","","","","","","",""
"","S2","","html-keyboard-response","494","485714","0.0-1.0-679.0","0","0","40398","","null","","","null","75","","NaN","","","","","","","","","","","","","",""
"","response","","html-keyboard-response","495","485947","0.0-1.0-680.0-0.0","0","0","40398","","231","","","68","75","","","2","75","training","adjacent","AB","1","2","L.jpg","R.jpg","1","1","1","",""
"","feedback","","html-keyboard-response","496","486955","0.0-1.0-681.0-0.0","0","0","40398","","null","","","null","75","","","","","","","","","","","","","","","",""
"","ITI","","html-keyboard-response","497","487963","0.0-1.0-684.0","0","0","40398","","null","","","null","75","","","","","","","","","","","","","","","NaN",""
"","S1","","html-keyboard-response","498","488218","0.0-1.0-686.0","0","0","40398","","null","","","null","76","","","","","","","","","","","","","","","",""
"","ISI","","html-keyboard-response","499","489227","0.0-1.0-687.0","0","0","40398","","null","","","null","76","NaN","","","","","","","","","","","","","","",""
"","S2","","html-keyboard-response","500","489481","0.0-1.0-688.0","0","0","40398","","null","","","null","76","","NaN","","","","","","","","","","","","","",""
"","response","","html-keyboard-response","501","489806","0.0-1.0-689.0-0.0","0","0","40398","","323","","","68","76","","","2","76","training","adjacent","EF","5","6","P.jpg","N.jpg","1","1","1","",""
"","feedback","","html-keyboard-response","502","490810","0.0-1.0-690.0-0.0","0","0","40398","","null","","","null","76","","","","","","","","","","","","","","","",""
"","ITI","","html-keyboard-response","503","491817","0.0-1.0-693.0","0","0","40398","","null","","","null","76","","","","","","","","","","","","","","","NaN",""
"","S1","","html-keyboard-response","504","492076","0.0-1.0-695.0","0","0","40398","","null","","","null","77","","","","","","","","","","","","","","","",""
"","ISI","","html-keyboard-response","505","493086","0.0-1.0-696.0","0","0","40398","","null","","","null","77","NaN","","","","","","","","","","","","","","",""
"","S2","","html-keyboard-response","506","493348","0.0-1.0-697.0","0","0","40398","","null","","","null","77","","NaN","","","","","","","","","","","","","",""
"","response","","html-keyboard-response","507","493613","0.0-1.0-698.0-0.0","0","0","40398","","263","","","68","77","","","2","77","training","adjacent","FE","6","5","N.jpg","P.jpg","1","0","0","",""
"","feedback","","html-keyboard-response","508","494619","0.0-1.0-699.0-0.0","0","0","40398","","null","","","null","77","","","","","","","","","","","","","","","",""
"","time_out","","html-keyboard-response","509","496627","0.0-1.0-701.0-0.0","0","0","40398","","null","","","null","77","","","","","","","","","","","","","","","",""
"","ITI","","html-keyboard-response","510","497637","0.0-1.0-702.0","0","0","40398","","null","","","null","77","","","","","","","","","","","","","","","NaN",""
"","S1","","html-keyboard-response","511","497897","0.0-1.0-704.0","0","0","40398","","null","","","null","78","","","","","","","","","","","","","","","",""
"","ISI","","html-keyboard-response","512","498907","0.0-1.0-705.0","0","0","40398","","null","","","null","78","NaN","","","","","","","","","","","","","","",""
"","S2","","html-keyboard-response","513","499164","0.0-1.0-706.0","0","0","40398","","null","","","null","78","","NaN","","","","","","","","","","","","","",""
"","response","","html-keyboard-response","514","499482","0.0-1.0-707.0-0.0","0","0","40398","","317","","","68","78","","","2","78","training","adjacent","AB","1","2","L.jpg","R.jpg","1","1","1","",""
"","feedback","","html-keyboard-response","515","500493","0.0-1.0-708.0-0.0","0","0","40398","","null","","","null","78","","","","","","","","","","","","","","","",""
"","ITI","","html-keyboard-response","516","501497","0.0-1.0-711.0","0","0","40398","","null","","","null","78","","","","","","","","","","","","","","","NaN",""
"","S1","","html-keyboard-response","517","501753","0.0-1.0-713.0","0","0","40398","","null","","","null","79","","","","","","","","","","","","","","","",""
"","ISI","","html-keyboard-response","518","502763","0.0-1.0-714.0","0","0","40398","","null","","","null","79","NaN","","","","","","","","","","","","","","",""
"","S2","","html-keyboard-response","519","503018","0.0-1.0-715.0","0","0","40398","","null","","","null","79","","NaN","","","","","","","","","","","","","",""
"","response","","html-keyboard-response","520","503383","0.0-1.0-716.0-0.0","0","0","40398","","363","","","68","79","","","2","79","training","adjacent","AB","1","2","L.jpg","R.jpg","1","1","1","",""
"","feedback","","html-keyboard-response","521","504393","0.0-1.0-717.0-0.0","0","0","40398","","null","","","null","79","","","","","","","","","","","","","","","",""
"","ITI","","html-keyboard-response","522","505404","0.0-1.0-720.0","0","0","40398","","null","","","null","79","","","","","","","","","","","","","","","NaN",""
"","S1","","html-keyboard-response","523","505659","0.0-1.0-722.0","0","0","40398","","null","","","null","80","","","","","","","","","","","","","","","",""
"","ISI","","html-keyboard-response","524","506669","0.0-1.0-723.0","0","0","40398","","null","","","null","80","NaN","","","","","","","","","","","","","","",""
"","S2","","html-keyboard-response","525","506931","0.0-1.0-724.0","0","0","40398","","null","","","null","80","","NaN","","","","","","","","","","","","","",""
"","response","","html-keyboard-response","526","507647","0.0-1.0-725.0-0.0","0","0","40398","","714","","","75","80","","","2","80","training","adjacent","BA","2","1","R.jpg","L.jpg","0","0","1","",""
"","feedback","","html-keyboard-response","527","508660","0.0-1.0-726.0-0.0","0","0","40398","","null","","","null","80","","","","","","","","","","","","","","","",""
"","ITI","","html-keyboard-response","528","509665","0.0-1.0-729.0","0","0","40398","","null","","","null","80","","","","","","","","","","","","","","","NaN",""
"","S1","","html-keyboard-response","529","509926","0.0-1.0-731.0","0","0","40398","","null","","","null","81","","","","","","","","","","","","","","","",""
"","ISI","","html-keyboard-response","530","510930","0.0-1.0-732.0","0","0","40398","","null","","","null","81","NaN","","","","","","","","","","","","","","",""
"","S2","","html-keyboard-response","531","511187","0.0-1.0-733.0","0","0","40398","","null","","","null","81","","NaN","","","","","","","","","","","","","",""
"","response","","html-keyboard-response","532","511598","0.0-1.0-734.0-0.0","0","0","40398","","410","","","68","81","","","2","81","training","adjacent","DC","4","3","M.jpg","Q.jpg","1","0","0","",""
"","feedback","","html-keyboard-response","533","512601","0.0-1.0-735.0-0.0","0","0","40398","","null","","","null","81","","","","","","","","","","","","","","","",""
"","time_out","","html-keyboard-response","534","514604","0.0-1.0-737.0-0.0","0","0","40398","","null","","","null","81","","","","","","","","","","","","","","","",""
"","ITI","","html-keyboard-response","535","515609","0.0-1.0-738.0","0","0","40398","","null","","","null","81","","","","","","","","","","","","","","","NaN",""
"","S1","","html-keyboard-response","536","515864","0.0-1.0-740.0","0","0","40398","","null","","","null","82","","","","","","","","","","","","","","","",""
"","ISI","","html-keyboard-response","537","516875","0.0-1.0-741.0","0","0","40398","","null","","","null","82","NaN","","","","","","","","","","","","","","",""
"","S2","","html-keyboard-response","538","517130","0.0-1.0-742.0","0","0","40398","","null","","","null","82","","NaN","","","","","","","","","","","","","",""
"","response","","html-keyboard-response","539","517621","0.0-1.0-743.0-0.0","0","0","40398","","490","","","75","82","","","2","82","training","adjacent","ED","5","4","P.jpg","M.jpg","0","0","1","",""
"","feedback","","html-keyboard-response","540","518627","0.0-1.0-744.0-0.0","0","0","40398","","null","","","null","82","","","","","","","","","","","","","","","",""
"","ITI","","html-keyboard-response","541","519637","0.0-1.0-747.0","0","0","40398","","null","","","null","82","","","","","","","","","","","","","","","NaN",""
"","S1","","html-keyboard-response","542","519899","0.0-1.0-749.0","0","0","40398","","null","","","null","83","","","","","","","","","","","","","","","",""
"","ISI","","html-keyboard-response","543","520905","0.0-1.0-750.0","0","0","40398","","null","","","null","83","NaN","","","","","","","","","","","","","","",""
"","S2","","html-keyboard-response","544","521164","0.0-1.0-751.0","0","0","40398","","null","","","null","83","","NaN","","","","","","","","","","","","","",""
"","response","","html-keyboard-response","545","521497","0.0-1.0-752.0-0.0","0","0","40398","","330","","","68","83","","","2","83","training","adjacent","CD","3","4","Q.jpg","M.jpg","1","1","1","",""
"","feedback","","html-keyboard-response","546","522505","0.0-1.0-753.0-0.0","0","0","40398","","null","","","null","83","","","","","","","","","","","","","","","",""
"","ITI","","html-keyboard-response","547","523515","0.0-1.0-756.0","0","0","40398","","null","","","null","83","","","","","","","","","","","","","","","NaN",""
"","S1","","html-keyboard-response","548","523771","0.0-1.0-758.0","0","0","40398","","null","","","null","84","","","","","","","","","","","","","","","",""
"","ISI","","html-keyboard-response","549","524781","0.0-1.0-759.0","0","0","40398","","null","","","null","84","NaN","","","","","","","","","","","","","","",""
"","S2","","html-keyboard-response","550","525042","0.0-1.0-760.0","0","0","40398","","null","","","null","84","","NaN","","","","","","","","","","","","","",""
"","response","","html-keyboard-response","551","525419","0.0-1.0-761.0-0.0","0","0","40398","","374","","","75","84","","","2","84","training","adjacent","BC","2","3","R.jpg","Q.jpg","0","1","0","",""
"","feedback","","html-keyboard-response","552","526429","0.0-1.0-762.0-0.0","0","0","40398","","null","","","null","84","","","","","","","","","","","","","","","",""
"","time_out","","html-keyboard-response","553","528432","0.0-1.0-764.0-0.0","0","0","40398","","null","","","null","84","","","","","","","","","","","","","","","",""
"","ITI","","html-keyboard-response","554","529442","0.0-1.0-765.0","0","0","40398","","null","","","null","84","","","","","","","","","","","","","","","NaN",""
"","S1","","html-keyboard-response","555","529697","0.0-1.0-767.0","0","0","40398","","null","","","null","85","","","","","","","","","","","","","","","",""
"","ISI","","html-keyboard-response","556","530701","0.0-1.0-768.0","0","0","40398","","null","","","null","85","NaN","","","","","","","","","","","","","","",""
"","S2","","html-keyboard-response","557","530963","0.0-1.0-769.0","0","0","40398","","null","","","null","85","","NaN","","","","","","","","","","","","","",""
"","response","","html-keyboard-response","558","531356","0.0-1.0-770.0-0.0","0","0","40398","","392","","","75","85","","","2","85","training","adjacent","FE","6","5","N.jpg","P.jpg","0","0","1","",""
"","feedback","","html-keyboard-response","559","532362","0.0-1.0-771.0-0.0","0","0","40398","","null","","","null","85","","","","","","","","","","","","","","","",""
"","ITI","","html-keyboard-response","560","533372","0.0-1.0-774.0","0","0","40398","","null","","","null","85","","","","","","","","","","","","","","","NaN",""
"","S1","","html-keyboard-response","561","533632","0.0-1.0-776.0","0","0","40398","","null","","","null","86","","","","","","","","","","","","","","","",""
"","ISI","","html-keyboard-response","562","534643","0.0-1.0-777.0","0","0","40398","","null","","","null","86","NaN","","","","","","","","","","","","","","",""
"","S2","","html-keyboard-response","563","534898","0.0-1.0-778.0","0","0","40398","","null","","","null","86","","NaN","","","","","","","","","","","","","",""
"","response","","html-keyboard-response","564","535426","0.0-1.0-779.0-0.0","0","0","40398","","525","","","75","86","","","2","86","training","adjacent","GF","7","6","O.jpg","N.jpg","0","0","1","",""
"","feedback","","html-keyboard-response","565","536437","0.0-1.0-780.0-0.0","0","0","40398","","null","","","null","86","","","","","","","","","","","","","","","",""
"","ITI","","html-keyboard-response","566","537441","0.0-1.0-783.0","0","0","40398","","null","","","null","86","","","","","","","","","","","","","","","NaN",""
"","S1","","html-keyboard-response","567","537696","0.0-1.0-785.0","0","0","40398","","null","","","null","87","","","","","","","","","","","","","","","",""
"","ISI","","html-keyboard-response","568","538700","0.0-1.0-786.0","0","0","40398","","null","","","null","87","NaN","","","","","","","","","","","","","","",""
"","S2","","html-keyboard-response","569","538962","0.0-1.0-787.0","0","0","40398","","null","","","null","87","","NaN","","","","","","","","","","","","","",""
"","response","","html-keyboard-response","570","539254","0.0-1.0-788.0-0.0","0","0","40398","","290","","","68","87","","","2","87","training","adjacent","CB","3","2","Q.jpg","R.jpg","1","0","0","",""
"","feedback","","html-keyboard-response","571","540267","0.0-1.0-789.0-0.0","0","0","40398","","null","","","null","87","","","","","","","","","","","","","","","",""
"","time_out","","html-keyboard-response","572","542276","0.0-1.0-791.0-0.0","0","0","40398","","null","","","null","87","","","","","","","","","","","","","","","",""
"","ITI","","html-keyboard-response","573","543281","0.0-1.0-792.0","0","0","40398","","null","","","null","87","","","","","","","","","","","","","","","NaN",""
"","S1","","html-keyboard-response","574","543536","0.0-1.0-794.0","0","0","40398","","null","","","null","88","","","","","","","","","","","","","","","",""
"","ISI","","html-keyboard-response","575","544546","0.0-1.0-795.0","0","0","40398","","null","","","null","88","NaN","","","","","","","","","","","","","","",""
"","S2","","html-keyboard-response","576","544802","0.0-1.0-796.0","0","0","40398","","null","","","null","88","","NaN","","","","","","","","","","","","","",""
"","response","","html-keyboard-response","577","545308","0.0-1.0-797.0-0.0","0","0","40398","","504","","","68","88","","","2","88","training","adjacent","FG","6","7","N.jpg","O.jpg","1","1","1","",""
"","feedback","","html-keyboard-response","578","546313","0.0-1.0-798.0-0.0","0","0","40398","","null","","","null","88","","","","","","","","","","","","","","","",""
"","ITI","","html-keyboard-response","579","547321","0.0-1.0-801.0","0","0","40398","","null","","","null","88","","","","","","","","","","","","","","","NaN",""
"","S1","","html-keyboard-response","580","547577","0.0-1.0-803.0","0","0","40398","","null","","","null","89","","","","","","","","","","","","","","","",""
"","ISI","","html-keyboard-response","581","548586","0.0-1.0-804.0","0","0","40398","","null","","","null","89","NaN","","","","","","","","","","","","","","",""
