"success","ttype","start_time","trial_type","trial_index","time_elapsed","internal_node_id","warning","missed_checkup","PID","view_history","rt","responses","repeat_instructions","key_press","index","keypress_isi","keypress_S2","block","trial_num","phase","group_type","pair_type","S1_stim","S2_stim","S1_img","S2_img","S1_chosen","S1_higher","accuracy","keypress_iti","total_bonus_tally"
"true","full_screen","d03032023hr1954","fullscreen","0","53477","0.0-0.0","0","0","24025","","","","","","","","","","","","","","","","","","","","","",""
"","instructions","","instructions","1","123605","0.0-1.0-0.0-0.0","0","0","24025","[{""page_index"":0,""viewing_time"":16267},{""page_index"":1,""viewing_time"":40578},{""page_index"":2,""viewing_time"":11820},{""page_index"":3,""viewing_time"":1460}]","70126","","","","","","","","","","","","","","","","","","","",""
"","comprehension_check","","survey-multi-choice","2","160562","0.0-1.0-0.0-1.0","0","0","24025","","36952","{""Q0"":""True"",""Q1"":""K"",""Q2"":""Once the second image appears and while the screen 'MAKE A CHOICE' is shown"",""Q3"":""Green mark"",""Q4"":""either D or K""}","0","","","","","","","","","","","","","","","","","",""
"","start_exp","","html-keyboard-response","3","162372","0.0-1.0-1.0","0","0","24025","","1803","","","32","","","","","","","","","","","","","","","","",""
"","S1","","html-keyboard-response","4","162630","0.0-1.0-2.0","0","0","24025","","null","","","null","0","","","","","","","","","","","","","","","",""
"","ISI","","html-keyboard-response","5","163137","0.0-1.0-3.0","0","0","24025","","null","","","null","0","NaN","","","","","","","","","","","","","","",""
"","S2","","html-keyboard-response","6","163391","0.0-1.0-4.0","0","0","24025","","null","","","null","0","","NaN","","","","","","","","","","","","","",""
"","response","","html-keyboard-response","7","164760","0.0-1.0-5.0-0.0","0","0","24025","","1363","","","75","0","","","1","0","training","adjacent","AB","1","2","Q.jpg","O.jpg","1","1","1","",""
"","feedback","","html-keyboard-response","8","165765","0.0-1.0-6.0-0.0","0","0","24025","","null","","","null","0","","","","","","","","","","","","","","","",""
"","ITI","","html-keyboard-response","9","166771","0.0-1.0-9.0","0","0","24025","","null","","","null","0","","","","","","","","","","","","","","","NaN",""
"","S1","","html-keyboard-response","10","167026","0.0-1.0-11.0","0","0","24025","","null","","","null","1","","","","","","","","","","","","","","","",""
"","ISI","","html-keyboard-response","11","167531","0.0-1.0-12.0","0","0","24025","","null","","","null","1","NaN","","","","","","","","","","","","","","",""
"","S2","","html-keyboard-response","12","167786","0.0-1.0-13.0","0","0","24025","","null","","","null","1","","NaN","","","","","","","","","","","","","",""
"","response","","html-keyboard-response","13","168199","0.0-1.0-14.0-0.0","0","0","24025","","409","","","68","1","","","1","1","training","adjacent","DC","4","3","P.jpg","N.jpg","0","0","1","",""
"","feedback","","html-keyboard-response","14","169203","0.0-1.0-15.0-0.0","0","0","24025","","null","","","null","1","","","","","","","","","","","","","","","",""
"","ITI","","html-keyboard-response","15","170207","0.0-1.0-18.0","0","0","24025","","null","","","null","1","","","","","","","","","","","","","","","NaN",""
"","S1","","html-keyboard-response","16","170461","0.0-1.0-20.0","0","0","24025","","null","","","null","2","","","","","","","","","","","","","","","",""
"","ISI","","html-keyboard-response","17","170965","0.0-1.0-21.0","0","0","24025","","null","","","null","2","NaN","","","","","","","","","","","","","","",""
"","S2","","html-keyboard-response","18","171221","0.0-1.0-22.0","0","0","24025","","null","","","null","2","","NaN","","","","","","","","","","","","","",""
"","response","","html-keyboard-response","19","171341","0.0-1.0-23.0-0.0","0","0","24025","","116","","","75","2","","","1","2","training","adjacent","DC","4","3","P.jpg","N.jpg","1","0","0","",""
"","feedback","","html-keyboard-response","20","172346","0.0-1.0-24.0-0.0","0","0","24025","","null","","","null","2","","","","","","","","","","","","","","","",""
"","time_out","","html-keyboard-response","21","174352","0.0-1.0-26.0-0.0","0","0","24025","","null","","","null","2","","","","","","","","","","","","","","","",""
"","ITI","","html-keyboard-response","22","175356","0.0-1.0-27.0","0","0","24025","","22","","","75","2","","","","","","","","","","","","","","","k",""
"","S1","","html-keyboard-response","23","175614","0.0-1.0-29.0","0","0","24025","","null","","","null","3","","","","","","","","","","","","","","","",""
"","ISI","","html-keyboard-response","24","176119","0.0-1.0-30.0","0","0","24025","","null","","","null","3","NaN","","","","","","","","","","","","","","",""
"","S2","","html-keyboard-response","25","176374","0.0-1.0-31.0","0","0","24025","","null","","","null","3","","NaN","","","","","","","","","","","","","",""
"","response","","html-keyboard-response","26","176810","0.0-1.0-32.0-0.0","0","0","24025","","433","","","75","3","","","1","3","training","adjacent","EF","5","6","L.jpg","M.jpg","1","1","1","",""
"","feedback","","html-keyboard-response","27","177815","0.0-1.0-33.0-0.0","0","0","24025","","null","","","null","3","","","","","","","","","","","","","","","",""
"","ITI","","html-keyboard-response","28","178828","0.0-1.0-36.0","0","0","24025","","null","","","null","3","","","","","","","","","","","","","","","NaN",""
"","S1","","html-keyboard-response","29","179082","0.0-1.0-38.0","0","0","24025","","null","","","null","4","","","","","","","","","","","","","","","",""
"","ISI","","html-keyboard-response","30","179587","0.0-1.0-39.0","0","0","24025","","null","","","null","4","NaN","","","","","","","","","","","","","","",""
"","S2","","html-keyboard-response","31","179840","0.0-1.0-40.0","0","0","24025","","null","","","null","4","","NaN","","","","","","","","","","","","","",""
"","response","","html-keyboard-response","32","180811","0.0-1.0-41.0-0.0","0","0","24025","","968","","","68","4","","","1","4","training","adjacent","AB","1","2","Q.jpg","O.jpg","0","1","0","",""
"","feedback","","html-keyboard-response","33","181817","0.0-1.0-42.0-0.0","0","0","24025","","null","","","null","4","","","","","","","","","","","","","","","",""
"","time_out","","html-keyboard-response","34","183823","0.0-1.0-44.0-0.0","0","0","24025","","null","","","null","4","","","","","","","","","","","","","","","",""
"","ITI","","html-keyboard-response","35","184828","0.0-1.0-45.0","0","0","24025","","null","","","null","4","","","","","","","","","","","","","","","NaN",""
"","S1","","html-keyboard-response","36","185083","0.0-1.0-47.0","0","0","24025","","null","","","null","5","","","","","","","","","","","","","","","",""
"","ISI","","html-keyboard-response","37","185587","0.0-1.0-48.0","0","0","24025","","null","","","null","5","NaN","","","","","","","","","","","","","","",""
"","S2","","html-keyboard-response","38","185843","0.0-1.0-49.0","0","0","24025","","null","","","null","5","","NaN","","","","","","","","","","","","","",""
"","response","","html-keyboard-response","39","186174","0.0-1.0-50.0-0.0","0","0","24025","","327","","","75","5","","","1","5","training","adjacent","CD","3","4","N.jpg","P.jpg","1","1","1","",""
"","feedback","","html-keyboard-response","40","187179","0.0-1.0-51.0-0.0","0","0","24025","","null","","","null","5","","","","","","","","","","","","","","","",""
"","ITI","","html-keyboard-response","41","188184","0.0-1.0-54.0","0","0","24025","","null","","","null","5","","","","","","","","","","","","","","","NaN",""
"","S1","","html-keyboard-response","42","188438","0.0-1.0-56.0","0","0","24025","","null","","","null","6","","","","","","","","","","","","","","","",""
"","ISI","","html-keyboard-response","43","188942","0.0-1.0-57.0","0","0","24025","","null","","","null","6","NaN","","","","","","","","","","","","","","",""
"","S2","","html-keyboard-response","44","189196","0.0-1.0-58.0","0","0","24025","","null","","","null","6","","NaN","","","","","","","","","","","","","",""
"","response","","html-keyboard-response","45","190134","0.0-1.0-59.0-0.0","0","0","24025","","933","","","75","6","","","1","6","training","adjacent","GF","7","6","R.jpg","M.jpg","1","0","0","",""
"","feedback","","html-keyboard-response","46","191139","0.0-1.0-60.0-0.0","0","0","24025","","null","","","null","6","","","","","","","","","","","","","","","",""
"","time_out","","html-keyboard-response","47","193143","0.0-1.0-62.0-0.0","0","0","24025","","null","","","null","6","","","","","","","","","","","","","","","",""
"","ITI","","html-keyboard-response","48","194150","0.0-1.0-63.0","0","0","24025","","554","","","68","6","","","","","","","","","","","","","","","d",""
"","S1","","html-keyboard-response","49","194405","0.0-1.0-65.0","0","0","24025","","null","","","null","7","","","","","","","","","","","","","","","",""
"","ISI","","html-keyboard-response","50","194907","0.0-1.0-66.0","0","0","24025","","null","","","null","7","NaN","","","","","","","","","","","","","","",""
"","S2","","html-keyboard-response","51","195166","0.0-1.0-67.0","0","0","24025","","null","","","null","7","","NaN","","","","","","","","","","","","","",""
"","response","","html-keyboard-response","52","195481","0.0-1.0-68.0-0.0","0","0","24025","","311","","","68","7","","","1","7","training","adjacent","CD","3","4","N.jpg","P.jpg","0","1","0","",""
"","feedback","","html-keyboard-response","53","196486","0.0-1.0-69.0-0.0","0","0","24025","","null","","","null","7","","","","","","","","","","","","","","","",""
"","time_out","","html-keyboard-response","54","198489","0.0-1.0-71.0-0.0","0","0","24025","","null","","","null","7","","","","","","","","","","","","","","","",""
"","ITI","","html-keyboard-response","55","199494","0.0-1.0-72.0","0","0","24025","","null","","","null","7","","","","","","","","","","","","","","","NaN",""
"","S1","","html-keyboard-response","56","199749","0.0-1.0-74.0","0","0","24025","","null","","","null","8","","","","","","","","","","","","","","","",""
"","ISI","","html-keyboard-response","57","200253","0.0-1.0-75.0","0","0","24025","","null","","","null","8","NaN","","","","","","","","","","","","","","",""
"","S2","","html-keyboard-response","58","200506","0.0-1.0-76.0","0","0","24025","","null","","","null","8","","NaN","","","","","","","","","","","","","",""
"","response","","html-keyboard-response","59","202260","0.0-1.0-77.0-0.0","0","0","24025","","null","","","null","8","","","1","8","training","adjacent","EF","5","6","L.jpg","M.jpg","NaN","1","0","",""
"","too_slow_prompt","","html-keyboard-response","60","203265","0.0-1.0-79.0-0.0","1","0","24025","","null","","","null","","","","","","","","","","","","","","","","",""
"","time_out","","html-keyboard-response","61","205269","0.0-1.0-80.0-0.0","0","0","24025","","null","","","null","8","","","","","","","","","","","","","","","",""
"","ITI","","html-keyboard-response","62","206274","0.0-1.0-81.0","0","0","24025","","null","","","null","8","","","","","","","","","","","","","","","NaN",""
"","S1","","html-keyboard-response","63","206530","0.0-1.0-83.0","0","0","24025","","null","","","null","9","","","","","","","","","","","","","","","",""
"","ISI","","html-keyboard-response","64","207033","0.0-1.0-84.0","0","0","24025","","null","","","null","9","NaN","","","","","","","","","","","","","","",""
"","S2","","html-keyboard-response","65","207288","0.0-1.0-85.0","0","0","24025","","null","","","null","9","","NaN","","","","","","","","","","","","","",""
"","response","","html-keyboard-response","66","207715","0.0-1.0-86.0-0.0","0","0","24025","","423","","","75","9","","","1","9","training","adjacent","DE","4","5","P.jpg","L.jpg","1","1","1","",""
"","feedback","","html-keyboard-response","67","208720","0.0-1.0-87.0-0.0","0","0","24025","","null","","","null","9","","","","","","","","","","","","","","","",""
"","ITI","","html-keyboard-response","68","209725","0.0-1.0-90.0","0","0","24025","","null","","","null","9","","","","","","","","","","","","","","","NaN",""
"","S1","","html-keyboard-response","69","209979","0.0-1.0-92.0","0","0","24025","","null","","","null","10","","","","","","","","","","","","","","","",""
"","ISI","","html-keyboard-response","70","210484","0.0-1.0-93.0","0","0","24025","","null","","","null","10","NaN","","","","","","","","","","","","","","",""
"","S2","","html-keyboard-response","71","210739","0.0-1.0-94.0","0","0","24025","","null","","","null","10","","NaN","","","","","","","","","","","","","",""
"","response","","html-keyboard-response","72","211736","0.0-1.0-95.0-0.0","0","0","24025","","994","","","75","10","","","1","10","training","adjacent","GF","7","6","R.jpg","M.jpg","1","0","0","",""
"","feedback","","html-keyboard-response","73","212742","0.0-1.0-96.0-0.0","0","0","24025","","null","","","null","10","","","","","","","","","","","","","","","",""
"","time_out","","html-keyboard-response","74","214748","0.0-1.0-98.0-0.0","0","0","24025","","null","","","null","10","","","","","","","","","","","","","","","",""
"","ITI","","html-keyboard-response","75","215753","0.0-1.0-99.0","0","0","24025","","null","","","null","10","","","","","","","","","","","","","","","NaN",""
"","S1","","html-keyboard-response","76","216007","0.0-1.0-101.0","0","0","24025","","null","","","null","11","","","","","","","","","","","","","","","",""
"","ISI","","html-keyboard-response","77","216511","0.0-1.0-102.0","0","0","24025","","null","","","null","11","NaN","","","","","","","","","","","","","","",""
"","S2","","html-keyboard-response","78","216765","0.0-1.0-103.0","0","0","24025","","null","","","null","11","","NaN","","","","","","","","","","","","","",""
"","response","","html-keyboard-response","79","217331","0.0-1.0-104.0-0.0","0","0","24025","","562","","","68","11","","","1","11","training","adjacent","FE","6","5","M.jpg","L.jpg","0","0","1","",""
"","feedback","","html-keyboard-response","80","218336","0.0-1.0-105.0-0.0","0","0","24025","","null","","","null","11","","","","","","","","","","","","","","","",""
"","ITI","","html-keyboard-response","81","219341","0.0-1.0-108.0","0","0","24025","","null","","","null","11","","","","","","","","","","","","","","","NaN",""
"","S1","","html-keyboard-response","82","219594","0.0-1.0-110.0","0","0","24025","","null","","","null","12","","","","","","","","","","","","","","","",""
"","ISI","","html-keyboard-response","83","220096","0.0-1.0-111.0","0","0","24025","","null","","","null","12","NaN","","","","","","","","","","","","","","",""
"","S2","","html-keyboard-response","84","220350","0.0-1.0-112.0","0","0","24025","","null","","","null","12","","NaN","","","","","","","","","","","","","",""
"","response","","html-keyboard-response","85","222117","0.0-1.0-113.0-0.0","0","0","24025","","null","","","null","12","","","1","12","training","adjacent","BA","2","1","O.jpg","Q.jpg","NaN","0","0","",""
"","too_slow_prompt","","html-keyboard-response","86","223123","0.0-1.0-115.0-0.0","1","0","24025","","null","","","null","","","","","","","","","","","","","","","","",""
"","time_out","","html-keyboard-response","87","225127","0.0-1.0-116.0-0.0","0","0","24025","","null","","","null","12","","","","","","","","","","","","","","","",""
"","ITI","","html-keyboard-response","88","226131","0.0-1.0-117.0","0","0","24025","","null","","","null","12","","","","","","","","","","","","","","","NaN",""
"","S1","","html-keyboard-response","89","226388","0.0-1.0-119.0","0","0","24025","","null","","","null","13","","","","","","","","","","","","","","","",""
"","ISI","","html-keyboard-response","90","226893","0.0-1.0-120.0","0","0","24025","","null","","","null","13","NaN","","","","","","","","","","","","","","",""
"","S2","","html-keyboard-response","91","227151","0.0-1.0-121.0","0","0","24025","","null","","","null","13","","NaN","","","","","","","","","","","","","",""
"","response","","html-keyboard-response","92","228090","0.0-1.0-122.0-0.0","0","0","24025","","936","","","75","13","","","1","13","training","adjacent","CB","3","2","N.jpg","O.jpg","1","0","0","",""
"","feedback","","html-keyboard-response","93","229095","0.0-1.0-123.0-0.0","0","0","24025","","null","","","null","13","","","","","","","","","","","","","","","",""
"","time_out","","html-keyboard-response","94","231099","0.0-1.0-125.0-0.0","0","0","24025","","null","","","null","13","","","","","","","","","","","","","","","",""
"","ITI","","html-keyboard-response","95","232104","0.0-1.0-126.0","0","0","24025","","null","","","null","13","","","","","","","","","","","","","","","NaN",""
"","S1","","html-keyboard-response","96","232362","0.0-1.0-128.0","0","0","24025","","null","","","null","14","","","","","","","","","","","","","","","",""
"","ISI","","html-keyboard-response","97","232865","0.0-1.0-129.0","0","0","24025","","null","","","null","14","NaN","","","","","","","","","","","","","","",""
"","S2","","html-keyboard-response","98","233126","0.0-1.0-130.0","0","0","24025","","null","","","null","14","","NaN","","","","","","","","","","","","","",""
"","response","","html-keyboard-response","99","233695","0.0-1.0-131.0-0.0","0","0","24025","","566","","","68","14","","","1","14","training","adjacent","DE","4","5","P.jpg","L.jpg","0","1","0","",""
"","feedback","","html-keyboard-response","100","234700","0.0-1.0-132.0-0.0","0","0","24025","","null","","","null","14","","","","","","","","","","","","","","","",""
"","time_out","","html-keyboard-response","101","236703","0.0-1.0-134.0-0.0","0","0","24025","","null","","","null","14","","","","","","","","","","","","","","","",""
"","ITI","","html-keyboard-response","102","237708","0.0-1.0-135.0","0","0","24025","","641","","","68","14","","","","","","","","","","","","","","","d",""
"","S1","","html-keyboard-response","103","237965","0.0-1.0-137.0","0","0","24025","","null","","","null","15","","","","","","","","","","","","","","","",""
"","ISI","","html-keyboard-response","104","238469","0.0-1.0-138.0","0","0","24025","","null","","","null","15","NaN","","","","","","","","","","","","","","",""
"","S2","","html-keyboard-response","105","238723","0.0-1.0-139.0","0","0","24025","","null","","","null","15","","NaN","","","","","","","","","","","","","",""
"","response","","html-keyboard-response","106","239084","0.0-1.0-140.0-0.0","0","0","24025","","356","","","68","15","","","1","15","training","adjacent","CB","3","2","N.jpg","O.jpg","0","0","1","",""
"","feedback","","html-keyboard-response","107","240089","0.0-1.0-141.0-0.0","0","0","24025","","null","","","null","15","","","","","","","","","","","","","","","",""
"","ITI","","html-keyboard-response","108","241093","0.0-1.0-144.0","0","0","24025","","null","","","null","15","","","","","","","","","","","","","","","NaN",""
"","S1","","html-keyboard-response","109","241348","0.0-1.0-146.0","0","0","24025","","null","","","null","16","","","","","","","","","","","","","","","",""
"","ISI","","html-keyboard-response","110","241852","0.0-1.0-147.0","0","0","24025","","null","","","null","16","NaN","","","","","","","","","","","","","","",""
"","S2","","html-keyboard-response","111","242107","0.0-1.0-148.0","0","0","24025","","null","","","null","16","","NaN","","","","","","","","","","","","","",""
"","response","","html-keyboard-response","112","243284","0.0-1.0-149.0-0.0","0","0","24025","","1173","","","75","16","","","1","16","training","adjacent","GF","7","6","R.jpg","M.jpg","1","0","0","",""
"","feedback","","html-keyboard-response","113","244292","0.0-1.0-150.0-0.0","0","0","24025","","null","","","null","16","","","","","","","","","","","","","","","",""
"","time_out","","html-keyboard-response","114","246298","0.0-1.0-152.0-0.0","0","0","24025","","null","","","null","16","","","","","","","","","","","","","","","",""
"","ITI","","html-keyboard-response","115","247300","0.0-1.0-153.0","0","0","24025","","null","","","null","16","","","","","","","","","","","","","","","NaN",""
"","S1","","html-keyboard-response","116","247553","0.0-1.0-155.0","0","0","24025","","null","","","null","17","","","","","","","","","","","","","","","",""
"","ISI","","html-keyboard-response","117","248057","0.0-1.0-156.0","0","0","24025","","null","","","null","17","NaN","","","","","","","","","","","","","","",""
"","S2","","html-keyboard-response","118","248311","0.0-1.0-157.0","0","0","24025","","null","","","null","17","","NaN","","","","","","","","","","","","","",""
"","response","","html-keyboard-response","119","249755","0.0-1.0-158.0-0.0","0","0","24025","","1441","","","68","17","","","1","17","training","adjacent","DE","4","5","P.jpg","L.jpg","0","1","0","",""
"","feedback","","html-keyboard-response","120","250761","0.0-1.0-159.0-0.0","0","0","24025","","null","","","null","17","","","","","","","","","","","","","","","",""
"","time_out","","html-keyboard-response","121","252764","0.0-1.0-161.0-0.0","0","0","24025","","null","","","null","17","","","","","","","","","","","","","","","",""
"","ITI","","html-keyboard-response","122","253770","0.0-1.0-162.0","0","0","24025","","null","","","null","17","","","","","","","","","","","","","","","NaN",""
"","S1","","html-keyboard-response","123","254024","0.0-1.0-164.0","0","0","24025","","null","","","null","18","","","","","","","","","","","","","","","",""
"","ISI","","html-keyboard-response","124","254528","0.0-1.0-165.0","0","0","24025","","null","","","null","18","NaN","","","","","","","","","","","","","","",""
"","S2","","html-keyboard-response","125","254784","0.0-1.0-166.0","0","0","24025","","null","","","null","18","","NaN","","","","","","","","","","","","","",""
"","response","","html-keyboard-response","126","255457","0.0-1.0-167.0-0.0","0","0","24025","","670","","","75","18","","","1","18","training","adjacent","BA","2","1","O.jpg","Q.jpg","1","0","0","",""
"","feedback","","html-keyboard-response","127","256462","0.0-1.0-168.0-0.0","0","0","24025","","null","","","null","18","","","","","","","","","","","","","","","",""
"","time_out","","html-keyboard-response","128","258466","0.0-1.0-170.0-0.0","0","0","24025","","null","","","null","18","","","","","","","","","","","","","","","",""
"","ITI","","html-keyboard-response","129","259470","0.0-1.0-171.0","0","0","24025","","null","","","null","18","","","","","","","","","","","","","","","NaN",""
"","S1","","html-keyboard-response","130","259726","0.0-1.0-173.0","0","0","24025","","null","","","null","19","","","","","","","","","","","","","","","",""
"","ISI","","html-keyboard-response","131","260229","0.0-1.0-174.0","0","0","24025","","null","","","null","19","NaN","","","","","","","","","","","","","","",""
"","S2","","html-keyboard-response","132","260484","0.0-1.0-175.0","0","0","24025","","null","","","null","19","","NaN","","","","","","","","","","","","","",""
"","response","","html-keyboard-response","133","262241","0.0-1.0-176.0-0.0","0","0","24025","","null","","","null","19","","","1","19","training","adjacent","FE","6","5","M.jpg","L.jpg","NaN","0","0","",""
"","too_slow_prompt","","html-keyboard-response","134","263246","0.0-1.0-178.0-0.0","1","0","24025","","null","","","null","","","","","","","","","","","","","","","","",""
"","time_out","","html-keyboard-response","135","265251","0.0-1.0-179.0-0.0","0","0","24025","","null","","","null","19","","","","","","","","","","","","","","","",""
"","ITI","","html-keyboard-response","136","266255","0.0-1.0-180.0","0","0","24025","","null","","","null","19","","","","","","","","","","","","","","","NaN",""
"","S1","","html-keyboard-response","137","266512","0.0-1.0-182.0","0","0","24025","","null","","","null","20","","","","","","","","","","","","","","","",""
"","ISI","","html-keyboard-response","138","267017","0.0-1.0-183.0","0","0","24025","","null","","","null","20","NaN","","","","","","","","","","","","","","",""
"","S2","","html-keyboard-response","139","267271","0.0-1.0-184.0","0","0","24025","","null","","","null","20","","NaN","","","","","","","","","","","","","",""
"","response","","html-keyboard-response","140","268066","0.0-1.0-185.0-0.0","0","0","24025","","791","","","68","20","","","1","20","training","adjacent","FG","6","7","M.jpg","R.jpg","0","1","0","",""
"","feedback","","html-keyboard-response","141","269071","0.0-1.0-186.0-0.0","0","0","24025","","null","","","null","20","","","","","","","","","","","","","","","",""
"","time_out","","html-keyboard-response","142","271076","0.0-1.0-188.0-0.0","0","0","24025","","null","","","null","20","","","","","","","","","","","","","","","",""
"","ITI","","html-keyboard-response","143","272080","0.0-1.0-189.0","0","0","24025","","null","","","null","20","","","","","","","","","","","","","","","NaN",""
"","S1","","html-keyboard-response","144","272336","0.0-1.0-191.0","0","0","24025","","null","","","null","21","","","","","","","","","","","","","","","",""
"","ISI","","html-keyboard-response","145","272841","0.0-1.0-192.0","0","0","24025","","null","","","null","21","NaN","","","","","","","","","","","","","","",""
"","S2","","html-keyboard-response","146","273095","0.0-1.0-193.0","0","0","24025","","null","","","null","21","","NaN","","","","","","","","","","","","","",""
"","response","","html-keyboard-response","147","273502","0.0-1.0-194.0-0.0","0","0","24025","","403","","","75","21","","","1","21","training","adjacent","EF","5","6","L.jpg","M.jpg","1","1","1","",""
"","feedback","","html-keyboard-response","148","274508","0.0-1.0-195.0-0.0","0","0","24025","","null","","","null","21","","","","","","","","","","","","","","","",""
"","ITI","","html-keyboard-response","149","275511","0.0-1.0-198.0","0","0","24025","","null","","","null","21","","","","","","","","","","","","","","","NaN",""
"","S1","","html-keyboard-response","150","275764","0.0-1.0-200.0","0","0","24025","","null","","","null","22","","","","","","","","","","","","","","","",""
"","ISI","","html-keyboard-response","151","276270","0.0-1.0-201.0","0","0","24025","","null","","","null","22","NaN","","","","","","","","","","","","","","",""
"","S2","","html-keyboard-response","152","276524","0.0-1.0-202.0","0","0","24025","","null","","","null","22","","NaN","","","","","","","","","","","","","",""
"","response","","html-keyboard-response","153","277508","0.0-1.0-203.0-0.0","0","0","24025","","981","","","75","22","","","1","22","training","adjacent","ED","5","4","L.jpg","P.jpg","1","0","0","",""
"","feedback","","html-keyboard-response","154","278512","0.0-1.0-204.0-0.0","0","0","24025","","null","","","null","22","","","","","","","","","","","","","","","",""
"","time_out","","html-keyboard-response","155","280516","0.0-1.0-206.0-0.0","0","0","24025","","null","","","null","22","","","","","","","","","","","","","","","",""
"","ITI","","html-keyboard-response","156","281522","0.0-1.0-207.0","0","0","24025","","null","","","null","22","","","","","","","","","","","","","","","NaN",""
"","S1","","html-keyboard-response","157","281776","0.0-1.0-209.0","0","0","24025","","null","","","null","23","","","","","","","","","","","","","","","",""
"","ISI","","html-keyboard-response","158","282281","0.0-1.0-210.0","0","0","24025","","null","","","null","23","NaN","","","","","","","","","","","","","","",""
"","S2","","html-keyboard-response","159","282536","0.0-1.0-211.0","0","0","24025","","null","","","null","23","","NaN","","","","","","","","","","","","","",""
"","response","","html-keyboard-response","160","284288","0.0-1.0-212.0-0.0","0","0","24025","","null","","","null","23","","","1","23","training","adjacent","DC","4","3","P.jpg","N.jpg","NaN","0","0","",""
"","too_slow_prompt","","html-keyboard-response","161","285294","0.0-1.0-214.0-0.0","1","0","24025","","null","","","null","","","","","","","","","","","","","","","","",""
"","time_out","","html-keyboard-response","162","287299","0.0-1.0-215.0-0.0","0","0","24025","","null","","","null","23","","","","","","","","","","","","","","","",""
"","ITI","","html-keyboard-response","163","288304","0.0-1.0-216.0","0","0","24025","","null","","","null","23","","","","","","","","","","","","","","","NaN",""
"","S1","","html-keyboard-response","164","288561","0.0-1.0-218.0","0","0","24025","","null","","","null","24","","","","","","","","","","","","","","","",""
"","ISI","","html-keyboard-response","165","289065","0.0-1.0-219.0","0","0","24025","","null","","","null","24","NaN","","","","","","","","","","","","","","",""
"","S2","","html-keyboard-response","166","289321","0.0-1.0-220.0","0","0","24025","","null","","","null","24","","NaN","","","","","","","","","","","","","",""
"","response","","html-keyboard-response","167","289993","0.0-1.0-221.0-0.0","0","0","24025","","667","","","68","24","","","1","24","training","adjacent","BC","2","3","O.jpg","N.jpg","0","1","0","",""
"","feedback","","html-keyboard-response","168","291000","0.0-1.0-222.0-0.0","0","0","24025","","null","","","null","24","","","","","","","","","","","","","","","",""
"","time_out","","html-keyboard-response","169","293005","0.0-1.0-224.0-0.0","0","0","24025","","null","","","null","24","","","","","","","","","","","","","","","",""
"","ITI","","html-keyboard-response","170","294011","0.0-1.0-225.0","0","0","24025","","null","","","null","24","","","","","","","","","","","","","","","NaN",""
"","S1","","html-keyboard-response","171","294265","0.0-1.0-227.0","0","0","24025","","null","","","null","25","","","","","","","","","","","","","","","",""
"","ISI","","html-keyboard-response","172","294770","0.0-1.0-228.0","0","0","24025","","null","","","null","25","NaN","","","","","","","","","","","","","","",""
"","S2","","html-keyboard-response","173","295024","0.0-1.0-229.0","0","0","24025","","null","","","null","25","","NaN","","","","","","","","","","","","","",""
"","response","","html-keyboard-response","174","295505","0.0-1.0-230.0-0.0","0","0","24025","","477","","","75","25","","","1","25","training","adjacent","BA","2","1","O.jpg","Q.jpg","1","0","0","",""
"","feedback","","html-keyboard-response","175","296520","0.0-1.0-231.0-0.0","0","0","24025","","null","","","null","25","","","","","","","","","","","","","","","",""
"","time_out","","html-keyboard-response","176","298524","0.0-1.0-233.0-0.0","0","0","24025","","null","","","null","25","","","","","","","","","","","","","","","",""
"","ITI","","html-keyboard-response","177","299531","0.0-1.0-234.0","0","0","24025","","null","","","null","25","","","","","","","","","","","","","","","NaN",""
"","S1","","html-keyboard-response","178","299785","0.0-1.0-236.0","0","0","24025","","null","","","null","26","","","","","","","","","","","","","","","",""
"","ISI","","html-keyboard-response","179","300289","0.0-1.0-237.0","0","0","24025","","null","","","null","26","NaN","","","","","","","","","","","","","","",""
"","S2","","html-keyboard-response","180","300543","0.0-1.0-238.0","0","0","24025","","null","","","null","26","","NaN","","","","","","","","","","","","","",""
"","response","","html-keyboard-response","181","301506","0.0-1.0-239.0-0.0","0","0","24025","","959","","","68","26","","","1","26","training","adjacent","CB","3","2","N.jpg","O.jpg","0","0","1","",""
"","feedback","","html-keyboard-response","182","302511","0.0-1.0-240.0-0.0","0","0","24025","","null","","","null","26","","","","","","","","","","","","","","","",""
"","ITI","","html-keyboard-response","183","303518","0.0-1.0-243.0","0","0","24025","","null","","","null","26","","","","","","","","","","","","","","","NaN",""
"","S1","","html-keyboard-response","184","303773","0.0-1.0-245.0","0","0","24025","","null","","","null","27","","","","","","","","","","","","","","","",""
"","ISI","","html-keyboard-response","185","304276","0.0-1.0-246.0","0","0","24025","","null","","","null","27","NaN","","","","","","","","","","","","","","",""
"","S2","","html-keyboard-response","186","304531","0.0-1.0-247.0","0","0","24025","","null","","","null","27","","NaN","","","","","","","","","","","","","",""
"","response","","html-keyboard-response","187","306287","0.0-1.0-248.0-0.0","0","0","24025","","null","","","null","27","","","1","27","training","adjacent","FG","6","7","M.jpg","R.jpg","NaN","1","0","",""
"","too_slow_prompt","","html-keyboard-response","188","307291","0.0-1.0-250.0-0.0","1","0","24025","","null","","","null","","","","","","","","","","","","","","","","",""
"","time_out","","html-keyboard-response","189","309296","0.0-1.0-251.0-0.0","0","0","24025","","null","","","null","27","","","","","","","","","","","","","","","",""
"","ITI","","html-keyboard-response","190","310299","0.0-1.0-252.0","0","0","24025","","null","","","null","27","","","","","","","","","","","","","","","NaN",""
"","S1","","html-keyboard-response","191","310554","0.0-1.0-254.0","0","0","24025","","null","","","null","28","","","","","","","","","","","","","","","",""
"","ISI","","html-keyboard-response","192","311058","0.0-1.0-255.0","0","0","24025","","null","","","null","28","NaN","","","","","","","","","","","","","","",""
"","S2","","html-keyboard-response","193","311314","0.0-1.0-256.0","0","0","24025","","null","","","null","28","","NaN","","","","","","","","","","","","","",""
"","response","","html-keyboard-response","194","311992","0.0-1.0-257.0-0.0","0","0","24025","","674","","","75","28","","","1","28","training","adjacent","FE","6","5","M.jpg","L.jpg","1","0","0","",""
"","feedback","","html-keyboard-response","195","312996","0.0-1.0-258.0-0.0","0","0","24025","","null","","","null","28","","","","","","","","","","","","","","","",""
"","time_out","","html-keyboard-response","196","315001","0.0-1.0-260.0-0.0","0","0","24025","","null","","","null","28","","","","","","","","","","","","","","","",""
"","ITI","","html-keyboard-response","197","316005","0.0-1.0-261.0","0","0","24025","","null","","","null","28","","","","","","","","","","","","","","","NaN",""
"","S1","","html-keyboard-response","198","316260","0.0-1.0-263.0","0","0","24025","","null","","","null","29","","","","","","","","","","","","","","","",""
"","ISI","","html-keyboard-response","199","316765","0.0-1.0-264.0","0","0","24025","","null","","","null","29","NaN","","","","","","","","","","","","","","",""
"","S2","","html-keyboard-response","200","317020","0.0-1.0-265.0","0","0","24025","","null","","","null","29","","NaN","","","","","","","","","","","","","",""
"","response","","html-keyboard-response","201","317584","0.0-1.0-266.0-0.0","0","0","24025","","560","","","68","29","","","1","29","training","adjacent","BC","2","3","O.jpg","N.jpg","0","1","0","",""
"","feedback","","html-keyboard-response","202","318589","0.0-1.0-267.0-0.0","0","0","24025","","null","","","null","29","","","","","","","","","","","","","","","",""
"","time_out","","html-keyboard-response","203","320593","0.0-1.0-269.0-0.0","0","0","24025","","null","","","null","29","","","","","","","","","","","","","","","",""
"","ITI","","html-keyboard-response","204","321597","0.0-1.0-270.0","0","0","24025","","null","","","null","29","","","","","","","","","","","","","","","NaN",""
"","S1","","html-keyboard-response","205","321852","0.0-1.0-272.0","0","0","24025","","null","","","null","30","","","","","","","","","","","","","","","",""
"","ISI","","html-keyboard-response","206","322355","0.0-1.0-273.0","0","0","24025","","null","","","null","30","NaN","","","","","","","","","","","","","","",""
"","S2","","html-keyboard-response","207","322610","0.0-1.0-274.0","0","0","24025","","null","","","null","30","","NaN","","","","","","","","","","","","","",""
"","response","","html-keyboard-response","208","323432","0.0-1.0-275.0-0.0","0","0","24025","","817","","","75","30","","","1","30","training","adjacent","AB","1","2","Q.jpg","O.jpg","1","1","1","",""
"","feedback","","html-keyboard-response","209","324436","0.0-1.0-276.0-0.0","0","0","24025","","null","","","null","30","","","","","","","","","","","","","","","",""
"","ITI","","html-keyboard-response","210","325440","0.0-1.0-279.0","0","0","24025","","null","","","null","30","","","","","","","","","","","","","","","NaN",""
"","S1","","html-keyboard-response","211","325705","0.0-1.0-281.0","0","0","24025","","null","","","null","31","","","","","","","","","","","","","","","",""
"","ISI","","html-keyboard-response","212","326210","0.0-1.0-282.0","0","0","24025","","null","","","null","31","NaN","","","","","","","","","","","","","","",""
"","S2","","html-keyboard-response","213","326466","0.0-1.0-283.0","0","0","24025","","null","","","null","31","","NaN","","","","","","","","","","","","","",""
"","response","","html-keyboard-response","214","327213","0.0-1.0-284.0-0.0","0","0","24025","","744","","","75","31","","","1","31","training","adjacent","DE","4","5","P.jpg","L.jpg","1","1","1","",""
"","feedback","","html-keyboard-response","215","328219","0.0-1.0-285.0-0.0","0","0","24025","","null","","","null","31","","","","","","","","","","","","","","","",""
"","ITI","","html-keyboard-response","216","329224","0.0-1.0-288.0","0","0","24025","","null","","","null","31","","","","","","","","","","","","","","","NaN",""
"","S1","","html-keyboard-response","217","329489","0.0-1.0-290.0","0","0","24025","","null","","","null","32","","","","","","","","","","","","","","","",""
"","ISI","","html-keyboard-response","218","329994","0.0-1.0-291.0","0","0","24025","","null","","","null","32","NaN","","","","","","","","","","","","","","",""
"","S2","","html-keyboard-response","219","330250","0.0-1.0-292.0","0","0","24025","","null","","","null","32","","NaN","","","","","","","","","","","","","",""
"","response","","html-keyboard-response","220","331350","0.0-1.0-293.0-0.0","0","0","24025","","1097","","","75","32","","","1","32","training","adjacent","ED","5","4","L.jpg","P.jpg","1","0","0","",""
"","feedback","","html-keyboard-response","221","332355","0.0-1.0-294.0-0.0","0","0","24025","","null","","","null","32","","","","","","","","","","","","","","","",""
"","time_out","","html-keyboard-response","222","334367","0.0-1.0-296.0-0.0","0","0","24025","","null","","","null","32","","","","","","","","","","","","","","","",""
"","ITI","","html-keyboard-response","223","335371","0.0-1.0-297.0","0","0","24025","","null","","","null","32","","","","","","","","","","","","","","","NaN",""
"","S1","","html-keyboard-response","224","335625","0.0-1.0-299.0","0","0","24025","","null","","","null","33","","","","","","","","","","","","","","","",""
"","ISI","","html-keyboard-response","225","336129","0.0-1.0-300.0","0","0","24025","","null","","","null","33","NaN","","","","","","","","","","","","","","",""
"","S2","","html-keyboard-response","226","336384","0.0-1.0-301.0","0","0","24025","","null","","","null","33","","NaN","","","","","","","","","","","","","",""
"","response","","html-keyboard-response","227","336838","0.0-1.0-302.0-0.0","0","0","24025","","451","","","68","33","","","1","33","training","adjacent","CD","3","4","N.jpg","P.jpg","0","1","0","",""
"","feedback","","html-keyboard-response","228","337842","0.0-1.0-303.0-0.0","0","0","24025","","null","","","null","33","","","","","","","","","","","","","","","",""
"","time_out","","html-keyboard-response","229","339847","0.0-1.0-305.0-0.0","0","0","24025","","null","","","null","33","","","","","","","","","","","","","","","",""
"","ITI","","html-keyboard-response","230","340867","0.0-1.0-306.0","0","0","24025","","null","","","null","33","","","","","","","","","","","","","","","NaN",""
"","S1","","html-keyboard-response","231","341120","0.0-1.0-308.0","0","0","24025","","null","","","null","34","","","","","","","","","","","","","","","",""
"","ISI","","html-keyboard-response","232","341624","0.0-1.0-309.0","0","0","24025","","null","","","null","34","NaN","","","","","","","","","","","","","","",""
"","S2","","html-keyboard-response","233","341881","0.0-1.0-310.0","0","0","24025","","null","","","null","34","","NaN","","","","","","","","","","","","","",""
"","response","","html-keyboard-response","234","343147","0.0-1.0-311.0-0.0","0","0","24025","","1262","","","68","34","","","1","34","training","adjacent","GF","7","6","R.jpg","M.jpg","0","0","1","",""
"","feedback","","html-keyboard-response","235","344151","0.0-1.0-312.0-0.0","0","0","24025","","null","","","null","34","","","","","","","","","","","","","","","",""
"","ITI","","html-keyboard-response","236","345155","0.0-1.0-315.0","0","0","24025","","null","","","null","34","","","","","","","","","","","","","","","NaN",""
"","S1","","html-keyboard-response","237","345409","0.0-1.0-317.0","0","0","24025","","null","","","null","35","","","","","","","","","","","","","","","",""
"","ISI","","html-keyboard-response","238","345914","0.0-1.0-318.0","0","0","24025","","null","","","null","35","NaN","","","","","","","","","","","","","","",""
"","S2","","html-keyboard-response","239","346167","0.0-1.0-319.0","0","0","24025","","null","","","null","35","","NaN","","","","","","","","","","","","","",""
"","response","","html-keyboard-response","240","347920","0.0-1.0-320.0-0.0","0","0","24025","","null","","","null","35","","","1","35","training","adjacent","ED","5","4","L.jpg","P.jpg","NaN","0","0","",""
"","too_slow_prompt","","html-keyboard-response","241","348925","0.0-1.0-322.0-0.0","1","0","24025","","null","","","null","","","","","","","","","","","","","","","","",""
"","time_out","","html-keyboard-response","242","350927","0.0-1.0-323.0-0.0","0","0","24025","","null","","","null","35","","","","","","","","","","","","","","","",""
"","ITI","","html-keyboard-response","243","351933","0.0-1.0-324.0","0","0","24025","","null","","","null","35","","","","","","","","","","","","","","","NaN",""
"","S1","","html-keyboard-response","244","352192","0.0-1.0-326.0","0","0","24025","","null","","","null","36","","","","","","","","","","","","","","","",""
"","ISI","","html-keyboard-response","245","352696","0.0-1.0-327.0","0","0","24025","","null","","","null","36","NaN","","","","","","","","","","","","","","",""
"","S2","","html-keyboard-response","246","352953","0.0-1.0-328.0","0","0","24025","","null","","","null","36","","NaN","","","","","","","","","","","","","",""
"","response","","html-keyboard-response","247","354708","0.0-1.0-329.0-0.0","0","0","24025","","null","","","null","36","","","1","36","training","adjacent","ED","5","4","L.jpg","P.jpg","NaN","0","0","",""
"","too_slow_prompt","","html-keyboard-response","248","355713","0.0-1.0-331.0-0.0","1","0","24025","","null","","","null","","","","","","","","","","","","","","","","",""
"","time_out","","html-keyboard-response","249","357718","0.0-1.0-332.0-0.0","0","0","24025","","null","","","null","36","","","","","","","","","","","","","","","",""
"","ITI","","html-keyboard-response","250","358722","0.0-1.0-333.0","0","0","24025","","null","","","null","36","","","","","","","","","","","","","","","NaN",""
"","S1","","html-keyboard-response","251","358976","0.0-1.0-335.0","0","0","24025","","null","","","null","37","","","","","","","","","","","","","","","",""
"","ISI","","html-keyboard-response","252","359479","0.0-1.0-336.0","0","0","24025","","null","","","null","37","NaN","","","","","","","","","","","","","","",""
"","S2","","html-keyboard-response","253","359734","0.0-1.0-337.0","0","0","24025","","null","","","null","37","","NaN","","","","","","","","","","","","","",""
"","response","","html-keyboard-response","254","360469","0.0-1.0-338.0-0.0","0","0","24025","","731","","","75","37","","","1","37","training","adjacent","FE","6","5","M.jpg","L.jpg","1","0","0","",""
"","feedback","","html-keyboard-response","255","361474","0.0-1.0-339.0-0.0","0","0","24025","","null","","","null","37","","","","","","","","","","","","","","","",""
"","time_out","","html-keyboard-response","256","363479","0.0-1.0-341.0-0.0","0","0","24025","","null","","","null","37","","","","","","","","","","","","","","","",""
"","ITI","","html-keyboard-response","257","364484","0.0-1.0-342.0","0","0","24025","","null","","","null","37","","","","","","","","","","","","","","","NaN",""
"","S1","","html-keyboard-response","258","364738","0.0-1.0-344.0","0","0","24025","","null","","","null","38","","","","","","","","","","","","","","","",""
"","ISI","","html-keyboard-response","259","365242","0.0-1.0-345.0","0","0","24025","","null","","","null","38","NaN","","","","","","","","","","","","","","",""
"","S2","","html-keyboard-response","260","365497","0.0-1.0-346.0","0","0","24025","","null","","","null","38","","NaN","","","","","","","","","","","","","",""
"","response","","html-keyboard-response","261","366564","0.0-1.0-347.0-0.0","0","0","24025","","1063","","","68","38","","","1","38","training","adjacent","EF","5","6","L.jpg","M.jpg","0","1","0","",""
"","feedback","","html-keyboard-response","262","367569","0.0-1.0-348.0-0.0","0","0","24025","","null","","","null","38","","","","","","","","","","","","","","","",""
"","time_out","","html-keyboard-response","263","369572","0.0-1.0-350.0-0.0","0","0","24025","","null","","","null","38","","","","","","","","","","","","","","","",""
"","ITI","","html-keyboard-response","264","370576","0.0-1.0-351.0","0","0","24025","","null","","","null","38","","","","","","","","","","","","","","","NaN",""
"","S1","","html-keyboard-response","265","370831","0.0-1.0-353.0","0","0","24025","","null","","","null","39","","","","","","","","","","","","","","","",""
"","ISI","","html-keyboard-response","266","371335","0.0-1.0-354.0","0","0","24025","","null","","","null","39","NaN","","","","","","","","","","","","","","",""
"","S2","","html-keyboard-response","267","371589","0.0-1.0-355.0","0","0","24025","","null","","","null","39","","NaN","","","","","","","","","","","","","",""
"","response","","html-keyboard-response","268","371771","0.0-1.0-356.0-0.0","0","0","24025","","178","","","75","39","","","1","39","training","adjacent","CB","3","2","N.jpg","O.jpg","1","0","0","",""
"","feedback","","html-keyboard-response","269","372777","0.0-1.0-357.0-0.0","0","0","24025","","null","","","null","39","","","","","","","","","","","","","","","",""
"","time_out","","html-keyboard-response","270","374781","0.0-1.0-359.0-0.0","0","0","24025","","null","","","null","39","","","","","","","","","","","","","","","",""
"","ITI","","html-keyboard-response","271","375784","0.0-1.0-360.0","0","0","24025","","null","","","null","39","","","","","","","","","","","","","","","NaN",""
"","S1","","html-keyboard-response","272","376038","0.0-1.0-362.0","0","0","24025","","null","","","null","40","","","","","","","","","","","","","","","",""
"","ISI","","html-keyboard-response","273","376542","0.0-1.0-363.0","0","0","24025","","null","","","null","40","NaN","","","","","","","","","","","","","","",""
"","S2","","html-keyboard-response","274","376798","0.0-1.0-364.0","0","0","24025","","null","","","null","40","","NaN","","","","","","","","","","","","","",""
"","response","","html-keyboard-response","275","377362","0.0-1.0-365.0-0.0","0","0","24025","","560","","","75","40","","","1","40","training","adjacent","FG","6","7","M.jpg","R.jpg","1","1","1","",""
"","feedback","","html-keyboard-response","276","378369","0.0-1.0-366.0-0.0","0","0","24025","","null","","","null","40","","","","","","","","","","","","","","","",""
"","ITI","","html-keyboard-response","277","379374","0.0-1.0-369.0","0","0","24025","","null","","","null","40","","","","","","","","","","","","","","","NaN",""
"","S1","","html-keyboard-response","278","379644","0.0-1.0-371.0","0","0","24025","","null","","","null","41","","","","","","","","","","","","","","","",""
"","ISI","","html-keyboard-response","279","380149","0.0-1.0-372.0","0","0","24025","","null","","","null","41","NaN","","","","","","","","","","","","","","",""
"","S2","","html-keyboard-response","280","380404","0.0-1.0-373.0","0","0","24025","","null","","","null","41","","NaN","","","","","","","","","","","","","",""
"","response","","html-keyboard-response","281","381266","0.0-1.0-374.0-0.0","0","0","24025","","857","","","75","41","","","1","41","training","adjacent","BC","2","3","O.jpg","N.jpg","1","1","1","",""
"","feedback","","html-keyboard-response","282","382272","0.0-1.0-375.0-0.0","0","0","24025","","null","","","null","41","","","","","","","","","","","","","","","",""
"","ITI","","html-keyboard-response","283","383276","0.0-1.0-378.0","0","0","24025","","null","","","null","41","","","","","","","","","","","","","","","NaN",""
"","S1","","html-keyboard-response","284","383531","0.0-1.0-380.0","0","0","24025","","null","","","null","42","","","","","","","","","","","","","","","",""
"","ISI","","html-keyboard-response","285","384034","0.0-1.0-381.0","0","0","24025","","null","","","null","42","NaN","","","","","","","","","","","","","","",""
"","S2","","html-keyboard-response","286","384287","0.0-1.0-382.0","0","0","24025","","null","","","null","42","","NaN","","","","","","","","","","","","","",""
"","response","","html-keyboard-response","287","384911","0.0-1.0-383.0-0.0","0","0","24025","","620","","","75","42","","","1","42","training","adjacent","FG","6","7","M.jpg","R.jpg","1","1","1","",""
"","feedback","","html-keyboard-response","288","385917","0.0-1.0-384.0-0.0","0","0","24025","","null","","","null","42","","","","","","","","","","","","","","","",""
"","ITI","","html-keyboard-response","289","386921","0.0-1.0-387.0","0","0","24025","","null","","","null","42","","","","","","","","","","","","","","","NaN",""
"","S1","","html-keyboard-response","290","387175","0.0-1.0-389.0","0","0","24025","","null","","","null","43","","","","","","","","","","","","","","","",""
"","ISI","","html-keyboard-response","291","387692","0.0-1.0-390.0","0","0","24025","","null","","","null","43","NaN","","","","","","","","","","","","","","",""
"","S2","","html-keyboard-response","292","387947","0.0-1.0-391.0","0","0","24025","","null","","","null","43","","NaN","","","","","","","","","","","","","",""
"","response","","html-keyboard-response","293","388443","0.0-1.0-392.0-0.0","0","0","24025","","491","","","75","43","","","1","43","training","adjacent","BA","2","1","O.jpg","Q.jpg","1","0","0","",""
"","feedback","","html-keyboard-response","294","389449","0.0-1.0-393.0-0.0","0","0","24025","","null","","","null","43","","","","","","","","","","","","","","","",""
"","time_out","","html-keyboard-response","295","391453","0.0-1.0-395.0-0.0","0","0","24025","","null","","","null","43","","","","","","","","","","","","","","","",""
"","ITI","","html-keyboard-response","296","392458","0.0-1.0-396.0","0","0","24025","","null","","","null","43","","","","","","","","","","","","","","","NaN",""
"","S1","","html-keyboard-response","297","392713","0.0-1.0-398.0","0","0","24025","","null","","","null","44","","","","","","","","","","","","","","","",""
"","ISI","","html-keyboard-response","298","393217","0.0-1.0-399.0","0","0","24025","","303","","","75","44","k","","","","","","","","","","","","","","",""
"","S2","","html-keyboard-response","299","393472","0.0-1.0-400.0","0","0","24025","","null","","","null","44","","NaN","","","","","","","","","","","","","",""
"","response","","html-keyboard-response","300","393959","0.0-1.0-401.0-0.0","0","0","24025","","482","","","75","44","","","1","44","training","adjacent","BC","2","3","O.jpg","N.jpg","1","1","1","",""
"","feedback","","html-keyboard-response","301","394963","0.0-1.0-402.0-0.0","0","0","24025","","null","","","null","44","","","","","","","","","","","","","","","",""
"","ITI","","html-keyboard-response","302","395974","0.0-1.0-405.0","0","0","24025","","null","","","null","44","","","","","","","","","","","","","","","NaN",""
"","S1","","html-keyboard-response","303","396228","0.0-1.0-407.0","0","0","24025","","null","","","null","45","","","","","","","","","","","","","","","",""
"","ISI","","html-keyboard-response","304","396734","0.0-1.0-408.0","0","0","24025","","null","","","null","45","NaN","","","","","","","","","","","","","","",""
"","S2","","html-keyboard-response","305","396988","0.0-1.0-409.0","0","0","24025","","null","","","null","45","","NaN","","","","","","","","","","","","","",""
"","response","","html-keyboard-response","306","398741","0.0-1.0-410.0-0.0","0","0","24025","","null","","","null","45","","","1","45","training","adjacent","CD","3","4","N.jpg","P.jpg","NaN","1","0","",""
"","too_slow_prompt","","html-keyboard-response","307","399744","0.0-1.0-412.0-0.0","1","0","24025","","null","","","null","","","","","","","","","","","","","","","","",""
"","time_out","","html-keyboard-response","308","401748","0.0-1.0-413.0-0.0","0","0","24025","","null","","","null","45","","","","","","","","","","","","","","","",""
"","ITI","","html-keyboard-response","309","402752","0.0-1.0-414.0","0","0","24025","","null","","","null","45","","","","","","","","","","","","","","","NaN",""
"","S1","","html-keyboard-response","310","403006","0.0-1.0-416.0","0","0","24025","","null","","","null","46","","","","","","","","","","","","","","","",""
"","ISI","","html-keyboard-response","311","403510","0.0-1.0-417.0","0","0","24025","","null","","","null","46","NaN","","","","","","","","","","","","","","",""
"","S2","","html-keyboard-response","312","403764","0.0-1.0-418.0","0","0","24025","","null","","","null","46","","NaN","","","","","","","","","","","","","",""
"","response","","html-keyboard-response","313","405518","0.0-1.0-419.0-0.0","0","0","24025","","null","","","null","46","","","1","46","training","adjacent","AB","1","2","Q.jpg","O.jpg","NaN","1","0","",""
"","too_slow_prompt","","html-keyboard-response","314","406524","0.0-1.0-421.0-0.0","1","0","24025","","null","","","null","","","","","","","","","","","","","","","","",""
"","time_out","","html-keyboard-response","315","408528","0.0-1.0-422.0-0.0","0","0","24025","","null","","","null","46","","","","","","","","","","","","","","","",""
"","ITI","","html-keyboard-response","316","409532","0.0-1.0-423.0","0","0","24025","","null","","","null","46","","","","","","","","","","","","","","","NaN",""
"","S1","","html-keyboard-response","317","409786","0.0-1.0-425.0","0","0","24025","","null","","","null","47","","","","","","","","","","","","","","","",""
"","ISI","","html-keyboard-response","318","410290","0.0-1.0-426.0","0","0","24025","","null","","","null","47","NaN","","","","","","","","","","","","","","",""
"","S2","","html-keyboard-response","319","410544","0.0-1.0-427.0","0","0","24025","","null","","","null","47","","NaN","","","","","","","","","","","","","",""
"","response","","html-keyboard-response","320","411486","0.0-1.0-428.0-0.0","0","0","24025","","938","","","75","47","","","1","47","training","adjacent","DC","4","3","P.jpg","N.jpg","1","0","0","",""
"","feedback","","html-keyboard-response","321","412492","0.0-1.0-429.0-0.0","0","0","24025","","null","","","null","47","","","","","","","","","","","","","","","",""
"","time_out","","html-keyboard-response","322","414497","0.0-1.0-431.0-0.0","0","0","24025","","null","","","null","47","","","","","","","","","","","","","","","",""
"","ITI","","html-keyboard-response","323","415500","0.0-1.0-432.0","0","0","24025","","null","","","null","47","","","","","","","","","","","","","","","NaN",""
"","block_over","","html-keyboard-response","324","424767","0.0-1.0-433.0-0.0","0","0","24025","","9264","","","32","47","","","","","","","","","","","","","","","",""
"","S1","","html-keyboard-response","325","425022","0.0-1.0-434.0","0","0","24025","","null","","","null","48","","","","","","","","","","","","","","","",""
"","ISI","","html-keyboard-response","326","425528","0.0-1.0-435.0","0","0","24025","","null","","","null","48","NaN","","","","","","","","","","","","","","",""
"","S2","","html-keyboard-response","327","425787","0.0-1.0-436.0","0","0","24025","","null","","","null","48","","NaN","","","","","","","","","","","","","",""
"","response","","html-keyboard-response","328","427169","0.0-1.0-437.0-0.0","0","0","24025","","1379","","","75","48","","","2","48","training","adjacent","AB","1","2","Q.jpg","O.jpg","1","1","1","",""
"","feedback","","html-keyboard-response","329","428175","0.0-1.0-438.0-0.0","0","0","24025","","null","","","null","48","","","","","","","","","","","","","","","",""
"","ITI","","html-keyboard-response","330","429179","0.0-1.0-441.0","0","0","24025","","null","","","null","48","","","","","","","","","","","","","","","NaN",""
"","S1","","html-keyboard-response","331","429432","0.0-1.0-443.0","0","0","24025","","null","","","null","49","","","","","","","","","","","","","","","",""
"","ISI","","html-keyboard-response","332","429937","0.0-1.0-444.0","0","0","24025","","null","","","null","49","NaN","","","","","","","","","","","","","","",""
"","S2","","html-keyboard-response","333","430193","0.0-1.0-445.0","0","0","24025","","null","","","null","49","","NaN","","","","","","","","","","","","","",""
"","response","","html-keyboard-response","334","430327","0.0-1.0-446.0-0.0","0","0","24025","","131","","","75","49","","","2","49","training","adjacent","FG","6","7","M.jpg","R.jpg","1","1","1","",""
"","feedback","","html-keyboard-response","335","431332","0.0-1.0-447.0-0.0","0","0","24025","","null","","","null","49","","","","","","","","","","","","","","","",""
"","ITI","","html-keyboard-response","336","432337","0.0-1.0-450.0","0","0","24025","","null","","","null","49","","","","","","","","","","","","","","","NaN",""
"","S1","","html-keyboard-response","337","432594","0.0-1.0-452.0","0","0","24025","","null","","","null","50","","","","","","","","","","","","","","","",""
"","ISI","","html-keyboard-response","338","433098","0.0-1.0-453.0","0","0","24025","","null","","","null","50","NaN","","","","","","","","","","","","","","",""
"","S2","","html-keyboard-response","339","433355","0.0-1.0-454.0","0","0","24025","","null","","","null","50","","NaN","","","","","","","","","","","","","",""
"","response","","html-keyboard-response","340","433842","0.0-1.0-455.0-0.0","0","0","24025","","482","","","75","50","","","2","50","training","adjacent","CD","3","4","N.jpg","P.jpg","1","1","1","",""
"","feedback","","html-keyboard-response","341","434849","0.0-1.0-456.0-0.0","0","0","24025","","null","","","null","50","","","","","","","","","","","","","","","",""
"","ITI","","html-keyboard-response","342","435855","0.0-1.0-459.0","0","0","24025","","null","","","null","50","","","","","","","","","","","","","","","NaN",""
"","S1","","html-keyboard-response","343","436108","0.0-1.0-461.0","0","0","24025","","null","","","null","51","","","","","","","","","","","","","","","",""
"","ISI","","html-keyboard-response","344","436612","0.0-1.0-462.0","0","0","24025","","null","","","null","51","NaN","","","","","","","","","","","","","","",""
"","S2","","html-keyboard-response","345","436869","0.0-1.0-463.0","0","0","24025","","null","","","null","51","","NaN","","","","","","","","","","","","","",""
"","response","","html-keyboard-response","346","437018","0.0-1.0-464.0-0.0","0","0","24025","","146","","","75","51","","","2","51","training","adjacent","ED","5","4","L.jpg","P.jpg","1","0","0","",""
"","feedback","","html-keyboard-response","347","438022","0.0-1.0-465.0-0.0","0","0","24025","","null","","","null","51","","","","","","","","","","","","","","","",""
"","time_out","","html-keyboard-response","348","440027","0.0-1.0-467.0-0.0","0","0","24025","","null","","","null","51","","","","","","","","","","","","","","","",""
"","ITI","","html-keyboard-response","349","441031","0.0-1.0-468.0","0","0","24025","","null","","","null","51","","","","","","","","","","","","","","","NaN",""
"","S1","","html-keyboard-response","350","441285","0.0-1.0-470.0","0","0","24025","","null","","","null","52","","","","","","","","","","","","","","","",""
"","ISI","","html-keyboard-response","351","441787","0.0-1.0-471.0","0","0","24025","","null","","","null","52","NaN","","","","","","","","","","","","","","",""
"","S2","","html-keyboard-response","352","442041","0.0-1.0-472.0","0","0","24025","","null","","","null","52","","NaN","","","","","","","","","","","","","",""
"","response","","html-keyboard-response","353","442574","0.0-1.0-473.0-0.0","0","0","24025","","531","","","68","52","","","2","52","training","adjacent","ED","5","4","L.jpg","P.jpg","0","0","1","",""
"","feedback","","html-keyboard-response","354","443578","0.0-1.0-474.0-0.0","0","0","24025","","null","","","null","52","","","","","","","","","","","","","","","",""
"","ITI","","html-keyboard-response","355","444584","0.0-1.0-477.0","0","0","24025","","null","","","null","52","","","","","","","","","","","","","","","NaN",""
"","S1","","html-keyboard-response","356","444839","0.0-1.0-479.0","0","0","24025","","null","","","null","53","","","","","","","","","","","","","","","",""
"","ISI","","html-keyboard-response","357","445343","0.0-1.0-480.0","0","0","24025","","null","","","null","53","NaN","","","","","","","","","","","","","","",""
"","S2","","html-keyboard-response","358","445598","0.0-1.0-481.0","0","0","24025","","null","","","null","53","","NaN","","","","","","","","","","","","","",""
"","response","","html-keyboard-response","359","445759","0.0-1.0-482.0-0.0","0","0","24025","","156","","","68","53","","","2","53","training","adjacent","FG","6","7","M.jpg","R.jpg","0","1","0","",""
"","feedback","","html-keyboard-response","360","446765","0.0-1.0-483.0-0.0","0","0","24025","","null","","","null","53","","","","","","","","","","","","","","","",""
"","time_out","","html-keyboard-response","361","448770","0.0-1.0-485.0-0.0","0","0","24025","","null","","","null","53","","","","","","","","","","","","","","","",""
"","ITI","","html-keyboard-response","362","449776","0.0-1.0-486.0","0","0","24025","","null","","","null","53","","","","","","","","","","","","","","","NaN",""
"","S1","","html-keyboard-response","363","450031","0.0-1.0-488.0","0","0","24025","","null","","","null","54","","","","","","","","","","","","","","","",""
"","ISI","","html-keyboard-response","364","450535","0.0-1.0-489.0","0","0","24025","","null","","","null","54","NaN","","","","","","","","","","","","","","",""
"","S2","","html-keyboard-response","365","450790","0.0-1.0-490.0","0","0","24025","","null","","","null","54","","NaN","","","","","","","","","","","","","",""
"","response","","html-keyboard-response","366","451221","0.0-1.0-491.0-0.0","0","0","24025","","428","","","68","54","","","2","54","training","adjacent","BA","2","1","O.jpg","Q.jpg","0","0","1","",""
"","feedback","","html-keyboard-response","367","452227","0.0-1.0-492.0-0.0","0","0","24025","","null","","","null","54","","","","","","","","","","","","","","","",""
"","ITI","","html-keyboard-response","368","453231","0.0-1.0-495.0","0","0","24025","","null","","","null","54","","","","","","","","","","","","","","","NaN",""
"","S1","","html-keyboard-response","369","453486","0.0-1.0-497.0","0","0","24025","","null","","","null","55","","","","","","","","","","","","","","","",""
"","ISI","","html-keyboard-response","370","453990","0.0-1.0-498.0","0","0","24025","","null","","","null","55","NaN","","","","","","","","","","","","","","",""
"","S2","","html-keyboard-response","371","454246","0.0-1.0-499.0","0","0","24025","","null","","","null","55","","NaN","","","","","","","","","","","","","",""
"","response","","html-keyboard-response","372","454681","0.0-1.0-500.0-0.0","0","0","24025","","431","","","75","55","","","2","55","training","adjacent","ED","5","4","L.jpg","P.jpg","1","0","0","",""
"","feedback","","html-keyboard-response","373","455687","0.0-1.0-501.0-0.0","0","0","24025","","null","","","null","55","","","","","","","","","","","","","","","",""
"","time_out","","html-keyboard-response","374","457697","0.0-1.0-503.0-0.0","0","0","24025","","null","","","null","55","","","","","","","","","","","","","","","",""
"","ITI","","html-keyboard-response","375","458701","0.0-1.0-504.0","0","0","24025","","null","","","null","55","","","","","","","","","","","","","","","NaN",""
"","S1","","html-keyboard-response","376","458958","0.0-1.0-506.0","0","0","24025","","null","","","null","56","","","","","","","","","","","","","","","",""
"","ISI","","html-keyboard-response","377","459462","0.0-1.0-507.0","0","0","24025","","null","","","null","56","NaN","","","","","","","","","","","","","","",""
"","S2","","html-keyboard-response","378","459718","0.0-1.0-508.0","0","0","24025","","null","","","null","56","","NaN","","","","","","","","","","","","","",""
"","response","","html-keyboard-response","379","460127","0.0-1.0-509.0-0.0","0","0","24025","","406","","","68","56","","","2","56","training","adjacent","DC","4","3","P.jpg","N.jpg","0","0","1","",""
"","feedback","","html-keyboard-response","380","461134","0.0-1.0-510.0-0.0","0","0","24025","","null","","","null","56","","","","","","","","","","","","","","","",""
"","ITI","","html-keyboard-response","381","462137","0.0-1.0-513.0","0","0","24025","","null","","","null","56","","","","","","","","","","","","","","","NaN",""
"","S1","","html-keyboard-response","382","462392","0.0-1.0-515.0","0","0","24025","","null","","","null","57","","","","","","","","","","","","","","","",""
"","ISI","","html-keyboard-response","383","462895","0.0-1.0-516.0","0","0","24025","","null","","","null","57","NaN","","","","","","","","","","","","","","",""
"","S2","","html-keyboard-response","384","463160","0.0-1.0-517.0","0","0","24025","","null","","","null","57","","NaN","","","","","","","","","","","","","",""
"","response","","html-keyboard-response","385","463611","0.0-1.0-518.0-0.0","0","0","24025","","448","","","68","57","","","2","57","training","adjacent","ED","5","4","L.jpg","P.jpg","0","0","1","",""
"","feedback","","html-keyboard-response","386","464616","0.0-1.0-519.0-0.0","0","0","24025","","null","","","null","57","","","","","","","","","","","","","","","",""
"","ITI","","html-keyboard-response","387","465621","0.0-1.0-522.0","0","0","24025","","null","","","null","57","","","","","","","","","","","","","","","NaN",""
"","S1","","html-keyboard-response","388","465876","0.0-1.0-524.0","0","0","24025","","null","","","null","58","","","","","","","","","","","","","","","",""
"","ISI","","html-keyboard-response","389","466381","0.0-1.0-525.0","0","0","24025","","null","","","null","58","NaN","","","","","","","","","","","","","","",""
"","S2","","html-keyboard-response","390","466638","0.0-1.0-526.0","0","0","24025","","null","","","null","58","","NaN","","","","","","","","","","","","","",""
"","response","","html-keyboard-response","391","467342","0.0-1.0-527.0-0.0","0","0","24025","","698","","","68","58","","","2","58","training","adjacent","BA","2","1","O.jpg","Q.jpg","0","0","1","",""
"","feedback","","html-keyboard-response","392","468349","0.0-1.0-528.0-0.0","0","0","24025","","null","","","null","58","","","","","","","","","","","","","","","",""
"","ITI","","html-keyboard-response","393","469354","0.0-1.0-531.0","0","0","24025","","null","","","null","58","","","","","","","","","","","","","","","NaN",""
"","S1","","html-keyboard-response","394","469608","0.0-1.0-533.0","0","0","24025","","null","","","null","59","","","","","","","","","","","","","","","",""
"","ISI","","html-keyboard-response","395","470113","0.0-1.0-534.0","0","0","24025","","null","","","null","59","NaN","","","","","","","","","","","","","","",""
"","S2","","html-keyboard-response","396","470368","0.0-1.0-535.0","0","0","24025","","null","","","null","59","","NaN","","","","","","","","","","","","","",""
"","response","","html-keyboard-response","397","471084","0.0-1.0-536.0-0.0","0","0","24025","","712","","","68","59","","","2","59","training","adjacent","CB","3","2","N.jpg","O.jpg","0","0","1","",""
"","feedback","","html-keyboard-response","398","472089","0.0-1.0-537.0-0.0","0","0","24025","","null","","","null","59","","","","","","","","","","","","","","","",""
"","ITI","","html-keyboard-response","399","473094","0.0-1.0-540.0","0","0","24025","","null","","","null","59","","","","","","","","","","","","","","","NaN",""
"","S1","","html-keyboard-response","400","473350","0.0-1.0-542.0","0","0","24025","","null","","","null","60","","","","","","","","","","","","","","","",""
"","ISI","","html-keyboard-response","401","473857","0.0-1.0-543.0","0","0","24025","","null","","","null","60","NaN","","","","","","","","","","","","","","",""
"","S2","","html-keyboard-response","402","474113","0.0-1.0-544.0","0","0","24025","","null","","","null","60","","NaN","","","","","","","","","","","","","",""
"","response","","html-keyboard-response","403","474662","0.0-1.0-545.0-0.0","0","0","24025","","544","","","68","60","","","2","60","training","adjacent","BC","2","3","O.jpg","N.jpg","0","1","0","",""
"","feedback","","html-keyboard-response","404","475669","0.0-1.0-546.0-0.0","0","0","24025","","null","","","null","60","","","","","","","","","","","","","","","",""
"","time_out","","html-keyboard-response","405","477676","0.0-1.0-548.0-0.0","0","0","24025","","null","","","null","60","","","","","","","","","","","","","","","",""
"","ITI","","html-keyboard-response","406","478680","0.0-1.0-549.0","0","0","24025","","null","","","null","60","","","","","","","","","","","","","","","NaN",""
"","S1","","html-keyboard-response","407","478934","0.0-1.0-551.0","0","0","24025","","null","","","null","61","","","","","","","","","","","","","","","",""
"","ISI","","html-keyboard-response","408","479439","0.0-1.0-552.0","0","0","24025","","null","","","null","61","NaN","","","","","","","","","","","","","","",""
"","S2","","html-keyboard-response","409","479693","0.0-1.0-553.0","0","0","24025","","null","","","null","61","","NaN","","","","","","","","","","","","","",""
"","response","","html-keyboard-response","410","480361","0.0-1.0-554.0-0.0","0","0","24025","","665","","","68","61","","","2","61","training","adjacent","CD","3","4","N.jpg","P.jpg","0","1","0","",""
"","feedback","","html-keyboard-response","411","481367","0.0-1.0-555.0-0.0","0","0","24025","","null","","","null","61","","","","","","","","","","","","","","","",""
"","time_out","","html-keyboard-response","412","483373","0.0-1.0-557.0-0.0","0","0","24025","","null","","","null","61","","","","","","","","","","","","","","","",""
"","ITI","","html-keyboard-response","413","484378","0.0-1.0-558.0","0","0","24025","","null","","","null","61","","","","","","","","","","","","","","","NaN",""
"","S1","","html-keyboard-response","414","484631","0.0-1.0-560.0","0","0","24025","","null","","","null","62","","","","","","","","","","","","","","","",""
"","ISI","","html-keyboard-response","415","485134","0.0-1.0-561.0","0","0","24025","","null","","","null","62","NaN","","","","","","","","","","","","","","",""
"","S2","","html-keyboard-response","416","485389","0.0-1.0-562.0","0","0","24025","","null","","","null","62","","NaN","","","","","","","","","","","","","",""
"","response","","html-keyboard-response","417","487144","0.0-1.0-563.0-0.0","0","0","24025","","null","","","null","62","","","2","62","training","adjacent","GF","7","6","R.jpg","M.jpg","NaN","0","0","",""
"","too_slow_prompt","","html-keyboard-response","418","488149","0.0-1.0-565.0-0.0","1","0","24025","","null","","","null","","","","","","","","","","","","","","","","",""
"","time_out","","html-keyboard-response","419","490153","0.0-1.0-566.0-0.0","0","0","24025","","null","","","null","62","","","","","","","","","","","","","","","",""
"","ITI","","html-keyboard-response","420","491157","0.0-1.0-567.0","0","0","24025","","null","","","null","62","","","","","","","","","","","","","","","NaN",""
"","S1","","html-keyboard-response","421","491411","0.0-1.0-569.0","0","0","24025","","null","","","null","63","","","","","","","","","","","","","","","",""
"","ISI","","html-keyboard-response","422","491918","0.0-1.0-570.0","0","0","24025","","null","","","null","63","NaN","","","","","","","","","","","","","","",""
"","S2","","html-keyboard-response","423","492173","0.0-1.0-571.0","0","0","24025","","null","","","null","63","","NaN","","","","","","","","","","","","","",""
"","response","","html-keyboard-response","424","493523","0.0-1.0-572.0-0.0","0","0","24025","","1347","","","75","63","","","2","63","training","adjacent","CB","3","2","N.jpg","O.jpg","1","0","0","",""
"","feedback","","html-keyboard-response","425","494527","0.0-1.0-573.0-0.0","0","0","24025","","null","","","null","63","","","","","","","","","","","","","","","",""
"","time_out","","html-keyboard-response","426","496530","0.0-1.0-575.0-0.0","0","0","24025","","null","","","null","63","","","","","","","","","","","","","","","",""
"","ITI","","html-keyboard-response","427","497536","0.0-1.0-576.0","0","0","24025","","null","","","null","63","","","","","","","","","","","","","","","NaN",""
"","S1","","html-keyboard-response","428","497790","0.0-1.0-578.0","0","0","24025","","null","","","null","64","","","","","","","","","","","","","","","",""
"","ISI","","html-keyboard-response","429","498295","0.0-1.0-579.0","0","0","24025","","null","","","null","64","NaN","","","","","","","","","","","","","","",""
"","S2","","html-keyboard-response","430","498548","0.0-1.0-580.0","0","0","24025","","null","","","null","64","","NaN","","","","","","","","","","","","","",""
"","response","","html-keyboard-response","431","499594","0.0-1.0-581.0-0.0","0","0","24025","","1044","","","75","64","","","2","64","training","adjacent","CB","3","2","N.jpg","O.jpg","1","0","0","",""
"","feedback","","html-keyboard-response","432","500596","0.0-1.0-582.0-0.0","0","0","24025","","null","","","null","64","","","","","","","","","","","","","","","",""
"","time_out","","html-keyboard-response","433","502600","0.0-1.0-584.0-0.0","0","0","24025","","null","","","null","64","","","","","","","","","","","","","","","",""
"","ITI","","html-keyboard-response","434","503603","0.0-1.0-585.0","0","0","24025","","null","","","null","64","","","","","","","","","","","","","","","NaN",""
"","S1","","html-keyboard-response","435","503859","0.0-1.0-587.0","0","0","24025","","null","","","null","65","","","","","","","","","","","","","","","",""
"","ISI","","html-keyboard-response","436","504373","0.0-1.0-588.0","0","0","24025","","null","","","null","65","NaN","","","","","","","","","","","","","","",""
"","S2","","html-keyboard-response","437","504627","0.0-1.0-589.0","0","0","24025","","null","","","null","65","","NaN","","","","","","","","","","","","","",""
"","response","","html-keyboard-response","438","504827","0.0-1.0-590.0-0.0","0","0","24025","","195","","","68","65","","","2","65","training","adjacent","BC","2","3","O.jpg","N.jpg","0","1","0","",""
"","feedback","","html-keyboard-response","439","505834","0.0-1.0-591.0-0.0","0","0","24025","","null","","","null","65","","","","","","","","","","","","","","","",""
"","time_out","","html-keyboard-response","440","507839","0.0-1.0-593.0-0.0","0","0","24025","","null","","","null","65","","","","","","","","","","","","","","","",""
"","ITI","","html-keyboard-response","441","508845","0.0-1.0-594.0","0","0","24025","","null","","","null","65","","","","","","","","","","","","","","","NaN",""
"","S1","","html-keyboard-response","442","509100","0.0-1.0-596.0","0","0","24025","","null","","","null","66","","","","","","","","","","","","","","","",""
"","ISI","","html-keyboard-response","443","509603","0.0-1.0-597.0","0","0","24025","","465","","","75","66","k","","","","","","","","","","","","","","",""
"","S2","","html-keyboard-response","444","509855","0.0-1.0-598.0","0","0","24025","","null","","","null","66","","NaN","","","","","","","","","","","","","",""
"","response","","html-keyboard-response","445","510726","0.0-1.0-599.0-0.0","0","0","24025","","868","","","75","66","","","2","66","training","adjacent","CD","3","4","N.jpg","P.jpg","1","1","1","",""
"","feedback","","html-keyboard-response","446","511730","0.0-1.0-600.0-0.0","0","0","24025","","null","","","null","66","","","","","","","","","","","","","","","",""
"","ITI","","html-keyboard-response","447","512735","0.0-1.0-603.0","0","0","24025","","null","","","null","66","","","","","","","","","","","","","","","NaN",""
"","S1","","html-keyboard-response","448","512991","0.0-1.0-605.0","0","0","24025","","null","","","null","67","","","","","","","","","","","","","","","",""
"","ISI","","html-keyboard-response","449","513493","0.0-1.0-606.0","0","0","24025","","null","","","null","67","NaN","","","","","","","","","","","","","","",""
"","S2","","html-keyboard-response","450","513747","0.0-1.0-607.0","0","0","24025","","null","","","null","67","","NaN","","","","","","","","","","","","","",""
"","response","","html-keyboard-response","451","514495","0.0-1.0-608.0-0.0","0","0","24025","","744","","","75","67","","","2","67","training","adjacent","BA","2","1","O.jpg","Q.jpg","1","0","0","",""
"","feedback","","html-keyboard-response","452","515501","0.0-1.0-609.0-0.0","0","0","24025","","null","","","null","67","","","","","","","","","","","","","","","",""
"","time_out","","html-keyboard-response","453","517505","0.0-1.0-611.0-0.0","0","0","24025","","null","","","null","67","","","","","","","","","","","","","","","",""
"","ITI","","html-keyboard-response","454","518510","0.0-1.0-612.0","0","0","24025","","null","","","null","67","","","","","","","","","","","","","","","NaN",""
"","S1","","html-keyboard-response","455","518764","0.0-1.0-614.0","0","0","24025","","null","","","null","68","","","","","","","","","","","","","","","",""
"","ISI","","html-keyboard-response","456","519268","0.0-1.0-615.0","0","0","24025","","null","","","null","68","NaN","","","","","","","","","","","","","","",""
"","S2","","html-keyboard-response","457","519522","0.0-1.0-616.0","0","0","24025","","null","","","null","68","","NaN","","","","","","","","","","","","","",""
"","response","","html-keyboard-response","458","521276","0.0-1.0-617.0-0.0","0","0","24025","","null","","","null","68","","","2","68","training","adjacent","FE","6","5","M.jpg","L.jpg","NaN","0","0","",""
"","too_slow_prompt","","html-keyboard-response","459","522282","0.0-1.0-619.0-0.0","1","0","24025","","null","","","null","","","","","","","","","","","","","","","","",""
"","time_out","","html-keyboard-response","460","524288","0.0-1.0-620.0-0.0","0","0","24025","","null","","","null","68","","","","","","","","","","","","","","","",""
"","ITI","","html-keyboard-response","461","525292","0.0-1.0-621.0","0","0","24025","","null","","","null","68","","","","","","","","","","","","","","","NaN",""
"","S1","","html-keyboard-response","462","525547","0.0-1.0-623.0","0","0","24025","","null","","","null","69","","","","","","","","","","","","","","","",""
"","ISI","","html-keyboard-response","463","526051","0.0-1.0-624.0","0","0","24025","","null","","","null","69","NaN","","","","","","","","","","","","","","",""
"","S2","","html-keyboard-response","464","526306","0.0-1.0-625.0","0","0","24025","","null","","","null","69","","NaN","","","","","","","","","","","","","",""
"","response","","html-keyboard-response","465","526993","0.0-1.0-626.0-0.0","0","0","24025","","682","","","68","69","","","2","69","training","adjacent","GF","7","6","R.jpg","M.jpg","0","0","1","",""
"","feedback","","html-keyboard-response","466","527998","0.0-1.0-627.0-0.0","0","0","24025","","null","","","null","69","","","","","","","","","","","","","","","",""
"","ITI","","html-keyboard-response","467","529003","0.0-1.0-630.0","0","0","24025","","null","","","null","69","","","","","","","","","","","","","","","NaN",""
"","S1","","html-keyboard-response","468","529258","0.0-1.0-632.0","0","0","24025","","null","","","null","70","","","","","","","","","","","","","","","",""
"","ISI","","html-keyboard-response","469","529762","0.0-1.0-633.0","0","0","24025","","null","","","null","70","NaN","","","","","","","","","","","","","","",""
"","S2","","html-keyboard-response","470","530017","0.0-1.0-634.0","0","0","24025","","null","","","null","70","","NaN","","","","","","","","","","","","","",""
"","response","","html-keyboard-response","471","531772","0.0-1.0-635.0-0.0","0","0","24025","","null","","","null","70","","","2","70","training","adjacent","FG","6","7","M.jpg","R.jpg","NaN","1","0","",""
"","too_slow_prompt","","html-keyboard-response","472","532777","0.0-1.0-637.0-0.0","1","0","24025","","null","","","null","","","","","","","","","","","","","","","","",""
"","time_out","","html-keyboard-response","473","534780","0.0-1.0-638.0-0.0","0","0","24025","","null","","","null","70","","","","","","","","","","","","","","","",""
"","ITI","","html-keyboard-response","474","535784","0.0-1.0-639.0","0","0","24025","","null","","","null","70","","","","","","","","","","","","","","","NaN",""
"","S1","","html-keyboard-response","475","536039","0.0-1.0-641.0","0","0","24025","","null","","","null","71","","","","","","","","","","","","","","","",""
"","ISI","","html-keyboard-response","476","536542","0.0-1.0-642.0","0","0","24025","","null","","","null","71","NaN","","","","","","","","","","","","","","",""
"","S2","","html-keyboard-response","477","536797","0.0-1.0-643.0","0","0","24025","","null","","","null","71","","NaN","","","","","","","","","","","","","",""
"","response","","html-keyboard-response","478","538552","0.0-1.0-644.0-0.0","0","0","24025","","null","","","null","71","","","2","71","training","adjacent","CD","3","4","N.jpg","P.jpg","NaN","1","0","",""
"","too_slow_prompt","","html-keyboard-response","479","539563","0.0-1.0-646.0-0.0","1","0","24025","","null","","","null","","","","","","","","","","","","","","","","",""
"","time_out","","html-keyboard-response","480","541567","0.0-1.0-647.0-0.0","0","0","24025","","null","","","null","71","","","","","","","","","","","","","","","",""
"","ITI","","html-keyboard-response","481","542571","0.0-1.0-648.0","0","0","24025","","null","","","null","71","","","","","","","","","","","","","","","NaN",""
"","S1","","html-keyboard-response","482","542826","0.0-1.0-650.0","0","0","24025","","null","","","null","72","","","","","","","","","","","","","","","",""
"","ISI","","html-keyboard-response","483","543331","0.0-1.0-651.0","0","0","24025","","null","","","null","72","NaN","","","","","","","","","","","","","","",""
"","S2","","html-keyboard-response","484","543585","0.0-1.0-652.0","0","0","24025","","null","","","null","72","","NaN","","","","","","","","","","","","","",""
"","response","","html-keyboard-response","485","544764","0.0-1.0-653.0-0.0","0","0","24025","","1174","","","68","72","","","2","72","training","adjacent","DE","4","5","P.jpg","L.jpg","0","1","0","",""
"","feedback","","html-keyboard-response","486","545769","0.0-1.0-654.0-0.0","0","0","24025","","null","","","null","72","","","","","","","","","","","","","","","",""
"","time_out","","html-keyboard-response","487","547773","0.0-1.0-656.0-0.0","0","0","24025","","null","","","null","72","","","","","","","","","","","","","","","",""
"","ITI","","html-keyboard-response","488","548778","0.0-1.0-657.0","0","0","24025","","null","","","null","72","","","","","","","","","","","","","","","NaN",""
"","S1","","html-keyboard-response","489","549031","0.0-1.0-659.0","0","0","24025","","null","","","null","73","","","","","","","","","","","","","","","",""
"","ISI","","html-keyboard-response","490","549535","0.0-1.0-660.0","0","0","24025","","null","","","null","73","NaN","","","","","","","","","","","","","","",""
"","S2","","html-keyboard-response","491","549790","0.0-1.0-661.0","0","0","24025","","null","","","null","73","","NaN","","","","","","","","","","","","","",""
"","response","","html-keyboard-response","492","551545","0.0-1.0-662.0-0.0","0","0","24025","","null","","","null","73","","","2","73","training","adjacent","GF","7","6","R.jpg","M.jpg","NaN","0","0","",""
"","too_slow_prompt","","html-keyboard-response","493","552552","0.0-1.0-664.0-0.0","1","0","24025","","null","","","null","","","","","","","","","","","","","","","","",""
"","time_out","","html-keyboard-response","494","554558","0.0-1.0-665.0-0.0","0","0","24025","","null","","","null","73","","","","","","","","","","","","","","","",""
"","ITI","","html-keyboard-response","495","555562","0.0-1.0-666.0","0","0","24025","","null","","","null","73","","","","","","","","","","","","","","","NaN",""
"","S1","","html-keyboard-response","496","555816","0.0-1.0-668.0","0","0","24025","","null","","","null","74","","","","","","","","","","","","","","","",""
"","ISI","","html-keyboard-response","497","556321","0.0-1.0-669.0","0","0","24025","","null","","","null","74","NaN","","","","","","","","","","","","","","",""
"","S2","","html-keyboard-response","498","556576","0.0-1.0-670.0","0","0","24025","","null","","","null","74","","NaN","","","","","","","","","","","","","",""
"","response","","html-keyboard-response","499","558330","0.0-1.0-671.0-0.0","0","0","24025","","null","","","null","74","","","2","74","training","adjacent","DE","4","5","P.jpg","L.jpg","NaN","1","0","",""
"","too_slow_prompt","","html-keyboard-response","500","559333","0.0-1.0-673.0-0.0","1","0","24025","","null","","","null","","","","","","","","","","","","","","","","",""
"","time_out","","html-keyboard-response","501","561337","0.0-1.0-674.0-0.0","0","0","24025","","null","","","null","74","","","","","","","","","","","","","","","",""
"","ITI","","html-keyboard-response","502","562343","0.0-1.0-675.0","0","0","24025","","null","","","null","74","","","","","","","","","","","","","","","NaN",""
"","S1","","html-keyboard-response","503","562599","0.0-1.0-677.0","0","0","24025","","null","","","null","75","","","","","","","","","","","","","","","",""
"","ISI","","html-keyboard-response","504","563105","0.0-1.0-678.0","0","0","24025","","113","","","75","75","k","","","","","","","","","","","","","","",""
"","S2","","html-keyboard-response","505","563362","0.0-1.0-679.0","0","0","24025","","null","","","null","75","","NaN","","","","","","","","","","","","","",""
"","response","","html-keyboard-response","506","563647","0.0-1.0-680.0-0.0","0","0","24025","","282","","","75","75","","","2","75","training","adjacent","FE","6","5","M.jpg","L.jpg","1","0","0","",""
"","feedback","","html-keyboard-response","507","564654","0.0-1.0-681.0-0.0","0","0","24025","","null","","","null","75","","","","","","","","","","","","","","","",""
"","time_out","","html-keyboard-response","508","566659","0.0-1.0-683.0-0.0","0","0","24025","","null","","","null","75","","","","","","","","","","","","","","","",""
"","ITI","","html-keyboard-response","509","567661","0.0-1.0-684.0","0","0","24025","","null","","","null","75","","","","","","","","","","","","","","","NaN",""
"","S1","","html-keyboard-response","510","567914","0.0-1.0-686.0","0","0","24025","","null","","","null","76","","","","","","","","","","","","","","","",""
"","ISI","","html-keyboard-response","511","568418","0.0-1.0-687.0","0","0","24025","","null","","","null","76","NaN","","","","","","","","","","","","","","",""
"","S2","","html-keyboard-response","512","568674","0.0-1.0-688.0","0","0","24025","","null","","","null","76","","NaN","","","","","","","","","","","","","",""
"","response","","html-keyboard-response","513","570429","0.0-1.0-689.0-0.0","0","0","24025","","null","","","null","76","","","2","76","training","adjacent","DC","4","3","P.jpg","N.jpg","NaN","0","0","",""
"","too_slow_prompt","","html-keyboard-response","514","571435","0.0-1.0-691.0-0.0","1","0","24025","","null","","","null","","","","","","","","","","","","","","","","",""
"","time_out","","html-keyboard-response","515","573440","0.0-1.0-692.0-0.0","0","0","24025","","null","","","null","76","","","","","","","","","","","","","","","",""
"","ITI","","html-keyboard-response","516","574444","0.0-1.0-693.0","0","0","24025","","null","","","null","76","","","","","","","","","","","","","","","NaN",""
"","S1","","html-keyboard-response","517","574701","0.0-1.0-695.0","0","0","24025","","null","","","null","77","","","","","","","","","","","","","","","",""
"","ISI","","html-keyboard-response","518","575207","0.0-1.0-696.0","0","0","24025","","null","","","null","77","NaN","","","","","","","","","","","","","","",""
"","S2","","html-keyboard-response","519","575464","0.0-1.0-697.0","0","0","24025","","null","","","null","77","","NaN","","","","","","","","","","","","","",""
"","response","","html-keyboard-response","520","577220","0.0-1.0-698.0-0.0","0","0","24025","","null","","","null","77","","","2","77","training","adjacent","DE","4","5","P.jpg","L.jpg","NaN","1","0","",""
"","too_slow_prompt","","html-keyboard-response","521","578225","0.0-1.0-700.0-0.0","1","0","24025","","null","","","null","","","","","","","","","","","","","","","","",""
"","time_out","","html-keyboard-response","522","580232","0.0-1.0-701.0-0.0","0","0","24025","","null","","","null","77","","","","","","","","","","","","","","","",""
"","ITI","","html-keyboard-response","523","581236","0.0-1.0-702.0","0","0","24025","","null","","","null","77","","","","","","","","","","","","","","","NaN",""
"","S1","","html-keyboard-response","524","581490","0.0-1.0-704.0","0","0","24025","","null","","","null","78","","","","","","","","","","","","","","","",""
"","ISI","","html-keyboard-response","525","581995","0.0-1.0-705.0","0","0","24025","","null","","","null","78","NaN","","","","","","","","","","","","","","",""
"","S2","","html-keyboard-response","526","582252","0.0-1.0-706.0","0","0","24025","","null","","","null","78","","NaN","","","","","","","","","","","","","",""
"","response","","html-keyboard-response","527","584005","0.0-1.0-707.0-0.0","0","0","24025","","null","","","null","78","","","2","78","training","adjacent","DE","4","5","P.jpg","L.jpg","NaN","1","0","",""
"","too_slow_prompt","","html-keyboard-response","528","585009","0.0-1.0-709.0-0.0","1","0","24025","","null","","","null","","","","","","","","","","","","","","","","",""
"","time_out","","html-keyboard-response","529","587012","0.0-1.0-710.0-0.0","0","0","24025","","null","","","null","78","","","","","","","","","","","","","","","",""
"","ITI","","html-keyboard-response","530","588016","0.0-1.0-711.0","0","0","24025","","null","","","null","78","","","","","","","","","","","","","","","NaN",""
"","S1","","html-keyboard-response","531","588271","0.0-1.0-713.0","0","0","24025","","null","","","null","79","","","","","","","","","","","","","","","",""
"","ISI","","html-keyboard-response","532","588776","0.0-1.0-714.0","0","0","24025","","null","","","null","79","NaN","","","","","","","","","","","","","","",""
"","S2","","html-keyboard-response","533","589031","0.0-1.0-715.0","0","0","24025","","null","","","null","79","","NaN","","","","","","","","","","","","","",""
"","response","","html-keyboard-response","534","590785","0.0-1.0-716.0-0.0","0","0","24025","","null","","","null","79","","","2","79","training","adjacent","DC","4","3","P.jpg","N.jpg","NaN","0","0","",""
"","too_slow_prompt","","html-keyboard-response","535","591791","0.0-1.0-718.0-0.0","1","0","24025","","null","","","null","","","","","","","","","","","","","","","","",""
"","time_out","","html-keyboard-response","536","593796","0.0-1.0-719.0-0.0","0","0","24025","","null","","","null","79","","","","","","","","","","","","","","","",""
"","ITI","","html-keyboard-response","537","594801","0.0-1.0-720.0","0","0","24025","","null","","","null","79","","","","","","","","","","","","","","","NaN",""
"","S1","","html-keyboard-response","538","595057","0.0-1.0-722.0","0","0","24025","","null","","","null","80","","","","","","","","","","","","","","","",""
"","ISI","","html-keyboard-response","539","595561","0.0-1.0-723.0","0","0","24025","","null","","","null","80","NaN","","","","","","","","","","","","","","",""
"","S2","","html-keyboard-response","540","595816","0.0-1.0-724.0","0","0","24025","","null","","","null","80","","NaN","","","","","","","","","","","","","",""
"","response","","html-keyboard-response","541","597128","0.0-1.0-725.0-0.0","0","0","24025","","1307","","","68","80","","","2","80","training","adjacent","EF","5","6","L.jpg","M.jpg","0","1","0","",""
"","feedback","","html-keyboard-response","542","598133","0.0-1.0-726.0-0.0","0","0","24025","","null","","","null","80","","","","","","","","","","","","","","","",""
"","time_out","","html-keyboard-response","543","600138","0.0-1.0-728.0-0.0","0","0","24025","","null","","","null","80","","","","","","","","","","","","","","","",""
"","ITI","","html-keyboard-response","544","601142","0.0-1.0-729.0","0","0","24025","","null","","","null","80","","","","","","","","","","","","","","","NaN",""
"","S1","","html-keyboard-response","545","601398","0.0-1.0-731.0","0","0","24025","","null","","","null","81","","","","","","","","","","","","","","","",""
"","ISI","","html-keyboard-response","546","601900","0.0-1.0-732.0","0","0","24025","","null","","","null","81","NaN","","","","","","","","","","","","","","",""
"","S2","","html-keyboard-response","547","602154","0.0-1.0-733.0","0","0","24025","","null","","","null","81","","NaN","","","","","","","","","","","","","",""
"","response","","html-keyboard-response","548","603627","0.0-1.0-734.0-0.0","0","0","24025","","1470","","","75","81","","","2","81","training","adjacent","CB","3","2","N.jpg","O.jpg","1","0","0","",""
"","feedback","","html-keyboard-response","549","604633","0.0-1.0-735.0-0.0","0","0","24025","","null","","","null","81","","","","","","","","","","","","","","","",""
"","time_out","","html-keyboard-response","550","606638","0.0-1.0-737.0-0.0","0","0","24025","","null","","","null","81","","","","","","","","","","","","","","","",""
"","ITI","","html-keyboard-response","551","607642","0.0-1.0-738.0","0","0","24025","","null","","","null","81","","","","","","","","","","","","","","","NaN",""
"","S1","","html-keyboard-response","552","607897","0.0-1.0-740.0","0","0","24025","","null","","","null","82","","","","","","","","","","","","","","","",""
"","ISI","","html-keyboard-response","553","608402","0.0-1.0-741.0","0","0","24025","","null","","","null","82","NaN","","","","","","","","","","","","","","",""
"","S2","","html-keyboard-response","554","608658","0.0-1.0-742.0","0","0","24025","","null","","","null","82","","NaN","","","","","","","","","","","","","",""
"","response","","html-keyboard-response","555","609957","0.0-1.0-743.0-0.0","0","0","24025","","1294","","","75","82","","","2","82","training","adjacent","AB","1","2","Q.jpg","O.jpg","1","1","1","",""
"","feedback","","html-keyboard-response","556","610960","0.0-1.0-744.0-0.0","0","0","24025","","null","","","null","82","","","","","","","","","","","","","","","",""
"","ITI","","html-keyboard-response","557","611964","0.0-1.0-747.0","0","0","24025","","null","","","null","82","","","","","","","","","","","","","","","NaN",""
"","S1","","html-keyboard-response","558","612219","0.0-1.0-749.0","0","0","24025","","null","","","null","83","","","","","","","","","","","","","","","",""
"","ISI","","html-keyboard-response","559","612722","0.0-1.0-750.0","0","0","24025","","null","","","null","83","NaN","","","","","","","","","","","","","","",""
"","S2","","html-keyboard-response","560","612978","0.0-1.0-751.0","0","0","24025","","null","","","null","83","","NaN","","","","","","","","","","","","","",""
"","response","","html-keyboard-response","561","613147","0.0-1.0-752.0-0.0","0","0","24025","","164","","","75","83","","","2","83","training","adjacent","FE","6","5","M.jpg","L.jpg","1","0","0","",""
"","feedback","","html-keyboard-response","562","614154","0.0-1.0-753.0-0.0","0","0","24025","","null","","","null","83","","","","","","","","","","","","","","","",""
"","time_out","","html-keyboard-response","563","616161","0.0-1.0-755.0-0.0","0","0","24025","","null","","","null","83","","","","","","","","","","","","","","","",""
"","ITI","","html-keyboard-response","564","617165","0.0-1.0-756.0","0","0","24025","","null","","","null","83","","","","","","","","","","","","","","","NaN",""
"","S1","","html-keyboard-response","565","617420","0.0-1.0-758.0","0","0","24025","","null","","","null","84","","","","","","","","","","","","","","","",""
"","ISI","","html-keyboard-response","566","617925","0.0-1.0-759.0","0","0","24025","","null","","","null","84","NaN","","","","","","","","","","","","","","",""
"","S2","","html-keyboard-response","567","618180","0.0-1.0-760.0","0","0","24025","","null","","","null","84","","NaN","","","","","","","","","","","","","",""
"","response","","html-keyboard-response","568","618401","0.0-1.0-761.0-0.0","0","0","24025","","217","","","75","84","","","2","84","training","adjacent","BA","2","1","O.jpg","Q.jpg","1","0","0","",""
"","feedback","","html-keyboard-response","569","619406","0.0-1.0-762.0-0.0","0","0","24025","","null","","","null","84","","","","","","","","","","","","","","","",""
"","time_out","","html-keyboard-response","570","621409","0.0-1.0-764.0-0.0","0","0","24025","","null","","","null","84","","","","","","","","","","","","","","","",""
"","ITI","","html-keyboard-response","571","622413","0.0-1.0-765.0","0","0","24025","","null","","","null","84","","","","","","","","","","","","","","","NaN",""
"","S1","","html-keyboard-response","572","622669","0.0-1.0-767.0","0","0","24025","","null","","","null","85","","","","","","","","","","","","","","","",""
"","ISI","","html-keyboard-response","573","623174","0.0-1.0-768.0","0","0","24025","","null","","","null","85","NaN","","","","","","","","","","","","","","",""
"","S2","","html-keyboard-response","574","623430","0.0-1.0-769.0","0","0","24025","","null","","","null","85","","NaN","","","","","","","","","","","","","",""
"","response","","html-keyboard-response","575","623960","0.0-1.0-770.0-0.0","0","0","24025","","528","","","68","85","","","2","85","training","adjacent","DC","4","3","P.jpg","N.jpg","0","0","1","",""
"","feedback","","html-keyboard-response","576","624963","0.0-1.0-771.0-0.0","0","0","24025","","null","","","null","85","","","","","","","","","","","","","","","",""
"","ITI","","html-keyboard-response","577","625968","0.0-1.0-774.0","0","0","24025","","null","","","null","85","","","","","","","","","","","","","","","NaN",""
"","S1","","html-keyboard-response","578","626223","0.0-1.0-776.0","0","0","24025","","null","","","null","86","","","","","","","","","","","","","","","",""
"","ISI","","html-keyboard-response","579","626727","0.0-1.0-777.0","0","0","24025","","null","","","null","86","NaN","","","","","","","","","","","","","","",""
"","S2","","html-keyboard-response","580","626981","0.0-1.0-778.0","0","0","24025","","null","","","null","86","","NaN","","","","","","","","","","","","","",""
"","response","","html-keyboard-response","581","628062","0.0-1.0-779.0-0.0","0","0","24025","","1077","","","68","86","","","2","86","training","adjacent","BC","2","3","O.jpg","N.jpg","0","1","0","",""
