"success","ttype","start_time","trial_type","trial_index","time_elapsed","internal_node_id","warning","missed_checkup","PID","view_history","rt","responses","repeat_instructions","key_press","index","keypress_isi","keypress_S2","block","trial_num","phase","group_type","pair_type","S1_stim","S2_stim","S1_img","S2_img","S1_chosen","S1_higher","accuracy","keypress_iti","total_bonus_tally"
"true","full_screen","d04062023hr2245","fullscreen","0","14092","0.0-0.0","0","0","60150","","","","","","","","","","","","","","","","","","","","","",""
"","instructions","","instructions","1","62733","0.0-1.0-0.0-0.0","0","0","60150","[{""page_index"":0,""viewing_time"":7858},{""page_index"":1,""viewing_time"":25559},{""page_index"":2,""viewing_time"":13184},{""page_index"":3,""viewing_time"":2034}]","48636","","","","","","","","","","","","","","","","","","","",""
"","comprehension_check","","survey-multi-choice","2","105297","0.0-1.0-0.0-1.0","0","0","60150","","42558","{""Q0"":""True"",""Q1"":""D"",""Q2"":""Only when the screen 'MAKE A CHOICE' is shown"",""Q3"":""Green mark"",""Q4"":""either D or K""}","1","","","","","","","","","","","","","","","","","",""
"","missed_instruction_checkup","","html-keyboard-response","3","107315","0.0-1.0-0.0-2.0-0.0","0","1","60150","","2014","","","32","","","","","","","","","","","","","","","","",""
"","instructions","","instructions","4","114262","0.0-1.0-0.1-0.1","0","0","60150","[{""page_index"":0,""viewing_time"":1920},{""page_index"":1,""viewing_time"":2763},{""page_index"":2,""viewing_time"":1112},{""page_index"":3,""viewing_time"":1149}]","6944","","","","","","","","","","","","","","","","","","","",""
"","comprehension_check","","survey-multi-choice","5","123563","0.0-1.0-0.1-1.1","0","0","60150","","9295","{""Q0"":""False"",""Q1"":""D"",""Q2"":""Only when the screen 'MAKE A CHOICE' is shown"",""Q3"":""Green mark"",""Q4"":""either D or K""}","1","","","","","","","","","","","","","","","","","",""
"","missed_instruction_checkup","","html-keyboard-response","6","124761","0.0-1.0-0.1-2.1-0.1","0","1","60150","","1195","","","32","","","","","","","","","","","","","","","","",""
"","instructions","","instructions","7","136386","0.0-1.0-0.2-0.2","0","0","60150","[{""page_index"":0,""viewing_time"":5136},{""page_index"":1,""viewing_time"":3729},{""page_index"":2,""viewing_time"":1236},{""page_index"":3,""viewing_time"":1519}]","11620","","","","","","","","","","","","","","","","","","","",""
"","comprehension_check","","survey-multi-choice","8","149329","0.0-1.0-0.2-1.2","0","0","60150","","12936","{""Q0"":""True"",""Q1"":""D"",""Q2"":""Once the second image appears and while the screen 'MAKE A CHOICE' is shown"",""Q3"":""Green mark"",""Q4"":""either D or K""}","0","","","","","","","","","","","","","","","","","",""
"","start_exp","","html-keyboard-response","9","154206","0.0-1.0-1.0","0","0","60150","","4874","","","32","","","","","","","","","","","","","","","","",""
"","S1","","html-keyboard-response","10","154361","0.0-1.0-2.0","0","0","60150","","null","","","null","0","","","","","","","","","","","","","","","",""
"","ISI","","html-keyboard-response","11","156363","0.0-1.0-3.0","0","0","60150","","null","","","null","0","NaN","","","","","","","","","","","","","","",""
"","S2","","html-keyboard-response","12","156518","0.0-1.0-4.0","0","0","60150","","null","","","null","0","","NaN","","","","","","","","","","","","","",""
"","response","","html-keyboard-response","13","157045","0.0-1.0-5.0-0.0","0","0","60150","","524","","","68","0","","","1","0","training","adjacent","DC","4","3","O.jpg","L.jpg","1","0","0","",""
"","feedback","","html-keyboard-response","14","158049","0.0-1.0-6.0-0.0","0","0","60150","","null","","","null","0","","","","","","","","","","","","","","","",""
"","time_out","","html-keyboard-response","15","160052","0.0-1.0-8.0-0.0","0","0","60150","","null","","","null","0","","","","","","","","","","","","","","","",""
"","ITI","","html-keyboard-response","16","161056","0.0-1.0-9.0","0","0","60150","","null","","","null","0","","","","","","","","","","","","","","","NaN",""
"","S1","","html-keyboard-response","17","161209","0.0-1.0-11.0","0","0","60150","","null","","","null","1","","","","","","","","","","","","","","","",""
"","ISI","","html-keyboard-response","18","163212","0.0-1.0-12.0","0","0","60150","","null","","","null","1","NaN","","","","","","","","","","","","","","",""
"","S2","","html-keyboard-response","19","163366","0.0-1.0-13.0","0","0","60150","","null","","","null","1","","NaN","","","","","","","","","","","","","",""
"","response","","html-keyboard-response","20","163529","0.0-1.0-14.0-0.0","0","0","60150","","161","","","75","1","","","1","1","training","adjacent","DE","4","5","O.jpg","P.jpg","0","1","0","",""
"","feedback","","html-keyboard-response","21","164533","0.0-1.0-15.0-0.0","0","0","60150","","null","","","null","1","","","","","","","","","","","","","","","",""
"","time_out","","html-keyboard-response","22","166536","0.0-1.0-17.0-0.0","0","0","60150","","null","","","null","1","","","","","","","","","","","","","","","",""
"","ITI","","html-keyboard-response","23","167539","0.0-1.0-18.0","0","0","60150","","null","","","null","1","","","","","","","","","","","","","","","NaN",""
"","S1","","html-keyboard-response","24","167693","0.0-1.0-20.0","0","0","60150","","null","","","null","2","","","","","","","","","","","","","","","",""
"","ISI","","html-keyboard-response","25","169696","0.0-1.0-21.0","0","0","60150","","null","","","null","2","NaN","","","","","","","","","","","","","","",""
"","S2","","html-keyboard-response","26","169849","0.0-1.0-22.0","0","0","60150","","null","","","null","2","","NaN","","","","","","","","","","","","","",""
"","response","","html-keyboard-response","27","170027","0.0-1.0-23.0-0.0","0","0","60150","","175","","","68","2","","","1","2","training","adjacent","AB","1","2","N.jpg","M.jpg","1","1","1","",""
"","feedback","","html-keyboard-response","28","171037","0.0-1.0-24.0-0.0","0","0","60150","","null","","","null","2","","","","","","","","","","","","","","","",""
"","ITI","","html-keyboard-response","29","172041","0.0-1.0-27.0","0","0","60150","","null","","","null","2","","","","","","","","","","","","","","","NaN",""
"","S1","","html-keyboard-response","30","172194","0.0-1.0-29.0","0","0","60150","","null","","","null","3","","","","","","","","","","","","","","","",""
"","ISI","","html-keyboard-response","31","174197","0.0-1.0-30.0","0","0","60150","","null","","","null","3","NaN","","","","","","","","","","","","","","",""
"","S2","","html-keyboard-response","32","174351","0.0-1.0-31.0","0","0","60150","","null","","","null","3","","NaN","","","","","","","","","","","","","",""
"","response","","html-keyboard-response","33","174496","0.0-1.0-32.0-0.0","0","0","60150","","142","","","68","3","","","1","3","training","adjacent","BC","2","3","M.jpg","L.jpg","1","1","1","",""
"","feedback","","html-keyboard-response","34","175501","0.0-1.0-33.0-0.0","0","0","60150","","null","","","null","3","","","","","","","","","","","","","","","",""
"","ITI","","html-keyboard-response","35","176505","0.0-1.0-36.0","0","0","60150","","null","","","null","3","","","","","","","","","","","","","","","NaN",""
"","S1","","html-keyboard-response","36","176658","0.0-1.0-38.0","0","0","60150","","null","","","null","4","","","","","","","","","","","","","","","",""
"","ISI","","html-keyboard-response","37","178662","0.0-1.0-39.0","0","0","60150","","null","","","null","4","NaN","","","","","","","","","","","","","","",""
"","S2","","html-keyboard-response","38","178816","0.0-1.0-40.0","0","0","60150","","null","","","null","4","","NaN","","","","","","","","","","","","","",""
"","response","","html-keyboard-response","39","179074","0.0-1.0-41.0-0.0","0","0","60150","","256","","","68","4","","","1","4","training","adjacent","CD","3","4","L.jpg","O.jpg","1","1","1","",""
"","feedback","","html-keyboard-response","40","180078","0.0-1.0-42.0-0.0","0","0","60150","","null","","","null","4","","","","","","","","","","","","","","","",""
"","ITI","","html-keyboard-response","41","181081","0.0-1.0-45.0","0","0","60150","","null","","","null","4","","","","","","","","","","","","","","","NaN",""
"","S1","","html-keyboard-response","42","181234","0.0-1.0-47.0","0","0","60150","","null","","","null","5","","","","","","","","","","","","","","","",""
"","ISI","","html-keyboard-response","43","183237","0.0-1.0-48.0","0","0","60150","","null","","","null","5","NaN","","","","","","","","","","","","","","",""
"","S2","","html-keyboard-response","44","183390","0.0-1.0-49.0","0","0","60150","","null","","","null","5","","NaN","","","","","","","","","","","","","",""
"","response","","html-keyboard-response","45","183711","0.0-1.0-50.0-0.0","0","0","60150","","319","","","68","5","","","1","5","training","adjacent","DC","4","3","O.jpg","L.jpg","1","0","0","",""
"","feedback","","html-keyboard-response","46","184715","0.0-1.0-51.0-0.0","0","0","60150","","null","","","null","5","","","","","","","","","","","","","","","",""
"","time_out","","html-keyboard-response","47","186719","0.0-1.0-53.0-0.0","0","0","60150","","null","","","null","5","","","","","","","","","","","","","","","",""
"","ITI","","html-keyboard-response","48","187722","0.0-1.0-54.0","0","0","60150","","null","","","null","5","","","","","","","","","","","","","","","NaN",""
"","S1","","html-keyboard-response","49","187876","0.0-1.0-56.0","0","0","60150","","null","","","null","6","","","","","","","","","","","","","","","",""
"","ISI","","html-keyboard-response","50","189879","0.0-1.0-57.0","0","0","60150","","null","","","null","6","NaN","","","","","","","","","","","","","","",""
"","S2","","html-keyboard-response","51","190034","0.0-1.0-58.0","0","0","60150","","null","","","null","6","","NaN","","","","","","","","","","","","","",""
"","response","","html-keyboard-response","52","190206","0.0-1.0-59.0-0.0","0","0","60150","","169","","","75","6","","","1","6","training","adjacent","ED","5","4","P.jpg","O.jpg","0","0","1","",""
"","feedback","","html-keyboard-response","53","191210","0.0-1.0-60.0-0.0","0","0","60150","","null","","","null","6","","","","","","","","","","","","","","","",""
"","ITI","","html-keyboard-response","54","192213","0.0-1.0-63.0","0","0","60150","","null","","","null","6","","","","","","","","","","","","","","","NaN",""
"","S1","","html-keyboard-response","55","192368","0.0-1.0-65.0","0","0","60150","","null","","","null","7","","","","","","","","","","","","","","","",""
"","ISI","","html-keyboard-response","56","194373","0.0-1.0-66.0","0","0","60150","","null","","","null","7","NaN","","","","","","","","","","","","","","",""
"","S2","","html-keyboard-response","57","194526","0.0-1.0-67.0","0","0","60150","","null","","","null","7","","NaN","","","","","","","","","","","","","",""
"","response","","html-keyboard-response","58","194805","0.0-1.0-68.0-0.0","0","0","60150","","275","","","75","7","","","1","7","training","adjacent","BC","2","3","M.jpg","L.jpg","0","1","0","",""
"","feedback","","html-keyboard-response","59","195808","0.0-1.0-69.0-0.0","0","0","60150","","null","","","null","7","","","","","","","","","","","","","","","",""
"","time_out","","html-keyboard-response","60","197811","0.0-1.0-71.0-0.0","0","0","60150","","null","","","null","7","","","","","","","","","","","","","","","",""
"","ITI","","html-keyboard-response","61","198815","0.0-1.0-72.0","0","0","60150","","null","","","null","7","","","","","","","","","","","","","","","NaN",""
"","S1","","html-keyboard-response","62","198969","0.0-1.0-74.0","0","0","60150","","null","","","null","8","","","","","","","","","","","","","","","",""
"","ISI","","html-keyboard-response","63","200971","0.0-1.0-75.0","0","0","60150","","null","","","null","8","NaN","","","","","","","","","","","","","","",""
"","S2","","html-keyboard-response","64","201125","0.0-1.0-76.0","0","0","60150","","null","","","null","8","","NaN","","","","","","","","","","","","","",""
"","response","","html-keyboard-response","65","201558","0.0-1.0-77.0-0.0","0","0","60150","","430","","","68","8","","","1","8","training","adjacent","DC","4","3","O.jpg","L.jpg","1","0","0","",""
"","feedback","","html-keyboard-response","66","202562","0.0-1.0-78.0-0.0","0","0","60150","","null","","","null","8","","","","","","","","","","","","","","","",""
"","time_out","","html-keyboard-response","67","204566","0.0-1.0-80.0-0.0","0","0","60150","","null","","","null","8","","","","","","","","","","","","","","","",""
"","ITI","","html-keyboard-response","68","205570","0.0-1.0-81.0","0","0","60150","","null","","","null","8","","","","","","","","","","","","","","","NaN",""
"","S1","","html-keyboard-response","69","205723","0.0-1.0-83.0","0","0","60150","","null","","","null","9","","","","","","","","","","","","","","","",""
"","ISI","","html-keyboard-response","70","207727","0.0-1.0-84.0","0","0","60150","","null","","","null","9","NaN","","","","","","","","","","","","","","",""
"","S2","","html-keyboard-response","71","207880","0.0-1.0-85.0","0","0","60150","","null","","","null","9","","NaN","","","","","","","","","","","","","",""
"","response","","html-keyboard-response","72","208160","0.0-1.0-86.0-0.0","0","0","60150","","276","","","75","9","","","1","9","training","adjacent","CD","3","4","L.jpg","O.jpg","0","1","0","",""
"","feedback","","html-keyboard-response","73","209165","0.0-1.0-87.0-0.0","0","0","60150","","null","","","null","9","","","","","","","","","","","","","","","",""
"","time_out","","html-keyboard-response","74","211169","0.0-1.0-89.0-0.0","0","0","60150","","null","","","null","9","","","","","","","","","","","","","","","",""
"","ITI","","html-keyboard-response","75","212172","0.0-1.0-90.0","0","0","60150","","null","","","null","9","","","","","","","","","","","","","","","NaN",""
"","S1","","html-keyboard-response","76","212326","0.0-1.0-92.0","0","0","60150","","null","","","null","10","","","","","","","","","","","","","","","",""
"","ISI","","html-keyboard-response","77","214330","0.0-1.0-93.0","0","0","60150","","314","","","68","10","d","","","","","","","","","","","","","","",""
"","S2","","html-keyboard-response","78","214484","0.0-1.0-94.0","0","0","60150","","null","","","null","10","","NaN","","","","","","","","","","","","","",""
"","response","","html-keyboard-response","79","214922","0.0-1.0-95.0-0.0","0","0","60150","","436","","","68","10","","","1","10","training","adjacent","CB","3","2","L.jpg","M.jpg","1","0","0","",""
"","feedback","","html-keyboard-response","80","215924","0.0-1.0-96.0-0.0","0","0","60150","","null","","","null","10","","","","","","","","","","","","","","","",""
"","time_out","","html-keyboard-response","81","217928","0.0-1.0-98.0-0.0","0","0","60150","","null","","","null","10","","","","","","","","","","","","","","","",""
"","ITI","","html-keyboard-response","82","218930","0.0-1.0-99.0","0","0","60150","","null","","","null","10","","","","","","","","","","","","","","","NaN",""
"","S1","","html-keyboard-response","83","219084","0.0-1.0-101.0","0","0","60150","","null","","","null","11","","","","","","","","","","","","","","","",""
"","ISI","","html-keyboard-response","84","221088","0.0-1.0-102.0","0","0","60150","","null","","","null","11","NaN","","","","","","","","","","","","","","",""
"","S2","","html-keyboard-response","85","221241","0.0-1.0-103.0","0","0","60150","","null","","","null","11","","NaN","","","","","","","","","","","","","",""
"","response","","html-keyboard-response","86","221647","0.0-1.0-104.0-0.0","0","0","60150","","402","","","68","11","","","1","11","training","adjacent","FG","6","7","Q.jpg","R.jpg","1","1","1","",""
"","feedback","","html-keyboard-response","87","222651","0.0-1.0-105.0-0.0","0","0","60150","","null","","","null","11","","","","","","","","","","","","","","","",""
"","ITI","","html-keyboard-response","88","223654","0.0-1.0-108.0","0","0","60150","","null","","","null","11","","","","","","","","","","","","","","","NaN",""
"","S1","","html-keyboard-response","89","223808","0.0-1.0-110.0","0","0","60150","","null","","","null","12","","","","","","","","","","","","","","","",""
"","ISI","","html-keyboard-response","90","225811","0.0-1.0-111.0","0","0","60150","","null","","","null","12","NaN","","","","","","","","","","","","","","",""
"","S2","","html-keyboard-response","91","225964","0.0-1.0-112.0","0","0","60150","","null","","","null","12","","NaN","","","","","","","","","","","","","",""
"","response","","html-keyboard-response","92","226376","0.0-1.0-113.0-0.0","0","0","60150","","408","","","68","12","","","1","12","training","adjacent","GF","7","6","R.jpg","Q.jpg","1","0","0","",""
"","feedback","","html-keyboard-response","93","227380","0.0-1.0-114.0-0.0","0","0","60150","","null","","","null","12","","","","","","","","","","","","","","","",""
"","time_out","","html-keyboard-response","94","229384","0.0-1.0-116.0-0.0","0","0","60150","","null","","","null","12","","","","","","","","","","","","","","","",""
"","ITI","","html-keyboard-response","95","230398","0.0-1.0-117.0","0","0","60150","","null","","","null","12","","","","","","","","","","","","","","","NaN",""
"","S1","","html-keyboard-response","96","230551","0.0-1.0-119.0","0","0","60150","","null","","","null","13","","","","","","","","","","","","","","","",""
"","ISI","","html-keyboard-response","97","232554","0.0-1.0-120.0","0","0","60150","","null","","","null","13","NaN","","","","","","","","","","","","","","",""
"","S2","","html-keyboard-response","98","232720","0.0-1.0-121.0","0","0","60150","","null","","","null","13","","NaN","","","","","","","","","","","","","",""
"","response","","html-keyboard-response","99","233034","0.0-1.0-122.0-0.0","0","0","60150","","312","","","68","13","","","1","13","training","adjacent","ED","5","4","P.jpg","O.jpg","1","0","0","",""
"","feedback","","html-keyboard-response","100","234038","0.0-1.0-123.0-0.0","0","0","60150","","null","","","null","13","","","","","","","","","","","","","","","",""
"","time_out","","html-keyboard-response","101","236042","0.0-1.0-125.0-0.0","0","0","60150","","null","","","null","13","","","","","","","","","","","","","","","",""
"","ITI","","html-keyboard-response","102","237045","0.0-1.0-126.0","0","0","60150","","null","","","null","13","","","","","","","","","","","","","","","NaN",""
"","S1","","html-keyboard-response","103","237204","0.0-1.0-128.0","0","0","60150","","null","","","null","14","","","","","","","","","","","","","","","",""
"","ISI","","html-keyboard-response","104","239207","0.0-1.0-129.0","0","0","60150","","null","","","null","14","NaN","","","","","","","","","","","","","","",""
"","S2","","html-keyboard-response","105","239360","0.0-1.0-130.0","0","0","60150","","null","","","null","14","","NaN","","","","","","","","","","","","","",""
"","response","","html-keyboard-response","106","239839","0.0-1.0-131.0-0.0","0","0","60150","","476","","","75","14","","","1","14","training","adjacent","GF","7","6","R.jpg","Q.jpg","0","0","1","",""
"","feedback","","html-keyboard-response","107","240843","0.0-1.0-132.0-0.0","0","0","60150","","null","","","null","14","","","","","","","","","","","","","","","",""
"","ITI","","html-keyboard-response","108","241847","0.0-1.0-135.0","0","0","60150","","null","","","null","14","","","","","","","","","","","","","","","NaN",""
"","S1","","html-keyboard-response","109","242001","0.0-1.0-137.0","0","0","60150","","null","","","null","15","","","","","","","","","","","","","","","",""
"","ISI","","html-keyboard-response","110","244004","0.0-1.0-138.0","0","0","60150","","null","","","null","15","NaN","","","","","","","","","","","","","","",""
"","S2","","html-keyboard-response","111","244158","0.0-1.0-139.0","0","0","60150","","null","","","null","15","","NaN","","","","","","","","","","","","","",""
"","response","","html-keyboard-response","112","244370","0.0-1.0-140.0-0.0","0","0","60150","","210","","","75","15","","","1","15","training","adjacent","GF","7","6","R.jpg","Q.jpg","0","0","1","",""
"","feedback","","html-keyboard-response","113","245374","0.0-1.0-141.0-0.0","0","0","60150","","null","","","null","15","","","","","","","","","","","","","","","",""
"","ITI","","html-keyboard-response","114","246379","0.0-1.0-144.0","0","0","60150","","null","","","null","15","","","","","","","","","","","","","","","NaN",""
"","S1","","html-keyboard-response","115","246532","0.0-1.0-146.0","0","0","60150","","null","","","null","16","","","","","","","","","","","","","","","",""
"","ISI","","html-keyboard-response","116","248535","0.0-1.0-147.0","0","0","60150","","null","","","null","16","NaN","","","","","","","","","","","","","","",""
"","S2","","html-keyboard-response","117","248689","0.0-1.0-148.0","0","0","60150","","null","","","null","16","","NaN","","","","","","","","","","","","","",""
"","response","","html-keyboard-response","118","249091","0.0-1.0-149.0-0.0","0","0","60150","","399","","","68","16","","","1","16","training","adjacent","FG","6","7","Q.jpg","R.jpg","1","1","1","",""
"","feedback","","html-keyboard-response","119","250098","0.0-1.0-150.0-0.0","0","0","60150","","null","","","null","16","","","","","","","","","","","","","","","",""
"","ITI","","html-keyboard-response","120","251101","0.0-1.0-153.0","0","0","60150","","null","","","null","16","","","","","","","","","","","","","","","NaN",""
"","S1","","html-keyboard-response","121","251253","0.0-1.0-155.0","0","0","60150","","null","","","null","17","","","","","","","","","","","","","","","",""
"","ISI","","html-keyboard-response","122","253257","0.0-1.0-156.0","0","0","60150","","null","","","null","17","NaN","","","","","","","","","","","","","","",""
"","S2","","html-keyboard-response","123","253410","0.0-1.0-157.0","0","0","60150","","null","","","null","17","","NaN","","","","","","","","","","","","","",""
"","response","","html-keyboard-response","124","253664","0.0-1.0-158.0-0.0","0","0","60150","","251","","","75","17","","","1","17","training","adjacent","DE","4","5","O.jpg","P.jpg","0","1","0","",""
"","feedback","","html-keyboard-response","125","254682","0.0-1.0-159.0-0.0","0","0","60150","","null","","","null","17","","","","","","","","","","","","","","","",""
"","time_out","","html-keyboard-response","126","256686","0.0-1.0-161.0-0.0","0","0","60150","","null","","","null","17","","","","","","","","","","","","","","","",""
"","ITI","","html-keyboard-response","127","257690","0.0-1.0-162.0","0","0","60150","","null","","","null","17","","","","","","","","","","","","","","","NaN",""
"","S1","","html-keyboard-response","128","257843","0.0-1.0-164.0","0","0","60150","","null","","","null","18","","","","","","","","","","","","","","","",""
"","ISI","","html-keyboard-response","129","259847","0.0-1.0-165.0","0","0","60150","","null","","","null","18","NaN","","","","","","","","","","","","","","",""
"","S2","","html-keyboard-response","130","260000","0.0-1.0-166.0","0","0","60150","","null","","","null","18","","NaN","","","","","","","","","","","","","",""
"","response","","html-keyboard-response","131","260451","0.0-1.0-167.0-0.0","0","0","60150","","447","","","68","18","","","1","18","training","adjacent","DE","4","5","O.jpg","P.jpg","1","1","1","",""
"","feedback","","html-keyboard-response","132","261454","0.0-1.0-168.0-0.0","0","0","60150","","null","","","null","18","","","","","","","","","","","","","","","",""
"","ITI","","html-keyboard-response","133","262457","0.0-1.0-171.0","0","0","60150","","null","","","null","18","","","","","","","","","","","","","","","NaN",""
"","S1","","html-keyboard-response","134","262611","0.0-1.0-173.0","0","0","60150","","null","","","null","19","","","","","","","","","","","","","","","",""
"","ISI","","html-keyboard-response","135","264614","0.0-1.0-174.0","0","0","60150","","null","","","null","19","NaN","","","","","","","","","","","","","","",""
"","S2","","html-keyboard-response","136","264768","0.0-1.0-175.0","0","0","60150","","null","","","null","19","","NaN","","","","","","","","","","","","","",""
"","response","","html-keyboard-response","137","265223","0.0-1.0-176.0-0.0","0","0","60150","","451","","","68","19","","","1","19","training","adjacent","EF","5","6","P.jpg","Q.jpg","1","1","1","",""
"","feedback","","html-keyboard-response","138","266228","0.0-1.0-177.0-0.0","0","0","60150","","null","","","null","19","","","","","","","","","","","","","","","",""
"","ITI","","html-keyboard-response","139","267231","0.0-1.0-180.0","0","0","60150","","null","","","null","19","","","","","","","","","","","","","","","NaN",""
"","S1","","html-keyboard-response","140","267384","0.0-1.0-182.0","0","0","60150","","null","","","null","20","","","","","","","","","","","","","","","",""
"","ISI","","html-keyboard-response","141","269388","0.0-1.0-183.0","0","0","60150","","null","","","null","20","NaN","","","","","","","","","","","","","","",""
"","S2","","html-keyboard-response","142","269541","0.0-1.0-184.0","0","0","60150","","null","","","null","20","","NaN","","","","","","","","","","","","","",""
"","response","","html-keyboard-response","143","269929","0.0-1.0-185.0-0.0","0","0","60150","","384","","","68","20","","","1","20","training","adjacent","CD","3","4","L.jpg","O.jpg","1","1","1","",""
"","feedback","","html-keyboard-response","144","270933","0.0-1.0-186.0-0.0","0","0","60150","","null","","","null","20","","","","","","","","","","","","","","","",""
"","ITI","","html-keyboard-response","145","271937","0.0-1.0-189.0","0","0","60150","","null","","","null","20","","","","","","","","","","","","","","","NaN",""
"","S1","","html-keyboard-response","146","272091","0.0-1.0-191.0","0","0","60150","","null","","","null","21","","","","","","","","","","","","","","","",""
"","ISI","","html-keyboard-response","147","274094","0.0-1.0-192.0","0","0","60150","","null","","","null","21","NaN","","","","","","","","","","","","","","",""
"","S2","","html-keyboard-response","148","274248","0.0-1.0-193.0","0","0","60150","","null","","","null","21","","NaN","","","","","","","","","","","","","",""
"","response","","html-keyboard-response","149","274504","0.0-1.0-194.0-0.0","0","0","60150","","252","","","75","21","","","1","21","training","adjacent","GF","7","6","R.jpg","Q.jpg","0","0","1","",""
"","feedback","","html-keyboard-response","150","275507","0.0-1.0-195.0-0.0","0","0","60150","","null","","","null","21","","","","","","","","","","","","","","","",""
"","ITI","","html-keyboard-response","151","276511","0.0-1.0-198.0","0","0","60150","","null","","","null","21","","","","","","","","","","","","","","","NaN",""
"","S1","","html-keyboard-response","152","276664","0.0-1.0-200.0","0","0","60150","","null","","","null","22","","","","","","","","","","","","","","","",""
"","ISI","","html-keyboard-response","153","278669","0.0-1.0-201.0","0","0","60150","","null","","","null","22","NaN","","","","","","","","","","","","","","",""
"","S2","","html-keyboard-response","154","278822","0.0-1.0-202.0","0","0","60150","","null","","","null","22","","NaN","","","","","","","","","","","","","",""
"","response","","html-keyboard-response","155","279065","0.0-1.0-203.0-0.0","0","0","60150","","239","","","75","22","","","1","22","training","adjacent","BA","2","1","M.jpg","N.jpg","0","0","1","",""
"","feedback","","html-keyboard-response","156","280069","0.0-1.0-204.0-0.0","0","0","60150","","null","","","null","22","","","","","","","","","","","","","","","",""
"","ITI","","html-keyboard-response","157","281073","0.0-1.0-207.0","0","0","60150","","null","","","null","22","","","","","","","","","","","","","","","NaN",""
"","S1","","html-keyboard-response","158","281226","0.0-1.0-209.0","0","0","60150","","null","","","null","23","","","","","","","","","","","","","","","",""
"","ISI","","html-keyboard-response","159","283229","0.0-1.0-210.0","0","0","60150","","null","","","null","23","NaN","","","","","","","","","","","","","","",""
"","S2","","html-keyboard-response","160","283383","0.0-1.0-211.0","0","0","60150","","null","","","null","23","","NaN","","","","","","","","","","","","","",""
"","response","","html-keyboard-response","161","283542","0.0-1.0-212.0-0.0","0","0","60150","","155","","","68","23","","","1","23","training","adjacent","AB","1","2","N.jpg","M.jpg","1","1","1","",""
"","feedback","","html-keyboard-response","162","284546","0.0-1.0-213.0-0.0","0","0","60150","","null","","","null","23","","","","","","","","","","","","","","","",""
"","ITI","","html-keyboard-response","163","285549","0.0-1.0-216.0","0","0","60150","","null","","","null","23","","","","","","","","","","","","","","","NaN",""
"","S1","","html-keyboard-response","164","285701","0.0-1.0-218.0","0","0","60150","","null","","","null","24","","","","","","","","","","","","","","","",""
"","ISI","","html-keyboard-response","165","287704","0.0-1.0-219.0","0","0","60150","","null","","","null","24","NaN","","","","","","","","","","","","","","",""
"","S2","","html-keyboard-response","166","287868","0.0-1.0-220.0","0","0","60150","","null","","","null","24","","NaN","","","","","","","","","","","","","",""
"","response","","html-keyboard-response","167","288029","0.0-1.0-221.0-0.0","0","0","60150","","158","","","75","24","","","1","24","training","adjacent","BA","2","1","M.jpg","N.jpg","0","0","1","",""
"","feedback","","html-keyboard-response","168","289033","0.0-1.0-222.0-0.0","0","0","60150","","null","","","null","24","","","","","","","","","","","","","","","",""
"","ITI","","html-keyboard-response","169","290037","0.0-1.0-225.0","0","0","60150","","null","","","null","24","","","","","","","","","","","","","","","NaN",""
"","S1","","html-keyboard-response","170","290190","0.0-1.0-227.0","0","0","60150","","null","","","null","25","","","","","","","","","","","","","","","",""
"","ISI","","html-keyboard-response","171","292193","0.0-1.0-228.0","0","0","60150","","null","","","null","25","NaN","","","","","","","","","","","","","","",""
"","S2","","html-keyboard-response","172","292348","0.0-1.0-229.0","0","0","60150","","null","","","null","25","","NaN","","","","","","","","","","","","","",""
"","response","","html-keyboard-response","173","292526","0.0-1.0-230.0-0.0","0","0","60150","","175","","","68","25","","","1","25","training","adjacent","FE","6","5","Q.jpg","P.jpg","1","0","0","",""
"","feedback","","html-keyboard-response","174","293529","0.0-1.0-231.0-0.0","0","0","60150","","null","","","null","25","","","","","","","","","","","","","","","",""
"","time_out","","html-keyboard-response","175","295532","0.0-1.0-233.0-0.0","0","0","60150","","null","","","null","25","","","","","","","","","","","","","","","",""
"","ITI","","html-keyboard-response","176","296542","0.0-1.0-234.0","0","0","60150","","null","","","null","25","","","","","","","","","","","","","","","NaN",""
"","S1","","html-keyboard-response","177","296696","0.0-1.0-236.0","0","0","60150","","null","","","null","26","","","","","","","","","","","","","","","",""
"","ISI","","html-keyboard-response","178","298700","0.0-1.0-237.0","0","0","60150","","null","","","null","26","NaN","","","","","","","","","","","","","","",""
"","S2","","html-keyboard-response","179","298854","0.0-1.0-238.0","0","0","60150","","null","","","null","26","","NaN","","","","","","","","","","","","","",""
"","response","","html-keyboard-response","180","299497","0.0-1.0-239.0-0.0","0","0","60150","","640","","","68","26","","","1","26","training","adjacent","AB","1","2","N.jpg","M.jpg","1","1","1","",""
"","feedback","","html-keyboard-response","181","300501","0.0-1.0-240.0-0.0","0","0","60150","","null","","","null","26","","","","","","","","","","","","","","","",""
"","ITI","","html-keyboard-response","182","301504","0.0-1.0-243.0","0","0","60150","","null","","","null","26","","","","","","","","","","","","","","","NaN",""
"","S1","","html-keyboard-response","183","301658","0.0-1.0-245.0","0","0","60150","","null","","","null","27","","","","","","","","","","","","","","","",""
"","ISI","","html-keyboard-response","184","303660","0.0-1.0-246.0","0","0","60150","","null","","","null","27","NaN","","","","","","","","","","","","","","",""
"","S2","","html-keyboard-response","185","303814","0.0-1.0-247.0","0","0","60150","","null","","","null","27","","NaN","","","","","","","","","","","","","",""
"","response","","html-keyboard-response","186","304058","0.0-1.0-248.0-0.0","0","0","60150","","240","","","68","27","","","1","27","training","adjacent","CB","3","2","L.jpg","M.jpg","1","0","0","",""
"","feedback","","html-keyboard-response","187","305066","0.0-1.0-249.0-0.0","0","0","60150","","null","","","null","27","","","","","","","","","","","","","","","",""
"","time_out","","html-keyboard-response","188","307069","0.0-1.0-251.0-0.0","0","0","60150","","null","","","null","27","","","","","","","","","","","","","","","",""
"","ITI","","html-keyboard-response","189","308072","0.0-1.0-252.0","0","0","60150","","null","","","null","27","","","","","","","","","","","","","","","NaN",""
"","S1","","html-keyboard-response","190","308226","0.0-1.0-254.0","0","0","60150","","null","","","null","28","","","","","","","","","","","","","","","",""
"","ISI","","html-keyboard-response","191","310228","0.0-1.0-255.0","0","0","60150","","null","","","null","28","NaN","","","","","","","","","","","","","","",""
"","S2","","html-keyboard-response","192","310381","0.0-1.0-256.0","0","0","60150","","null","","","null","28","","NaN","","","","","","","","","","","","","",""
"","response","","html-keyboard-response","193","310556","0.0-1.0-257.0-0.0","0","0","60150","","172","","","75","28","","","1","28","training","adjacent","EF","5","6","P.jpg","Q.jpg","0","1","0","",""
"","feedback","","html-keyboard-response","194","311559","0.0-1.0-258.0-0.0","0","0","60150","","null","","","null","28","","","","","","","","","","","","","","","",""
"","time_out","","html-keyboard-response","195","313563","0.0-1.0-260.0-0.0","0","0","60150","","null","","","null","28","","","","","","","","","","","","","","","",""
"","ITI","","html-keyboard-response","196","314567","0.0-1.0-261.0","0","0","60150","","null","","","null","28","","","","","","","","","","","","","","","NaN",""
"","S1","","html-keyboard-response","197","314720","0.0-1.0-263.0","0","0","60150","","null","","","null","29","","","","","","","","","","","","","","","",""
"","ISI","","html-keyboard-response","198","316723","0.0-1.0-264.0","0","0","60150","","null","","","null","29","NaN","","","","","","","","","","","","","","",""
"","S2","","html-keyboard-response","199","316876","0.0-1.0-265.0","0","0","60150","","null","","","null","29","","NaN","","","","","","","","","","","","","",""
"","response","","html-keyboard-response","200","317155","0.0-1.0-266.0-0.0","0","0","60150","","275","","","75","29","","","1","29","training","adjacent","BC","2","3","M.jpg","L.jpg","0","1","0","",""
"","feedback","","html-keyboard-response","201","318158","0.0-1.0-267.0-0.0","0","0","60150","","null","","","null","29","","","","","","","","","","","","","","","",""
"","time_out","","html-keyboard-response","202","320161","0.0-1.0-269.0-0.0","0","0","60150","","null","","","null","29","","","","","","","","","","","","","","","",""
"","ITI","","html-keyboard-response","203","321166","0.0-1.0-270.0","0","0","60150","","null","","","null","29","","","","","","","","","","","","","","","NaN",""
"","S1","","html-keyboard-response","204","321320","0.0-1.0-272.0","0","0","60150","","null","","","null","30","","","","","","","","","","","","","","","",""
"","ISI","","html-keyboard-response","205","323323","0.0-1.0-273.0","0","0","60150","","null","","","null","30","NaN","","","","","","","","","","","","","","",""
"","S2","","html-keyboard-response","206","323477","0.0-1.0-274.0","0","0","60150","","null","","","null","30","","NaN","","","","","","","","","","","","","",""
"","response","","html-keyboard-response","207","323636","0.0-1.0-275.0-0.0","0","0","60150","","155","","","68","30","","","1","30","training","adjacent","FE","6","5","Q.jpg","P.jpg","1","0","0","",""
"","feedback","","html-keyboard-response","208","324639","0.0-1.0-276.0-0.0","0","0","60150","","null","","","null","30","","","","","","","","","","","","","","","",""
"","time_out","","html-keyboard-response","209","326642","0.0-1.0-278.0-0.0","0","0","60150","","null","","","null","30","","","","","","","","","","","","","","","",""
"","ITI","","html-keyboard-response","210","327646","0.0-1.0-279.0","0","0","60150","","null","","","null","30","","","","","","","","","","","","","","","NaN",""
"","S1","","html-keyboard-response","211","327800","0.0-1.0-281.0","0","0","60150","","null","","","null","31","","","","","","","","","","","","","","","",""
"","ISI","","html-keyboard-response","212","329802","0.0-1.0-282.0","0","0","60150","","null","","","null","31","NaN","","","","","","","","","","","","","","",""
"","S2","","html-keyboard-response","213","329956","0.0-1.0-283.0","0","0","60150","","null","","","null","31","","NaN","","","","","","","","","","","","","",""
"","response","","html-keyboard-response","214","330136","0.0-1.0-284.0-0.0","0","0","60150","","177","","","68","31","","","1","31","training","adjacent","CB","3","2","L.jpg","M.jpg","1","0","0","",""
"","feedback","","html-keyboard-response","215","331140","0.0-1.0-285.0-0.0","0","0","60150","","null","","","null","31","","","","","","","","","","","","","","","",""
"","time_out","","html-keyboard-response","216","333143","0.0-1.0-287.0-0.0","0","0","60150","","null","","","null","31","","","","","","","","","","","","","","","",""
"","ITI","","html-keyboard-response","217","334148","0.0-1.0-288.0","0","0","60150","","null","","","null","31","","","","","","","","","","","","","","","NaN",""
"","S1","","html-keyboard-response","218","334302","0.0-1.0-290.0","0","0","60150","","null","","","null","32","","","","","","","","","","","","","","","",""
"","ISI","","html-keyboard-response","219","336305","0.0-1.0-291.0","0","0","60150","","null","","","null","32","NaN","","","","","","","","","","","","","","",""
"","S2","","html-keyboard-response","220","336458","0.0-1.0-292.0","0","0","60150","","null","","","null","32","","NaN","","","","","","","","","","","","","",""
"","response","","html-keyboard-response","221","336598","0.0-1.0-293.0-0.0","0","0","60150","","135","","","68","32","","","1","32","training","adjacent","FE","6","5","Q.jpg","P.jpg","1","0","0","",""
"","feedback","","html-keyboard-response","222","337602","0.0-1.0-294.0-0.0","0","0","60150","","null","","","null","32","","","","","","","","","","","","","","","",""
"","time_out","","html-keyboard-response","223","339605","0.0-1.0-296.0-0.0","0","0","60150","","null","","","null","32","","","","","","","","","","","","","","","",""
"","ITI","","html-keyboard-response","224","340609","0.0-1.0-297.0","0","0","60150","","null","","","null","32","","","","","","","","","","","","","","","NaN",""
"","S1","","html-keyboard-response","225","340762","0.0-1.0-299.0","0","0","60150","","null","","","null","33","","","","","","","","","","","","","","","",""
"","ISI","","html-keyboard-response","226","342766","0.0-1.0-300.0","0","0","60150","","null","","","null","33","NaN","","","","","","","","","","","","","","",""
"","S2","","html-keyboard-response","227","342919","0.0-1.0-301.0","0","0","60150","","null","","","null","33","","NaN","","","","","","","","","","","","","",""
"","response","","html-keyboard-response","228","343071","0.0-1.0-302.0-0.0","0","0","60150","","150","","","75","33","","","1","33","training","adjacent","ED","5","4","P.jpg","O.jpg","0","0","1","",""
"","feedback","","html-keyboard-response","229","344075","0.0-1.0-303.0-0.0","0","0","60150","","null","","","null","33","","","","","","","","","","","","","","","",""
"","ITI","","html-keyboard-response","230","345079","0.0-1.0-306.0","0","0","60150","","null","","","null","33","","","","","","","","","","","","","","","NaN",""
"","S1","","html-keyboard-response","231","345233","0.0-1.0-308.0","0","0","60150","","null","","","null","34","","","","","","","","","","","","","","","",""
"","ISI","","html-keyboard-response","232","347236","0.0-1.0-309.0","0","0","60150","","null","","","null","34","NaN","","","","","","","","","","","","","","",""
"","S2","","html-keyboard-response","233","347389","0.0-1.0-310.0","0","0","60150","","null","","","null","34","","NaN","","","","","","","","","","","","","",""
"","response","","html-keyboard-response","234","347520","0.0-1.0-311.0-0.0","0","0","60150","","127","","","75","34","","","1","34","training","adjacent","BC","2","3","M.jpg","L.jpg","0","1","0","",""
"","feedback","","html-keyboard-response","235","348523","0.0-1.0-312.0-0.0","0","0","60150","","null","","","null","34","","","","","","","","","","","","","","","",""
"","time_out","","html-keyboard-response","236","350527","0.0-1.0-314.0-0.0","0","0","60150","","null","","","null","34","","","","","","","","","","","","","","","",""
"","ITI","","html-keyboard-response","237","351529","0.0-1.0-315.0","0","0","60150","","null","","","null","34","","","","","","","","","","","","","","","NaN",""
"","S1","","html-keyboard-response","238","351683","0.0-1.0-317.0","0","0","60150","","null","","","null","35","","","","","","","","","","","","","","","",""
"","ISI","","html-keyboard-response","239","353686","0.0-1.0-318.0","0","0","60150","","null","","","null","35","NaN","","","","","","","","","","","","","","",""
"","S2","","html-keyboard-response","240","353839","0.0-1.0-319.0","0","0","60150","","null","","","null","35","","NaN","","","","","","","","","","","","","",""
"","response","","html-keyboard-response","241","353912","0.0-1.0-320.0-0.0","0","0","60150","","69","","","68","35","","","1","35","training","adjacent","FE","6","5","Q.jpg","P.jpg","1","0","0","",""
"","feedback","","html-keyboard-response","242","354916","0.0-1.0-321.0-0.0","0","0","60150","","null","","","null","35","","","","","","","","","","","","","","","",""
"","time_out","","html-keyboard-response","243","356919","0.0-1.0-323.0-0.0","0","0","60150","","null","","","null","35","","","","","","","","","","","","","","","",""
"","ITI","","html-keyboard-response","244","357922","0.0-1.0-324.0","0","0","60150","","null","","","null","35","","","","","","","","","","","","","","","NaN",""
"","S1","","html-keyboard-response","245","358076","0.0-1.0-326.0","0","0","60150","","null","","","null","36","","","","","","","","","","","","","","","",""
"","ISI","","html-keyboard-response","246","360079","0.0-1.0-327.0","0","0","60150","","null","","","null","36","NaN","","","","","","","","","","","","","","",""
"","S2","","html-keyboard-response","247","360233","0.0-1.0-328.0","0","0","60150","","null","","","null","36","","NaN","","","","","","","","","","","","","",""
"","response","","html-keyboard-response","248","360348","0.0-1.0-329.0-0.0","0","0","60150","","111","","","68","36","","","1","36","training","adjacent","DC","4","3","O.jpg","L.jpg","1","0","0","",""
"","feedback","","html-keyboard-response","249","361351","0.0-1.0-330.0-0.0","0","0","60150","","null","","","null","36","","","","","","","","","","","","","","","",""
"","time_out","","html-keyboard-response","250","363354","0.0-1.0-332.0-0.0","0","0","60150","","null","","","null","36","","","","","","","","","","","","","","","",""
"","ITI","","html-keyboard-response","251","364359","0.0-1.0-333.0","0","0","60150","","null","","","null","36","","","","","","","","","","","","","","","NaN",""
"","S1","","html-keyboard-response","252","364513","0.0-1.0-335.0","0","0","60150","","null","","","null","37","","","","","","","","","","","","","","","",""
"","ISI","","html-keyboard-response","253","366516","0.0-1.0-336.0","0","0","60150","","null","","","null","37","NaN","","","","","","","","","","","","","","",""
"","S2","","html-keyboard-response","254","366669","0.0-1.0-337.0","0","0","60150","","null","","","null","37","","NaN","","","","","","","","","","","","","",""
"","response","","html-keyboard-response","255","366824","0.0-1.0-338.0-0.0","0","0","60150","","153","","","75","37","","","1","37","training","adjacent","BA","2","1","M.jpg","N.jpg","0","0","1","",""
"","feedback","","html-keyboard-response","256","367829","0.0-1.0-339.0-0.0","0","0","60150","","null","","","null","37","","","","","","","","","","","","","","","",""
"","ITI","","html-keyboard-response","257","368833","0.0-1.0-342.0","0","0","60150","","null","","","null","37","","","","","","","","","","","","","","","NaN",""
"","S1","","html-keyboard-response","258","368987","0.0-1.0-344.0","0","0","60150","","null","","","null","38","","","","","","","","","","","","","","","",""
"","ISI","","html-keyboard-response","259","370991","0.0-1.0-345.0","0","0","60150","","null","","","null","38","NaN","","","","","","","","","","","","","","",""
"","S2","","html-keyboard-response","260","371145","0.0-1.0-346.0","0","0","60150","","null","","","null","38","","NaN","","","","","","","","","","","","","",""
"","response","","html-keyboard-response","261","371373","0.0-1.0-347.0-0.0","0","0","60150","","224","","","68","38","","","1","38","training","adjacent","FG","6","7","Q.jpg","R.jpg","1","1","1","",""
"","feedback","","html-keyboard-response","262","372377","0.0-1.0-348.0-0.0","0","0","60150","","null","","","null","38","","","","","","","","","","","","","","","",""
"","ITI","","html-keyboard-response","263","373382","0.0-1.0-351.0","0","0","60150","","null","","","null","38","","","","","","","","","","","","","","","NaN",""
"","S1","","html-keyboard-response","264","373537","0.0-1.0-353.0","0","0","60150","","null","","","null","39","","","","","","","","","","","","","","","",""
"","ISI","","html-keyboard-response","265","375540","0.0-1.0-354.0","0","0","60150","","null","","","null","39","NaN","","","","","","","","","","","","","","",""
"","S2","","html-keyboard-response","266","375694","0.0-1.0-355.0","0","0","60150","","null","","","null","39","","NaN","","","","","","","","","","","","","",""
"","response","","html-keyboard-response","267","375809","0.0-1.0-356.0-0.0","0","0","60150","","113","","","75","39","","","1","39","training","adjacent","BA","2","1","M.jpg","N.jpg","0","0","1","",""
"","feedback","","html-keyboard-response","268","376825","0.0-1.0-357.0-0.0","0","0","60150","","null","","","null","39","","","","","","","","","","","","","","","",""
"","ITI","","html-keyboard-response","269","377830","0.0-1.0-360.0","0","0","60150","","null","","","null","39","","","","","","","","","","","","","","","NaN",""
"","S1","","html-keyboard-response","270","377982","0.0-1.0-362.0","0","0","60150","","null","","","null","40","","","","","","","","","","","","","","","",""
"","ISI","","html-keyboard-response","271","379986","0.0-1.0-363.0","0","0","60150","","null","","","null","40","NaN","","","","","","","","","","","","","","",""
"","S2","","html-keyboard-response","272","380139","0.0-1.0-364.0","0","0","60150","","null","","","null","40","","NaN","","","","","","","","","","","","","",""
"","response","","html-keyboard-response","273","380591","0.0-1.0-365.0-0.0","0","0","60150","","448","","","68","40","","","1","40","training","adjacent","CB","3","2","L.jpg","M.jpg","1","0","0","",""
"","feedback","","html-keyboard-response","274","381595","0.0-1.0-366.0-0.0","0","0","60150","","null","","","null","40","","","","","","","","","","","","","","","",""
"","time_out","","html-keyboard-response","275","383598","0.0-1.0-368.0-0.0","0","0","60150","","null","","","null","40","","","","","","","","","","","","","","","",""
"","ITI","","html-keyboard-response","276","384601","0.0-1.0-369.0","0","0","60150","","null","","","null","40","","","","","","","","","","","","","","","NaN",""
"","S1","","html-keyboard-response","277","384755","0.0-1.0-371.0","0","0","60150","","null","","","null","41","","","","","","","","","","","","","","","",""
"","ISI","","html-keyboard-response","278","386758","0.0-1.0-372.0","0","0","60150","","null","","","null","41","NaN","","","","","","","","","","","","","","",""
"","S2","","html-keyboard-response","279","386911","0.0-1.0-373.0","0","0","60150","","null","","","null","41","","NaN","","","","","","","","","","","","","",""
"","response","","html-keyboard-response","280","387180","0.0-1.0-374.0-0.0","0","0","60150","","265","","","68","41","","","1","41","training","adjacent","AB","1","2","N.jpg","M.jpg","1","1","1","",""
"","feedback","","html-keyboard-response","281","388183","0.0-1.0-375.0-0.0","0","0","60150","","null","","","null","41","","","","","","","","","","","","","","","",""
"","ITI","","html-keyboard-response","282","389187","0.0-1.0-378.0","0","0","60150","","null","","","null","41","","","","","","","","","","","","","","","NaN",""
"","S1","","html-keyboard-response","283","389341","0.0-1.0-380.0","0","0","60150","","null","","","null","42","","","","","","","","","","","","","","","",""
"","ISI","","html-keyboard-response","284","391344","0.0-1.0-381.0","0","0","60150","","null","","","null","42","NaN","","","","","","","","","","","","","","",""
"","S2","","html-keyboard-response","285","391497","0.0-1.0-382.0","0","0","60150","","null","","","null","42","","NaN","","","","","","","","","","","","","",""
"","response","","html-keyboard-response","286","391701","0.0-1.0-383.0-0.0","0","0","60150","","201","","","68","42","","","1","42","training","adjacent","FG","6","7","Q.jpg","R.jpg","1","1","1","",""
"","feedback","","html-keyboard-response","287","392705","0.0-1.0-384.0-0.0","0","0","60150","","null","","","null","42","","","","","","","","","","","","","","","",""
"","ITI","","html-keyboard-response","288","393709","0.0-1.0-387.0","0","0","60150","","null","","","null","42","","","","","","","","","","","","","","","NaN",""
"","S1","","html-keyboard-response","289","393862","0.0-1.0-389.0","0","0","60150","","null","","","null","43","","","","","","","","","","","","","","","",""
"","ISI","","html-keyboard-response","290","395865","0.0-1.0-390.0","0","0","60150","","null","","","null","43","NaN","","","","","","","","","","","","","","",""
"","S2","","html-keyboard-response","291","396019","0.0-1.0-391.0","0","0","60150","","null","","","null","43","","NaN","","","","","","","","","","","","","",""
"","response","","html-keyboard-response","292","396165","0.0-1.0-392.0-0.0","0","0","60150","","142","","","75","43","","","1","43","training","adjacent","CD","3","4","L.jpg","O.jpg","0","1","0","",""
"","feedback","","html-keyboard-response","293","397169","0.0-1.0-393.0-0.0","0","0","60150","","null","","","null","43","","","","","","","","","","","","","","","",""
"","time_out","","html-keyboard-response","294","399172","0.0-1.0-395.0-0.0","0","0","60150","","null","","","null","43","","","","","","","","","","","","","","","",""
"","ITI","","html-keyboard-response","295","400177","0.0-1.0-396.0","0","0","60150","","null","","","null","43","","","","","","","","","","","","","","","NaN",""
"","S1","","html-keyboard-response","296","400330","0.0-1.0-398.0","0","0","60150","","null","","","null","44","","","","","","","","","","","","","","","",""
"","ISI","","html-keyboard-response","297","402333","0.0-1.0-399.0","0","0","60150","","null","","","null","44","NaN","","","","","","","","","","","","","","",""
"","S2","","html-keyboard-response","298","402488","0.0-1.0-400.0","0","0","60150","","null","","","null","44","","NaN","","","","","","","","","","","","","",""
"","response","","html-keyboard-response","299","402664","0.0-1.0-401.0-0.0","0","0","60150","","174","","","68","44","","","1","44","training","adjacent","EF","5","6","P.jpg","Q.jpg","1","1","1","",""
"","feedback","","html-keyboard-response","300","403669","0.0-1.0-402.0-0.0","0","0","60150","","null","","","null","44","","","","","","","","","","","","","","","",""
"","ITI","","html-keyboard-response","301","404678","0.0-1.0-405.0","0","0","60150","","null","","","null","44","","","","","","","","","","","","","","","NaN",""
"","S1","","html-keyboard-response","302","404832","0.0-1.0-407.0","0","0","60150","","null","","","null","45","","","","","","","","","","","","","","","",""
"","ISI","","html-keyboard-response","303","406836","0.0-1.0-408.0","0","0","60150","","null","","","null","45","NaN","","","","","","","","","","","","","","",""
"","S2","","html-keyboard-response","304","406990","0.0-1.0-409.0","0","0","60150","","null","","","null","45","","NaN","","","","","","","","","","","","","",""
"","response","","html-keyboard-response","305","407132","0.0-1.0-410.0-0.0","0","0","60150","","139","","","75","45","","","1","45","training","adjacent","ED","5","4","P.jpg","O.jpg","0","0","1","",""
"","feedback","","html-keyboard-response","306","408136","0.0-1.0-411.0-0.0","0","0","60150","","null","","","null","45","","","","","","","","","","","","","","","",""
"","ITI","","html-keyboard-response","307","409140","0.0-1.0-414.0","0","0","60150","","null","","","null","45","","","","","","","","","","","","","","","NaN",""
"","S1","","html-keyboard-response","308","409293","0.0-1.0-416.0","0","0","60150","","null","","","null","46","","","","","","","","","","","","","","","",""
"","ISI","","html-keyboard-response","309","411296","0.0-1.0-417.0","0","0","60150","","null","","","null","46","NaN","","","","","","","","","","","","","","",""
"","S2","","html-keyboard-response","310","411450","0.0-1.0-418.0","0","0","60150","","null","","","null","46","","NaN","","","","","","","","","","","","","",""
"","response","","html-keyboard-response","311","411557","0.0-1.0-419.0-0.0","0","0","60150","","104","","","68","46","","","1","46","training","adjacent","DE","4","5","O.jpg","P.jpg","1","1","1","",""
"","feedback","","html-keyboard-response","312","412561","0.0-1.0-420.0-0.0","0","0","60150","","null","","","null","46","","","","","","","","","","","","","","","",""
"","ITI","","html-keyboard-response","313","413565","0.0-1.0-423.0","0","0","60150","","null","","","null","46","","","","","","","","","","","","","","","NaN",""
"","S1","","html-keyboard-response","314","413719","0.0-1.0-425.0","0","0","60150","","null","","","null","47","","","","","","","","","","","","","","","",""
"","ISI","","html-keyboard-response","315","415723","0.0-1.0-426.0","0","0","60150","","null","","","null","47","NaN","","","","","","","","","","","","","","",""
"","S2","","html-keyboard-response","316","415876","0.0-1.0-427.0","0","0","60150","","null","","","null","47","","NaN","","","","","","","","","","","","","",""
"","response","","html-keyboard-response","317","416021","0.0-1.0-428.0-0.0","0","0","60150","","142","","","68","47","","","1","47","training","adjacent","EF","5","6","P.jpg","Q.jpg","1","1","1","",""
"","feedback","","html-keyboard-response","318","417024","0.0-1.0-429.0-0.0","0","0","60150","","null","","","null","47","","","","","","","","","","","","","","","",""
"","ITI","","html-keyboard-response","319","418028","0.0-1.0-432.0","0","0","60150","","null","","","null","47","","","","","","","","","","","","","","","NaN",""
"","block_over","","html-keyboard-response","320","453087","0.0-1.0-433.0-0.0","0","0","60150","","35055","","","32","47","","","","","","","","","","","","","","","",""
"","S1","","html-keyboard-response","321","453240","0.0-1.0-434.0","0","0","60150","","null","","","null","48","","","","","","","","","","","","","","","",""
"","ISI","","html-keyboard-response","322","455243","0.0-1.0-435.0","0","0","60150","","null","","","null","48","NaN","","","","","","","","","","","","","","",""
"","S2","","html-keyboard-response","323","455397","0.0-1.0-436.0","0","0","60150","","null","","","null","48","","NaN","","","","","","","","","","","","","",""
"","response","","html-keyboard-response","324","455667","0.0-1.0-437.0-0.0","0","0","60150","","268","","","75","48","","","2","48","training","adjacent","DE","4","5","O.jpg","P.jpg","0","1","0","",""
"","feedback","","html-keyboard-response","325","456671","0.0-1.0-438.0-0.0","0","0","60150","","null","","","null","48","","","","","","","","","","","","","","","",""
"","time_out","","html-keyboard-response","326","458674","0.0-1.0-440.0-0.0","0","0","60150","","null","","","null","48","","","","","","","","","","","","","","","",""
"","ITI","","html-keyboard-response","327","459678","0.0-1.0-441.0","0","0","60150","","null","","","null","48","","","","","","","","","","","","","","","NaN",""
"","S1","","html-keyboard-response","328","459832","0.0-1.0-443.0","0","0","60150","","null","","","null","49","","","","","","","","","","","","","","","",""
"","ISI","","html-keyboard-response","329","461836","0.0-1.0-444.0","0","0","60150","","null","","","null","49","NaN","","","","","","","","","","","","","","",""
"","S2","","html-keyboard-response","330","461990","0.0-1.0-445.0","0","0","60150","","null","","","null","49","","NaN","","","","","","","","","","","","","",""
"","response","","html-keyboard-response","331","462105","0.0-1.0-446.0-0.0","0","0","60150","","113","","","68","49","","","2","49","training","adjacent","AB","1","2","N.jpg","M.jpg","1","1","1","",""
"","feedback","","html-keyboard-response","332","463110","0.0-1.0-447.0-0.0","0","0","60150","","null","","","null","49","","","","","","","","","","","","","","","",""
"","ITI","","html-keyboard-response","333","464113","0.0-1.0-450.0","0","0","60150","","null","","","null","49","","","","","","","","","","","","","","","NaN",""
"","S1","","html-keyboard-response","334","464281","0.0-1.0-452.0","0","0","60150","","null","","","null","50","","","","","","","","","","","","","","","",""
"","ISI","","html-keyboard-response","335","466284","0.0-1.0-453.0","0","0","60150","","null","","","null","50","NaN","","","","","","","","","","","","","","",""
"","S2","","html-keyboard-response","336","466438","0.0-1.0-454.0","0","0","60150","","null","","","null","50","","NaN","","","","","","","","","","","","","",""
"","response","","html-keyboard-response","337","466635","0.0-1.0-455.0-0.0","0","0","60150","","193","","","75","50","","","2","50","training","adjacent","CD","3","4","L.jpg","O.jpg","0","1","0","",""
"","feedback","","html-keyboard-response","338","467639","0.0-1.0-456.0-0.0","0","0","60150","","null","","","null","50","","","","","","","","","","","","","","","",""
"","time_out","","html-keyboard-response","339","469643","0.0-1.0-458.0-0.0","0","0","60150","","null","","","null","50","","","","","","","","","","","","","","","",""
"","ITI","","html-keyboard-response","340","470647","0.0-1.0-459.0","0","0","60150","","null","","","null","50","","","","","","","","","","","","","","","NaN",""
"","S1","","html-keyboard-response","341","470800","0.0-1.0-461.0","0","0","60150","","null","","","null","51","","","","","","","","","","","","","","","",""
"","ISI","","html-keyboard-response","342","472804","0.0-1.0-462.0","0","0","60150","","null","","","null","51","NaN","","","","","","","","","","","","","","",""
"","S2","","html-keyboard-response","343","472959","0.0-1.0-463.0","0","0","60150","","null","","","null","51","","NaN","","","","","","","","","","","","","",""
"","response","","html-keyboard-response","344","473097","0.0-1.0-464.0-0.0","0","0","60150","","135","","","75","51","","","2","51","training","adjacent","GF","7","6","R.jpg","Q.jpg","0","0","1","",""
"","feedback","","html-keyboard-response","345","474100","0.0-1.0-465.0-0.0","0","0","60150","","null","","","null","51","","","","","","","","","","","","","","","",""
"","ITI","","html-keyboard-response","346","475104","0.0-1.0-468.0","0","0","60150","","null","","","null","51","","","","","","","","","","","","","","","NaN",""
"","S1","","html-keyboard-response","347","475257","0.0-1.0-470.0","0","0","60150","","null","","","null","52","","","","","","","","","","","","","","","",""
"","ISI","","html-keyboard-response","348","477260","0.0-1.0-471.0","0","0","60150","","null","","","null","52","NaN","","","","","","","","","","","","","","",""
"","S2","","html-keyboard-response","349","477414","0.0-1.0-472.0","0","0","60150","","null","","","null","52","","NaN","","","","","","","","","","","","","",""
"","response","","html-keyboard-response","350","477584","0.0-1.0-473.0-0.0","0","0","60150","","167","","","68","52","","","2","52","training","adjacent","BC","2","3","M.jpg","L.jpg","1","1","1","",""
"","feedback","","html-keyboard-response","351","478588","0.0-1.0-474.0-0.0","0","0","60150","","null","","","null","52","","","","","","","","","","","","","","","",""
"","ITI","","html-keyboard-response","352","479592","0.0-1.0-477.0","0","0","60150","","null","","","null","52","","","","","","","","","","","","","","","NaN",""
"","S1","","html-keyboard-response","353","479745","0.0-1.0-479.0","0","0","60150","","null","","","null","53","","","","","","","","","","","","","","","",""
"","ISI","","html-keyboard-response","354","481748","0.0-1.0-480.0","0","0","60150","","null","","","null","53","NaN","","","","","","","","","","","","","","",""
"","S2","","html-keyboard-response","355","481902","0.0-1.0-481.0","0","0","60150","","null","","","null","53","","NaN","","","","","","","","","","","","","",""
"","response","","html-keyboard-response","356","482131","0.0-1.0-482.0-0.0","0","0","60150","","225","","","68","53","","","2","53","training","adjacent","EF","5","6","P.jpg","Q.jpg","1","1","1","",""
"","feedback","","html-keyboard-response","357","483135","0.0-1.0-483.0-0.0","0","0","60150","","null","","","null","53","","","","","","","","","","","","","","","",""
"","ITI","","html-keyboard-response","358","484138","0.0-1.0-486.0","0","0","60150","","null","","","null","53","","","","","","","","","","","","","","","NaN",""
"","S1","","html-keyboard-response","359","484292","0.0-1.0-488.0","0","0","60150","","null","","","null","54","","","","","","","","","","","","","","","",""
"","ISI","","html-keyboard-response","360","486295","0.0-1.0-489.0","0","0","60150","","null","","","null","54","NaN","","","","","","","","","","","","","","",""
"","S2","","html-keyboard-response","361","486449","0.0-1.0-490.0","0","0","60150","","null","","","null","54","","NaN","","","","","","","","","","","","","",""
"","response","","html-keyboard-response","362","486922","0.0-1.0-491.0-0.0","0","0","60150","","469","","","68","54","","","2","54","training","adjacent","CB","3","2","L.jpg","M.jpg","1","0","0","",""
"","feedback","","html-keyboard-response","363","487927","0.0-1.0-492.0-0.0","0","0","60150","","null","","","null","54","","","","","","","","","","","","","","","",""
"","time_out","","html-keyboard-response","364","489930","0.0-1.0-494.0-0.0","0","0","60150","","null","","","null","54","","","","","","","","","","","","","","","",""
"","ITI","","html-keyboard-response","365","490933","0.0-1.0-495.0","0","0","60150","","null","","","null","54","","","","","","","","","","","","","","","NaN",""
"","S1","","html-keyboard-response","366","491087","0.0-1.0-497.0","0","0","60150","","null","","","null","55","","","","","","","","","","","","","","","",""
"","ISI","","html-keyboard-response","367","493090","0.0-1.0-498.0","0","0","60150","","null","","","null","55","NaN","","","","","","","","","","","","","","",""
"","S2","","html-keyboard-response","368","493244","0.0-1.0-499.0","0","0","60150","","null","","","null","55","","NaN","","","","","","","","","","","","","",""
"","response","","html-keyboard-response","369","493399","0.0-1.0-500.0-0.0","0","0","60150","","151","","","75","55","","","2","55","training","adjacent","DE","4","5","O.jpg","P.jpg","0","1","0","",""
"","feedback","","html-keyboard-response","370","494403","0.0-1.0-501.0-0.0","0","0","60150","","null","","","null","55","","","","","","","","","","","","","","","",""
"","time_out","","html-keyboard-response","371","496406","0.0-1.0-503.0-0.0","0","0","60150","","null","","","null","55","","","","","","","","","","","","","","","",""
"","ITI","","html-keyboard-response","372","497409","0.0-1.0-504.0","0","0","60150","","null","","","null","55","","","","","","","","","","","","","","","NaN",""
"","S1","","html-keyboard-response","373","497562","0.0-1.0-506.0","0","0","60150","","null","","","null","56","","","","","","","","","","","","","","","",""
"","ISI","","html-keyboard-response","374","499566","0.0-1.0-507.0","0","0","60150","","null","","","null","56","NaN","","","","","","","","","","","","","","",""
"","S2","","html-keyboard-response","375","499719","0.0-1.0-508.0","0","0","60150","","null","","","null","56","","NaN","","","","","","","","","","","","","",""
"","response","","html-keyboard-response","376","499917","0.0-1.0-509.0-0.0","0","0","60150","","195","","","68","56","","","2","56","training","adjacent","BC","2","3","M.jpg","L.jpg","1","1","1","",""
"","feedback","","html-keyboard-response","377","500920","0.0-1.0-510.0-0.0","0","0","60150","","null","","","null","56","","","","","","","","","","","","","","","",""
"","ITI","","html-keyboard-response","378","501924","0.0-1.0-513.0","0","0","60150","","null","","","null","56","","","","","","","","","","","","","","","NaN",""
"","S1","","html-keyboard-response","379","502077","0.0-1.0-515.0","0","0","60150","","null","","","null","57","","","","","","","","","","","","","","","",""
"","ISI","","html-keyboard-response","380","504080","0.0-1.0-516.0","0","0","60150","","null","","","null","57","NaN","","","","","","","","","","","","","","",""
"","S2","","html-keyboard-response","381","504233","0.0-1.0-517.0","0","0","60150","","null","","","null","57","","NaN","","","","","","","","","","","","","",""
"","response","","html-keyboard-response","382","504658","0.0-1.0-518.0-0.0","0","0","60150","","421","","","75","57","","","2","57","training","adjacent","DC","4","3","O.jpg","L.jpg","0","0","1","",""
"","feedback","","html-keyboard-response","383","505662","0.0-1.0-519.0-0.0","0","0","60150","","null","","","null","57","","","","","","","","","","","","","","","",""
"","ITI","","html-keyboard-response","384","506665","0.0-1.0-522.0","0","0","60150","","null","","","null","57","","","","","","","","","","","","","","","NaN",""
"","S1","","html-keyboard-response","385","506819","0.0-1.0-524.0","0","0","60150","","null","","","null","58","","","","","","","","","","","","","","","",""
"","ISI","","html-keyboard-response","386","508822","0.0-1.0-525.0","0","0","60150","","null","","","null","58","NaN","","","","","","","","","","","","","","",""
"","S2","","html-keyboard-response","387","508975","0.0-1.0-526.0","0","0","60150","","null","","","null","58","","NaN","","","","","","","","","","","","","",""
"","response","","html-keyboard-response","388","509122","0.0-1.0-527.0-0.0","0","0","60150","","144","","","68","58","","","2","58","training","adjacent","FE","6","5","Q.jpg","P.jpg","1","0","0","",""
"","feedback","","html-keyboard-response","389","510138","0.0-1.0-528.0-0.0","0","0","60150","","null","","","null","58","","","","","","","","","","","","","","","",""
"","time_out","","html-keyboard-response","390","512142","0.0-1.0-530.0-0.0","0","0","60150","","null","","","null","58","","","","","","","","","","","","","","","",""
"","ITI","","html-keyboard-response","391","513145","0.0-1.0-531.0","0","0","60150","","null","","","null","58","","","","","","","","","","","","","","","NaN",""
"","S1","","html-keyboard-response","392","513299","0.0-1.0-533.0","0","0","60150","","null","","","null","59","","","","","","","","","","","","","","","",""
"","ISI","","html-keyboard-response","393","515302","0.0-1.0-534.0","0","0","60150","","null","","","null","59","NaN","","","","","","","","","","","","","","",""
"","S2","","html-keyboard-response","394","515457","0.0-1.0-535.0","0","0","60150","","null","","","null","59","","NaN","","","","","","","","","","","","","",""
"","response","","html-keyboard-response","395","515800","0.0-1.0-536.0-0.0","0","0","60150","","339","","","75","59","","","2","59","training","adjacent","FG","6","7","Q.jpg","R.jpg","0","1","0","",""
"","feedback","","html-keyboard-response","396","516804","0.0-1.0-537.0-0.0","0","0","60150","","null","","","null","59","","","","","","","","","","","","","","","",""
"","time_out","","html-keyboard-response","397","518808","0.0-1.0-539.0-0.0","0","0","60150","","null","","","null","59","","","","","","","","","","","","","","","",""
"","ITI","","html-keyboard-response","398","519811","0.0-1.0-540.0","0","0","60150","","null","","","null","59","","","","","","","","","","","","","","","NaN",""
"","S1","","html-keyboard-response","399","519966","0.0-1.0-542.0","0","0","60150","","null","","","null","60","","","","","","","","","","","","","","","",""
"","ISI","","html-keyboard-response","400","521969","0.0-1.0-543.0","0","0","60150","","null","","","null","60","NaN","","","","","","","","","","","","","","",""
"","S2","","html-keyboard-response","401","522123","0.0-1.0-544.0","0","0","60150","","null","","","null","60","","NaN","","","","","","","","","","","","","",""
"","response","","html-keyboard-response","402","522320","0.0-1.0-545.0-0.0","0","0","60150","","194","","","68","60","","","2","60","training","adjacent","FE","6","5","Q.jpg","P.jpg","1","0","0","",""
"","feedback","","html-keyboard-response","403","523325","0.0-1.0-546.0-0.0","0","0","60150","","null","","","null","60","","","","","","","","","","","","","","","",""
"","time_out","","html-keyboard-response","404","525329","0.0-1.0-548.0-0.0","0","0","60150","","null","","","null","60","","","","","","","","","","","","","","","",""
"","ITI","","html-keyboard-response","405","526333","0.0-1.0-549.0","0","0","60150","","null","","","null","60","","","","","","","","","","","","","","","NaN",""
"","S1","","html-keyboard-response","406","526486","0.0-1.0-551.0","0","0","60150","","null","","","null","61","","","","","","","","","","","","","","","",""
"","ISI","","html-keyboard-response","407","528489","0.0-1.0-552.0","0","0","60150","","645","","","75","61","k","","","","","","","","","","","","","","",""
"","S2","","html-keyboard-response","408","528643","0.0-1.0-553.0","0","0","60150","","null","","","null","61","","NaN","","","","","","","","","","","","","",""
"","response","","html-keyboard-response","409","529210","0.0-1.0-554.0-0.0","0","0","60150","","565","","","75","61","","","2","61","training","adjacent","FE","6","5","Q.jpg","P.jpg","0","0","1","",""
"","feedback","","html-keyboard-response","410","530213","0.0-1.0-555.0-0.0","0","0","60150","","null","","","null","61","","","","","","","","","","","","","","","",""
"","ITI","","html-keyboard-response","411","531217","0.0-1.0-558.0","0","0","60150","","null","","","null","61","","","","","","","","","","","","","","","NaN",""
"","S1","","html-keyboard-response","412","531370","0.0-1.0-560.0","0","0","60150","","null","","","null","62","","","","","","","","","","","","","","","",""
"","ISI","","html-keyboard-response","413","533373","0.0-1.0-561.0","0","0","60150","","null","","","null","62","NaN","","","","","","","","","","","","","","",""
"","S2","","html-keyboard-response","414","533528","0.0-1.0-562.0","0","0","60150","","null","","","null","62","","NaN","","","","","","","","","","","","","",""
"","response","","html-keyboard-response","415","534010","0.0-1.0-563.0-0.0","0","0","60150","","479","","","75","62","","","2","62","training","adjacent","BA","2","1","M.jpg","N.jpg","0","0","1","",""
"","feedback","","html-keyboard-response","416","535015","0.0-1.0-564.0-0.0","0","0","60150","","null","","","null","62","","","","","","","","","","","","","","","",""
"","ITI","","html-keyboard-response","417","536019","0.0-1.0-567.0","0","0","60150","","null","","","null","62","","","","","","","","","","","","","","","NaN",""
"","S1","","html-keyboard-response","418","536173","0.0-1.0-569.0","0","0","60150","","null","","","null","63","","","","","","","","","","","","","","","",""
"","ISI","","html-keyboard-response","419","538177","0.0-1.0-570.0","0","0","60150","","null","","","null","63","NaN","","","","","","","","","","","","","","",""
"","S2","","html-keyboard-response","420","538329","0.0-1.0-571.0","0","0","60150","","null","","","null","63","","NaN","","","","","","","","","","","","","",""
"","response","","html-keyboard-response","421","538554","0.0-1.0-572.0-0.0","0","0","60150","","222","","","68","63","","","2","63","training","adjacent","AB","1","2","N.jpg","M.jpg","1","1","1","",""
"","feedback","","html-keyboard-response","422","539557","0.0-1.0-573.0-0.0","0","0","60150","","null","","","null","63","","","","","","","","","","","","","","","",""
"","ITI","","html-keyboard-response","423","540561","0.0-1.0-576.0","0","0","60150","","null","","","null","63","","","","","","","","","","","","","","","NaN",""
"","S1","","html-keyboard-response","424","540715","0.0-1.0-578.0","0","0","60150","","null","","","null","64","","","","","","","","","","","","","","","",""
"","ISI","","html-keyboard-response","425","542719","0.0-1.0-579.0","0","0","60150","","652","","","68","64","d","","","","","","","","","","","","","","",""
"","S2","","html-keyboard-response","426","542873","0.0-1.0-580.0","0","0","60150","","null","","","null","64","","NaN","","","","","","","","","","","","","",""
"","response","","html-keyboard-response","427","543380","0.0-1.0-581.0-0.0","0","0","60150","","503","","","68","64","","","2","64","training","adjacent","ED","5","4","P.jpg","O.jpg","1","0","0","",""
"","feedback","","html-keyboard-response","428","544384","0.0-1.0-582.0-0.0","0","0","60150","","null","","","null","64","","","","","","","","","","","","","","","",""
"","time_out","","html-keyboard-response","429","546389","0.0-1.0-584.0-0.0","0","0","60150","","null","","","null","64","","","","","","","","","","","","","","","",""
"","ITI","","html-keyboard-response","430","547403","0.0-1.0-585.0","0","0","60150","","null","","","null","64","","","","","","","","","","","","","","","NaN",""
"","S1","","html-keyboard-response","431","547557","0.0-1.0-587.0","0","0","60150","","null","","","null","65","","","","","","","","","","","","","","","",""
"","ISI","","html-keyboard-response","432","549560","0.0-1.0-588.0","0","0","60150","","null","","","null","65","NaN","","","","","","","","","","","","","","",""
"","S2","","html-keyboard-response","433","549715","0.0-1.0-589.0","0","0","60150","","null","","","null","65","","NaN","","","","","","","","","","","","","",""
"","response","","html-keyboard-response","434","550046","0.0-1.0-590.0-0.0","0","0","60150","","328","","","75","65","","","2","65","training","adjacent","GF","7","6","R.jpg","Q.jpg","0","0","1","",""
"","feedback","","html-keyboard-response","435","551050","0.0-1.0-591.0-0.0","0","0","60150","","null","","","null","65","","","","","","","","","","","","","","","",""
"","ITI","","html-keyboard-response","436","552053","0.0-1.0-594.0","0","0","60150","","null","","","null","65","","","","","","","","","","","","","","","NaN",""
"","S1","","html-keyboard-response","437","552207","0.0-1.0-596.0","0","0","60150","","null","","","null","66","","","","","","","","","","","","","","","",""
"","ISI","","html-keyboard-response","438","554210","0.0-1.0-597.0","0","0","60150","","null","","","null","66","NaN","","","","","","","","","","","","","","",""
"","S2","","html-keyboard-response","439","554364","0.0-1.0-598.0","0","0","60150","","null","","","null","66","","NaN","","","","","","","","","","","","","",""
"","response","","html-keyboard-response","440","554527","0.0-1.0-599.0-0.0","0","0","60150","","159","","","75","66","","","2","66","training","adjacent","EF","5","6","P.jpg","Q.jpg","0","1","0","",""
"","feedback","","html-keyboard-response","441","555531","0.0-1.0-600.0-0.0","0","0","60150","","null","","","null","66","","","","","","","","","","","","","","","",""
"","time_out","","html-keyboard-response","442","557535","0.0-1.0-602.0-0.0","0","0","60150","","null","","","null","66","","","","","","","","","","","","","","","",""
"","ITI","","html-keyboard-response","443","558538","0.0-1.0-603.0","0","0","60150","","null","","","null","66","","","","","","","","","","","","","","","NaN",""
"","S1","","html-keyboard-response","444","558692","0.0-1.0-605.0","0","0","60150","","null","","","null","67","","","","","","","","","","","","","","","",""
"","ISI","","html-keyboard-response","445","560696","0.0-1.0-606.0","0","0","60150","","null","","","null","67","NaN","","","","","","","","","","","","","","",""
"","S2","","html-keyboard-response","446","560850","0.0-1.0-607.0","0","0","60150","","null","","","null","67","","NaN","","","","","","","","","","","","","",""
"","response","","html-keyboard-response","447","560976","0.0-1.0-608.0-0.0","0","0","60150","","123","","","75","67","","","2","67","training","adjacent","ED","5","4","P.jpg","O.jpg","0","0","1","",""
"","feedback","","html-keyboard-response","448","561980","0.0-1.0-609.0-0.0","0","0","60150","","null","","","null","67","","","","","","","","","","","","","","","",""
"","ITI","","html-keyboard-response","449","562983","0.0-1.0-612.0","0","0","60150","","null","","","null","67","","","","","","","","","","","","","","","NaN",""
"","S1","","html-keyboard-response","450","563137","0.0-1.0-614.0","0","0","60150","","null","","","null","68","","","","","","","","","","","","","","","",""
"","ISI","","html-keyboard-response","451","565140","0.0-1.0-615.0","0","0","60150","","null","","","null","68","NaN","","","","","","","","","","","","","","",""
"","S2","","html-keyboard-response","452","565293","0.0-1.0-616.0","0","0","60150","","null","","","null","68","","NaN","","","","","","","","","","","","","",""
"","response","","html-keyboard-response","453","565424","0.0-1.0-617.0-0.0","0","0","60150","","128","","","68","68","","","2","68","training","adjacent","AB","1","2","N.jpg","M.jpg","1","1","1","",""
"","feedback","","html-keyboard-response","454","566429","0.0-1.0-618.0-0.0","0","0","60150","","null","","","null","68","","","","","","","","","","","","","","","",""
"","ITI","","html-keyboard-response","455","567432","0.0-1.0-621.0","0","0","60150","","null","","","null","68","","","","","","","","","","","","","","","NaN",""
"","S1","","html-keyboard-response","456","567587","0.0-1.0-623.0","0","0","60150","","null","","","null","69","","","","","","","","","","","","","","","",""
"","ISI","","html-keyboard-response","457","569590","0.0-1.0-624.0","0","0","60150","","null","","","null","69","NaN","","","","","","","","","","","","","","",""
"","S2","","html-keyboard-response","458","569744","0.0-1.0-625.0","0","0","60150","","null","","","null","69","","NaN","","","","","","","","","","","","","",""
"","response","","html-keyboard-response","459","569857","0.0-1.0-626.0-0.0","0","0","60150","","110","","","68","69","","","2","69","training","adjacent","FG","6","7","Q.jpg","R.jpg","1","1","1","",""
"","feedback","","html-keyboard-response","460","570867","0.0-1.0-627.0-0.0","0","0","60150","","null","","","null","69","","","","","","","","","","","","","","","",""
"","ITI","","html-keyboard-response","461","571870","0.0-1.0-630.0","0","0","60150","","null","","","null","69","","","","","","","","","","","","","","","NaN",""
"","S1","","html-keyboard-response","462","572024","0.0-1.0-632.0","0","0","60150","","null","","","null","70","","","","","","","","","","","","","","","",""
"","ISI","","html-keyboard-response","463","574028","0.0-1.0-633.0","0","0","60150","","null","","","null","70","NaN","","","","","","","","","","","","","","",""
"","S2","","html-keyboard-response","464","574181","0.0-1.0-634.0","0","0","60150","","null","","","null","70","","NaN","","","","","","","","","","","","","",""
"","response","","html-keyboard-response","465","574390","0.0-1.0-635.0-0.0","0","0","60150","","206","","","75","70","","","2","70","training","adjacent","BA","2","1","M.jpg","N.jpg","0","0","1","",""
"","feedback","","html-keyboard-response","466","575394","0.0-1.0-636.0-0.0","0","0","60150","","null","","","null","70","","","","","","","","","","","","","","","",""
"","ITI","","html-keyboard-response","467","576398","0.0-1.0-639.0","0","0","60150","","null","","","null","70","","","","","","","","","","","","","","","NaN",""
"","S1","","html-keyboard-response","468","576552","0.0-1.0-641.0","0","0","60150","","null","","","null","71","","","","","","","","","","","","","","","",""
"","ISI","","html-keyboard-response","469","578557","0.0-1.0-642.0","0","0","60150","","null","","","null","71","NaN","","","","","","","","","","","","","","",""
"","S2","","html-keyboard-response","470","578711","0.0-1.0-643.0","0","0","60150","","null","","","null","71","","NaN","","","","","","","","","","","","","",""
"","response","","html-keyboard-response","471","578826","0.0-1.0-644.0-0.0","0","0","60150","","113","","","75","71","","","2","71","training","adjacent","ED","5","4","P.jpg","O.jpg","0","0","1","",""
"","feedback","","html-keyboard-response","472","579830","0.0-1.0-645.0-0.0","0","0","60150","","null","","","null","71","","","","","","","","","","","","","","","",""
"","ITI","","html-keyboard-response","473","580834","0.0-1.0-648.0","0","0","60150","","null","","","null","71","","","","","","","","","","","","","","","NaN",""
"","S1","","html-keyboard-response","474","580988","0.0-1.0-650.0","0","0","60150","","null","","","null","72","","","","","","","","","","","","","","","",""
"","ISI","","html-keyboard-response","475","582991","0.0-1.0-651.0","0","0","60150","","null","","","null","72","NaN","","","","","","","","","","","","","","",""
"","S2","","html-keyboard-response","476","583144","0.0-1.0-652.0","0","0","60150","","null","","","null","72","","NaN","","","","","","","","","","","","","",""
"","response","","html-keyboard-response","477","583331","0.0-1.0-653.0-0.0","0","0","60150","","184","","","75","72","","","2","72","training","adjacent","EF","5","6","P.jpg","Q.jpg","0","1","0","",""
"","feedback","","html-keyboard-response","478","584335","0.0-1.0-654.0-0.0","0","0","60150","","null","","","null","72","","","","","","","","","","","","","","","",""
"","time_out","","html-keyboard-response","479","586339","0.0-1.0-656.0-0.0","0","0","60150","","null","","","null","72","","","","","","","","","","","","","","","",""
"","ITI","","html-keyboard-response","480","587342","0.0-1.0-657.0","0","0","60150","","null","","","null","72","","","","","","","","","","","","","","","NaN",""
"","S1","","html-keyboard-response","481","587497","0.0-1.0-659.0","0","0","60150","","null","","","null","73","","","","","","","","","","","","","","","",""
"","ISI","","html-keyboard-response","482","589500","0.0-1.0-660.0","0","0","60150","","null","","","null","73","NaN","","","","","","","","","","","","","","",""
"","S2","","html-keyboard-response","483","589654","0.0-1.0-661.0","0","0","60150","","null","","","null","73","","NaN","","","","","","","","","","","","","",""
"","response","","html-keyboard-response","484","589812","0.0-1.0-662.0-0.0","0","0","60150","","155","","","75","73","","","2","73","training","adjacent","CB","3","2","L.jpg","M.jpg","0","0","1","",""
"","feedback","","html-keyboard-response","485","590816","0.0-1.0-663.0-0.0","0","0","60150","","null","","","null","73","","","","","","","","","","","","","","","",""
"","ITI","","html-keyboard-response","486","591821","0.0-1.0-666.0","0","0","60150","","null","","","null","73","","","","","","","","","","","","","","","NaN",""
"","S1","","html-keyboard-response","487","591974","0.0-1.0-668.0","0","0","60150","","null","","","null","74","","","","","","","","","","","","","","","",""
"","ISI","","html-keyboard-response","488","593977","0.0-1.0-669.0","0","0","60150","","null","","","null","74","NaN","","","","","","","","","","","","","","",""
"","S2","","html-keyboard-response","489","594132","0.0-1.0-670.0","0","0","60150","","null","","","null","74","","NaN","","","","","","","","","","","","","",""
"","response","","html-keyboard-response","490","594252","0.0-1.0-671.0-0.0","0","0","60150","","116","","","75","74","","","2","74","training","adjacent","DE","4","5","O.jpg","P.jpg","0","1","0","",""
"","feedback","","html-keyboard-response","491","595257","0.0-1.0-672.0-0.0","0","0","60150","","null","","","null","74","","","","","","","","","","","","","","","",""
"","time_out","","html-keyboard-response","492","597261","0.0-1.0-674.0-0.0","0","0","60150","","null","","","null","74","","","","","","","","","","","","","","","",""
"","ITI","","html-keyboard-response","493","598264","0.0-1.0-675.0","0","0","60150","","null","","","null","74","","","","","","","","","","","","","","","NaN",""
"","S1","","html-keyboard-response","494","598419","0.0-1.0-677.0","0","0","60150","","null","","","null","75","","","","","","","","","","","","","","","",""
"","ISI","","html-keyboard-response","495","600422","0.0-1.0-678.0","0","0","60150","","null","","","null","75","NaN","","","","","","","","","","","","","","",""
"","S2","","html-keyboard-response","496","600575","0.0-1.0-679.0","0","0","60150","","null","","","null","75","","NaN","","","","","","","","","","","","","",""
"","response","","html-keyboard-response","497","600747","0.0-1.0-680.0-0.0","0","0","60150","","168","","","68","75","","","2","75","training","adjacent","CB","3","2","L.jpg","M.jpg","1","0","0","",""
"","feedback","","html-keyboard-response","498","601751","0.0-1.0-681.0-0.0","0","0","60150","","null","","","null","75","","","","","","","","","","","","","","","",""
"","time_out","","html-keyboard-response","499","603755","0.0-1.0-683.0-0.0","0","0","60150","","null","","","null","75","","","","","","","","","","","","","","","",""
"","ITI","","html-keyboard-response","500","604758","0.0-1.0-684.0","0","0","60150","","null","","","null","75","","","","","","","","","","","","","","","NaN",""
"","S1","","html-keyboard-response","501","604912","0.0-1.0-686.0","0","0","60150","","null","","","null","76","","","","","","","","","","","","","","","",""
"","ISI","","html-keyboard-response","502","606916","0.0-1.0-687.0","0","0","60150","","291","","","75","76","k","","","","","","","","","","","","","","",""
"","S2","","html-keyboard-response","503","607069","0.0-1.0-688.0","0","0","60150","","null","","","null","76","","NaN","","","","","","","","","","","","","",""
"","response","","html-keyboard-response","504","607436","0.0-1.0-689.0-0.0","0","0","60150","","364","","","75","76","","","2","76","training","adjacent","DC","4","3","O.jpg","L.jpg","0","0","1","",""
"","feedback","","html-keyboard-response","505","608440","0.0-1.0-690.0-0.0","0","0","60150","","null","","","null","76","","","","","","","","","","","","","","","",""
"","ITI","","html-keyboard-response","506","609445","0.0-1.0-693.0","0","0","60150","","null","","","null","76","","","","","","","","","","","","","","","NaN",""
"","S1","","html-keyboard-response","507","609599","0.0-1.0-695.0","0","0","60150","","null","","","null","77","","","","","","","","","","","","","","","",""
"","ISI","","html-keyboard-response","508","611602","0.0-1.0-696.0","0","0","60150","","null","","","null","77","NaN","","","","","","","","","","","","","","",""
"","S2","","html-keyboard-response","509","611756","0.0-1.0-697.0","0","0","60150","","null","","","null","77","","NaN","","","","","","","","","","","","","",""
"","response","","html-keyboard-response","510","612341","0.0-1.0-698.0-0.0","0","0","60150","","581","","","68","77","","","2","77","training","adjacent","EF","5","6","P.jpg","Q.jpg","1","1","1","",""
"","feedback","","html-keyboard-response","511","613345","0.0-1.0-699.0-0.0","0","0","60150","","null","","","null","77","","","","","","","","","","","","","","","",""
"","ITI","","html-keyboard-response","512","614350","0.0-1.0-702.0","0","0","60150","","null","","","null","77","","","","","","","","","","","","","","","NaN",""
"","S1","","html-keyboard-response","513","614504","0.0-1.0-704.0","0","0","60150","","null","","","null","78","","","","","","","","","","","","","","","",""
"","ISI","","html-keyboard-response","514","616508","0.0-1.0-705.0","0","0","60150","","null","","","null","78","NaN","","","","","","","","","","","","","","",""
"","S2","","html-keyboard-response","515","616662","0.0-1.0-706.0","0","0","60150","","null","","","null","78","","NaN","","","","","","","","","","","","","",""
"","response","","html-keyboard-response","516","617156","0.0-1.0-707.0-0.0","0","0","60150","","493","","","68","78","","","2","78","training","adjacent","FG","6","7","Q.jpg","R.jpg","1","1","1","",""
"","feedback","","html-keyboard-response","517","618160","0.0-1.0-708.0-0.0","0","0","60150","","null","","","null","78","","","","","","","","","","","","","","","",""
"","ITI","","html-keyboard-response","518","619163","0.0-1.0-711.0","0","0","60150","","null","","","null","78","","","","","","","","","","","","","","","NaN",""
"","S1","","html-keyboard-response","519","619325","0.0-1.0-713.0","0","0","60150","","null","","","null","79","","","","","","","","","","","","","","","",""
"","ISI","","html-keyboard-response","520","621328","0.0-1.0-714.0","0","0","60150","","null","","","null","79","NaN","","","","","","","","","","","","","","",""
"","S2","","html-keyboard-response","521","621482","0.0-1.0-715.0","0","0","60150","","null","","","null","79","","NaN","","","","","","","","","","","","","",""
"","response","","html-keyboard-response","522","621687","0.0-1.0-716.0-0.0","0","0","60150","","202","","","75","79","","","2","79","training","adjacent","BA","2","1","M.jpg","N.jpg","0","0","1","",""
"","feedback","","html-keyboard-response","523","622692","0.0-1.0-717.0-0.0","0","0","60150","","null","","","null","79","","","","","","","","","","","","","","","",""
"","ITI","","html-keyboard-response","524","623696","0.0-1.0-720.0","0","0","60150","","null","","","null","79","","","","","","","","","","","","","","","NaN",""
"","S1","","html-keyboard-response","525","623849","0.0-1.0-722.0","0","0","60150","","null","","","null","80","","","","","","","","","","","","","","","",""
"","ISI","","html-keyboard-response","526","625852","0.0-1.0-723.0","0","0","60150","","null","","","null","80","NaN","","","","","","","","","","","","","","",""
"","S2","","html-keyboard-response","527","626007","0.0-1.0-724.0","0","0","60150","","null","","","null","80","","NaN","","","","","","","","","","","","","",""
"","response","","html-keyboard-response","528","626179","0.0-1.0-725.0-0.0","0","0","60150","","168","","","68","80","","","2","80","training","adjacent","FE","6","5","Q.jpg","P.jpg","1","0","0","",""
"","feedback","","html-keyboard-response","529","627183","0.0-1.0-726.0-0.0","0","0","60150","","null","","","null","80","","","","","","","","","","","","","","","",""
"","time_out","","html-keyboard-response","530","629188","0.0-1.0-728.0-0.0","0","0","60150","","null","","","null","80","","","","","","","","","","","","","","","",""
"","ITI","","html-keyboard-response","531","630190","0.0-1.0-729.0","0","0","60150","","null","","","null","80","","","","","","","","","","","","","","","NaN",""
"","S1","","html-keyboard-response","532","630344","0.0-1.0-731.0","0","0","60150","","null","","","null","81","","","","","","","","","","","","","","","",""
"","ISI","","html-keyboard-response","533","632347","0.0-1.0-732.0","0","0","60150","","null","","","null","81","NaN","","","","","","","","","","","","","","",""
"","S2","","html-keyboard-response","534","632500","0.0-1.0-733.0","0","0","60150","","null","","","null","81","","NaN","","","","","","","","","","","","","",""
"","response","","html-keyboard-response","535","632663","0.0-1.0-734.0-0.0","0","0","60150","","159","","","75","81","","","2","81","training","adjacent","DC","4","3","O.jpg","L.jpg","0","0","1","",""
"","feedback","","html-keyboard-response","536","633667","0.0-1.0-735.0-0.0","0","0","60150","","null","","","null","81","","","","","","","","","","","","","","","",""
"","ITI","","html-keyboard-response","537","634671","0.0-1.0-738.0","0","0","60150","","null","","","null","81","","","","","","","","","","","","","","","NaN",""
"","S1","","html-keyboard-response","538","634825","0.0-1.0-740.0","0","0","60150","","null","","","null","82","","","","","","","","","","","","","","","",""
"","ISI","","html-keyboard-response","539","636829","0.0-1.0-741.0","0","0","60150","","null","","","null","82","NaN","","","","","","","","","","","","","","",""
"","S2","","html-keyboard-response","540","636983","0.0-1.0-742.0","0","0","60150","","null","","","null","82","","NaN","","","","","","","","","","","","","",""
"","response","","html-keyboard-response","541","637182","0.0-1.0-743.0-0.0","0","0","60150","","196","","","75","82","","","2","82","training","adjacent","CD","3","4","L.jpg","O.jpg","0","1","0","",""
"","feedback","","html-keyboard-response","542","638186","0.0-1.0-744.0-0.0","0","0","60150","","null","","","null","82","","","","","","","","","","","","","","","",""
"","time_out","","html-keyboard-response","543","640189","0.0-1.0-746.0-0.0","0","0","60150","","null","","","null","82","","","","","","","","","","","","","","","",""
"","ITI","","html-keyboard-response","544","641193","0.0-1.0-747.0","0","0","60150","","null","","","null","82","","","","","","","","","","","","","","","NaN",""
"","S1","","html-keyboard-response","545","641347","0.0-1.0-749.0","0","0","60150","","null","","","null","83","","","","","","","","","","","","","","","",""
"","ISI","","html-keyboard-response","546","643350","0.0-1.0-750.0","0","0","60150","","null","","","null","83","NaN","","","","","","","","","","","","","","",""
"","S2","","html-keyboard-response","547","643505","0.0-1.0-751.0","0","0","60150","","null","","","null","83","","NaN","","","","","","","","","","","","","",""
"","response","","html-keyboard-response","548","643662","0.0-1.0-752.0-0.0","0","0","60150","","154","","","68","83","","","2","83","training","adjacent","AB","1","2","N.jpg","M.jpg","1","1","1","",""
"","feedback","","html-keyboard-response","549","644667","0.0-1.0-753.0-0.0","0","0","60150","","null","","","null","83","","","","","","","","","","","","","","","",""
"","ITI","","html-keyboard-response","550","645670","0.0-1.0-756.0","0","0","60150","","null","","","null","83","","","","","","","","","","","","","","","NaN",""
"","S1","","html-keyboard-response","551","645824","0.0-1.0-758.0","0","0","60150","","null","","","null","84","","","","","","","","","","","","","","","",""
"","ISI","","html-keyboard-response","552","647829","0.0-1.0-759.0","0","0","60150","","null","","","null","84","NaN","","","","","","","","","","","","","","",""
"","S2","","html-keyboard-response","553","647982","0.0-1.0-760.0","0","0","60150","","null","","","null","84","","NaN","","","","","","","","","","","","","",""
"","response","","html-keyboard-response","554","648093","0.0-1.0-761.0-0.0","0","0","60150","","107","","","75","84","","","2","84","training","adjacent","BC","2","3","M.jpg","L.jpg","0","1","0","",""
"","feedback","","html-keyboard-response","555","649096","0.0-1.0-762.0-0.0","0","0","60150","","null","","","null","84","","","","","","","","","","","","","","","",""
"","time_out","","html-keyboard-response","556","651099","0.0-1.0-764.0-0.0","0","0","60150","","null","","","null","84","","","","","","","","","","","","","","","",""
"","ITI","","html-keyboard-response","557","652103","0.0-1.0-765.0","0","0","60150","","null","","","null","84","","","","","","","","","","","","","","","NaN",""
"","S1","","html-keyboard-response","558","652256","0.0-1.0-767.0","0","0","60150","","null","","","null","85","","","","","","","","","","","","","","","",""
"","ISI","","html-keyboard-response","559","654259","0.0-1.0-768.0","0","0","60150","","null","","","null","85","NaN","","","","","","","","","","","","","","",""
"","S2","","html-keyboard-response","560","654412","0.0-1.0-769.0","0","0","60150","","null","","","null","85","","NaN","","","","","","","","","","","","","",""
"","response","","html-keyboard-response","561","654584","0.0-1.0-770.0-0.0","0","0","60150","","169","","","75","85","","","2","85","training","adjacent","ED","5","4","P.jpg","O.jpg","0","0","1","",""
"","feedback","","html-keyboard-response","562","655589","0.0-1.0-771.0-0.0","0","0","60150","","null","","","null","85","","","","","","","","","","","","","","","",""
"","ITI","","html-keyboard-response","563","656592","0.0-1.0-774.0","0","0","60150","","null","","","null","85","","","","","","","","","","","","","","","NaN",""
"","S1","","html-keyboard-response","564","656746","0.0-1.0-776.0","0","0","60150","","null","","","null","86","","","","","","","","","","","","","","","",""
"","ISI","","html-keyboard-response","565","658748","0.0-1.0-777.0","0","0","60150","","null","","","null","86","NaN","","","","","","","","","","","","","","",""
"","S2","","html-keyboard-response","566","658902","0.0-1.0-778.0","0","0","60150","","null","","","null","86","","NaN","","","","","","","","","","","","","",""
"","response","","html-keyboard-response","567","659826","0.0-1.0-779.0-0.0","0","0","60150","","920","","","68","86","","","2","86","training","adjacent","CB","3","2","L.jpg","M.jpg","1","0","0","",""
"","feedback","","html-keyboard-response","568","660829","0.0-1.0-780.0-0.0","0","0","60150","","null","","","null","86","","","","","","","","","","","","","","","",""
"","time_out","","html-keyboard-response","569","662833","0.0-1.0-782.0-0.0","0","0","60150","","null","","","null","86","","","","","","","","","","","","","","","",""
"","ITI","","html-keyboard-response","570","663836","0.0-1.0-783.0","0","0","60150","","null","","","null","86","","","","","","","","","","","","","","","NaN",""
"","S1","","html-keyboard-response","571","663990","0.0-1.0-785.0","0","0","60150","","null","","","null","87","","","","","","","","","","","","","","","",""
"","ISI","","html-keyboard-response","572","665994","0.0-1.0-786.0","0","0","60150","","null","","","null","87","NaN","","","","","","","","","","","","","","",""
"","S2","","html-keyboard-response","573","666148","0.0-1.0-787.0","0","0","60150","","null","","","null","87","","NaN","","","","","","","","","","","","","",""
"","response","","html-keyboard-response","574","666341","0.0-1.0-788.0-0.0","0","0","60150","","191","","","75","87","","","2","87","training","adjacent","BC","2","3","M.jpg","L.jpg","0","1","0","",""
"","feedback","","html-keyboard-response","575","667345","0.0-1.0-789.0-0.0","0","0","60150","","null","","","null","87","","","","","","","","","","","","","","","",""
"","time_out","","html-keyboard-response","576","669349","0.0-1.0-791.0-0.0","0","0","60150","","null","","","null","87","","","","","","","","","","","","","","","",""
"","ITI","","html-keyboard-response","577","670352","0.0-1.0-792.0","0","0","60150","","null","","","null","87","","","","","","","","","","","","","","","NaN",""
"","S1","","html-keyboard-response","578","670506","0.0-1.0-794.0","0","0","60150","","null","","","null","88","","","","","","","","","","","","","","","",""
"","ISI","","html-keyboard-response","579","672509","0.0-1.0-795.0","0","0","60150","","null","","","null","88","NaN","","","","","","","","","","","","","","",""
