"success","ttype","start_time","trial_type","trial_index","time_elapsed","internal_node_id","warning","missed_checkup","PID","view_history","rt","responses","repeat_instructions","key_press","index","keypress_isi","keypress_S2","block","trial_num","phase","group_type","pair_type","S1_stim","S2_stim","S1_img","S2_img","S1_chosen","S1_higher","accuracy","keypress_iti","total_bonus_tally"
"true","full_screen","d03042023hr1442","fullscreen","0","4984","0.0-0.0","0","0","44865","","","","","","","","","","","","","","","","","","","","","",""
"","instructions","","instructions","1","78069","0.0-1.0-0.0-0.0","0","0","44865","[{""page_index"":0,""viewing_time"":3542},{""page_index"":1,""viewing_time"":36519},{""page_index"":2,""viewing_time"":30199},{""page_index"":3,""viewing_time"":2812}]","73074","","","","","","","","","","","","","","","","","","","",""
"","comprehension_check","","survey-multi-choice","2","119298","0.0-1.0-0.0-1.0","0","0","44865","","41201","{""Q0"":""True"",""Q1"":""D"",""Q2"":""Only when the screen 'MAKE A CHOICE' is shown"",""Q3"":""Green mark"",""Q4"":""either D or K""}","1","","","","","","","","","","","","","","","","","",""
"","missed_instruction_checkup","","html-keyboard-response","3","121905","0.0-1.0-0.0-2.0-0.0","0","1","44865","","2598","","","32","","","","","","","","","","","","","","","","",""
"","instructions","","instructions","4","174684","0.0-1.0-0.1-0.1","0","0","44865","[{""page_index"":0,""viewing_time"":4642},{""page_index"":1,""viewing_time"":14399},{""page_index"":2,""viewing_time"":1734},{""page_index"":3,""viewing_time"":31996}]","52772","","","","","","","","","","","","","","","","","","","",""
"","comprehension_check","","survey-multi-choice","5","187429","0.0-1.0-0.1-1.1","0","0","44865","","12729","{""Q0"":""True"",""Q1"":""D"",""Q2"":""Once the second image appears and while the screen 'MAKE A CHOICE' is shown"",""Q3"":""Green mark"",""Q4"":""either D or K""}","1","","","","","","","","","","","","","","","","","",""
"","missed_instruction_checkup","","html-keyboard-response","6","189654","0.0-1.0-0.1-2.1-0.1","0","1","44865","","2212","","","32","","","","","","","","","","","","","","","","",""
"","instructions","","instructions","7","208085","0.0-1.0-0.2-0.2","0","0","44865","[{""page_index"":0,""viewing_time"":11885},{""page_index"":1,""viewing_time"":3727},{""page_index"":2,""viewing_time"":1859},{""page_index"":3,""viewing_time"":950}]","18421","","","","","","","","","","","","","","","","","","","",""
"","comprehension_check","","survey-multi-choice","8","215142","0.0-1.0-0.2-1.2","0","0","44865","","7045","{""Q0"":""True"",""Q1"":""K"",""Q2"":""Once the second image appears and while the screen 'MAKE A CHOICE' is shown"",""Q3"":""Green mark"",""Q4"":""either D or K""}","0","","","","","","","","","","","","","","","","","",""
"","start_exp","","html-keyboard-response","9","216931","0.0-1.0-1.0","0","0","44865","","1766","","","32","","","","","","","","","","","","","","","","",""
"","S1","","html-keyboard-response","10","217191","0.0-1.0-2.0","0","0","44865","","null","","","null","0","","","","","","","","","","","","","","","",""
"","ISI","","html-keyboard-response","11","217696","0.0-1.0-3.0","0","0","44865","","null","","","null","0","NaN","","","","","","","","","","","","","","",""
"","S2","","html-keyboard-response","12","217950","0.0-1.0-4.0","0","0","44865","","null","","","null","0","","NaN","","","","","","","","","","","","","",""
"","response","","html-keyboard-response","13","219715","0.0-1.0-5.0-0.0","0","0","44865","","null","","","null","0","","","1","0","training","adjacent","CD","3","4","M.jpg","R.jpg","NaN","1","0","",""
"","too_slow_prompt","","html-keyboard-response","14","220727","0.0-1.0-7.0-0.0","1","0","44865","","null","","","null","","","","","","","","","","","","","","","","",""
"","time_out","","html-keyboard-response","15","222734","0.0-1.0-8.0-0.0","0","0","44865","","null","","","null","0","","","","","","","","","","","","","","","",""
"","ITI","","html-keyboard-response","16","223743","0.0-1.0-9.0","0","0","44865","","null","","","null","0","","","","","","","","","","","","","","","NaN",""
"","S1","","html-keyboard-response","17","223998","0.0-1.0-11.0","0","0","44865","","null","","","null","1","","","","","","","","","","","","","","","",""
"","ISI","","html-keyboard-response","18","224512","0.0-1.0-12.0","0","0","44865","","null","","","null","1","NaN","","","","","","","","","","","","","","",""
"","S2","","html-keyboard-response","19","224609","0.0-1.0-13.0","0","0","44865","","93","","","75","1","","k","1","1","training","adjacent","CB","3","2","M.jpg","N.jpg","1","0","0","",""
"","feedback","","html-keyboard-response","20","225615","0.0-1.0-15.0-0.0","0","0","44865","","null","","","null","1","","","","","","","","","","","","","","","",""
"","time_out","","html-keyboard-response","21","227626","0.0-1.0-17.0-0.0","0","0","44865","","null","","","null","1","","","","","","","","","","","","","","","",""
"","ITI","","html-keyboard-response","22","228639","0.0-1.0-18.0","0","0","44865","","null","","","null","1","","","","","","","","","","","","","","","NaN",""
"","S1","","html-keyboard-response","23","228897","0.0-1.0-20.0","0","0","44865","","null","","","null","2","","","","","","","","","","","","","","","",""
"","ISI","","html-keyboard-response","24","229408","0.0-1.0-21.0","0","0","44865","","null","","","null","2","NaN","","","","","","","","","","","","","","",""
"","S2","","html-keyboard-response","25","229663","0.0-1.0-22.0","0","0","44865","","null","","","null","2","","NaN","","","","","","","","","","","","","",""
"","response","","html-keyboard-response","26","230529","0.0-1.0-23.0-0.0","0","0","44865","","861","","","68","2","","","1","2","training","adjacent","BC","2","3","N.jpg","M.jpg","0","1","0","",""
"","feedback","","html-keyboard-response","27","231552","0.0-1.0-24.0-0.0","0","0","44865","","null","","","null","2","","","","","","","","","","","","","","","",""
"","time_out","","html-keyboard-response","28","233559","0.0-1.0-26.0-0.0","0","0","44865","","null","","","null","2","","","","","","","","","","","","","","","",""
"","ITI","","html-keyboard-response","29","234567","0.0-1.0-27.0","0","0","44865","","null","","","null","2","","","","","","","","","","","","","","","NaN",""
"","S1","","html-keyboard-response","30","234823","0.0-1.0-29.0","0","0","44865","","null","","","null","3","","","","","","","","","","","","","","","",""
"","ISI","","html-keyboard-response","31","235327","0.0-1.0-30.0","0","0","44865","","null","","","null","3","NaN","","","","","","","","","","","","","","",""
"","S2","","html-keyboard-response","32","235599","0.0-1.0-31.0","0","0","44865","","null","","","null","3","","NaN","","","","","","","","","","","","","",""
"","response","","html-keyboard-response","33","237124","0.0-1.0-32.0-0.0","0","0","44865","","1519","","","75","3","","","1","3","training","adjacent","CB","3","2","M.jpg","N.jpg","1","0","0","",""
"","feedback","","html-keyboard-response","34","238136","0.0-1.0-33.0-0.0","0","0","44865","","null","","","null","3","","","","","","","","","","","","","","","",""
"","time_out","","html-keyboard-response","35","240145","0.0-1.0-35.0-0.0","0","0","44865","","null","","","null","3","","","","","","","","","","","","","","","",""
"","ITI","","html-keyboard-response","36","241156","0.0-1.0-36.0","0","0","44865","","null","","","null","3","","","","","","","","","","","","","","","NaN",""
"","S1","","html-keyboard-response","37","241424","0.0-1.0-38.0","0","0","44865","","null","","","null","4","","","","","","","","","","","","","","","",""
"","ISI","","html-keyboard-response","38","241928","0.0-1.0-39.0","0","0","44865","","null","","","null","4","NaN","","","","","","","","","","","","","","",""
"","S2","","html-keyboard-response","39","242184","0.0-1.0-40.0","0","0","44865","","null","","","null","4","","NaN","","","","","","","","","","","","","",""
"","response","","html-keyboard-response","40","242580","0.0-1.0-41.0-0.0","0","0","44865","","392","","","68","4","","","1","4","training","adjacent","BC","2","3","N.jpg","M.jpg","0","1","0","",""
"","feedback","","html-keyboard-response","41","243592","0.0-1.0-42.0-0.0","0","0","44865","","null","","","null","4","","","","","","","","","","","","","","","",""
"","time_out","","html-keyboard-response","42","245599","0.0-1.0-44.0-0.0","0","0","44865","","null","","","null","4","","","","","","","","","","","","","","","",""
"","ITI","","html-keyboard-response","43","246608","0.0-1.0-45.0","0","0","44865","","null","","","null","4","","","","","","","","","","","","","","","NaN",""
"","S1","","html-keyboard-response","44","246868","0.0-1.0-47.0","0","0","44865","","null","","","null","5","","","","","","","","","","","","","","","",""
"","ISI","","html-keyboard-response","45","247376","0.0-1.0-48.0","0","0","44865","","null","","","null","5","NaN","","","","","","","","","","","","","","",""
"","S2","","html-keyboard-response","46","247633","0.0-1.0-49.0","0","0","44865","","null","","","null","5","","NaN","","","","","","","","","","","","","",""
"","response","","html-keyboard-response","47","248825","0.0-1.0-50.0-0.0","0","0","44865","","1192","","","75","5","","","1","5","training","adjacent","FG","6","7","L.jpg","Q.jpg","1","1","1","",""
"","feedback","","html-keyboard-response","48","249833","0.0-1.0-51.0-0.0","0","0","44865","","null","","","null","5","","","","","","","","","","","","","","","",""
"","ITI","","html-keyboard-response","49","250841","0.0-1.0-54.0","0","0","44865","","null","","","null","5","","","","","","","","","","","","","","","NaN",""
"","S1","","html-keyboard-response","50","251093","0.0-1.0-56.0","0","0","44865","","null","","","null","6","","","","","","","","","","","","","","","",""
"","ISI","","html-keyboard-response","51","251600","0.0-1.0-57.0","0","0","44865","","null","","","null","6","NaN","","","","","","","","","","","","","","",""
"","S2","","html-keyboard-response","52","251856","0.0-1.0-58.0","0","0","44865","","null","","","null","6","","NaN","","","","","","","","","","","","","",""
"","response","","html-keyboard-response","53","253226","0.0-1.0-59.0-0.0","0","0","44865","","1366","","","75","6","","","1","6","training","adjacent","CD","3","4","M.jpg","R.jpg","1","1","1","",""
"","feedback","","html-keyboard-response","54","254234","0.0-1.0-60.0-0.0","0","0","44865","","null","","","null","6","","","","","","","","","","","","","","","",""
"","ITI","","html-keyboard-response","55","255241","0.0-1.0-63.0","0","0","44865","","null","","","null","6","","","","","","","","","","","","","","","NaN",""
"","S1","","html-keyboard-response","56","255499","0.0-1.0-65.0","0","0","44865","","null","","","null","7","","","","","","","","","","","","","","","",""
"","ISI","","html-keyboard-response","57","256007","0.0-1.0-66.0","0","0","44865","","null","","","null","7","NaN","","","","","","","","","","","","","","",""
"","S2","","html-keyboard-response","58","256264","0.0-1.0-67.0","0","0","44865","","null","","","null","7","","NaN","","","","","","","","","","","","","",""
"","response","","html-keyboard-response","59","257221","0.0-1.0-68.0-0.0","0","0","44865","","952","","","68","7","","","1","7","training","adjacent","ED","5","4","O.jpg","R.jpg","0","0","1","",""
"","feedback","","html-keyboard-response","60","258224","0.0-1.0-69.0-0.0","0","0","44865","","null","","","null","7","","","","","","","","","","","","","","","",""
"","ITI","","html-keyboard-response","61","259233","0.0-1.0-72.0","0","0","44865","","null","","","null","7","","","","","","","","","","","","","","","NaN",""
"","S1","","html-keyboard-response","62","259488","0.0-1.0-74.0","0","0","44865","","null","","","null","8","","","","","","","","","","","","","","","",""
"","ISI","","html-keyboard-response","63","259997","0.0-1.0-75.0","0","0","44865","","null","","","null","8","NaN","","","","","","","","","","","","","","",""
"","S2","","html-keyboard-response","64","260257","0.0-1.0-76.0","0","0","44865","","null","","","null","8","","NaN","","","","","","","","","","","","","",""
"","response","","html-keyboard-response","65","261135","0.0-1.0-77.0-0.0","0","0","44865","","873","","","75","8","","","1","8","training","adjacent","BA","2","1","N.jpg","P.jpg","1","0","0","",""
"","feedback","","html-keyboard-response","66","262146","0.0-1.0-78.0-0.0","0","0","44865","","null","","","null","8","","","","","","","","","","","","","","","",""
"","time_out","","html-keyboard-response","67","264152","0.0-1.0-80.0-0.0","0","0","44865","","null","","","null","8","","","","","","","","","","","","","","","",""
"","ITI","","html-keyboard-response","68","265161","0.0-1.0-81.0","0","0","44865","","null","","","null","8","","","","","","","","","","","","","","","NaN",""
"","S1","","html-keyboard-response","69","265416","0.0-1.0-83.0","0","0","44865","","null","","","null","9","","","","","","","","","","","","","","","",""
"","ISI","","html-keyboard-response","70","265919","0.0-1.0-84.0","0","0","44865","","null","","","null","9","NaN","","","","","","","","","","","","","","",""
"","S2","","html-keyboard-response","71","266175","0.0-1.0-85.0","0","0","44865","","null","","","null","9","","NaN","","","","","","","","","","","","","",""
"","response","","html-keyboard-response","72","267039","0.0-1.0-86.0-0.0","0","0","44865","","861","","","68","9","","","1","9","training","adjacent","CB","3","2","M.jpg","N.jpg","0","0","1","",""
"","feedback","","html-keyboard-response","73","268048","0.0-1.0-87.0-0.0","0","0","44865","","null","","","null","9","","","","","","","","","","","","","","","",""
"","ITI","","html-keyboard-response","74","269055","0.0-1.0-90.0","0","0","44865","","null","","","null","9","","","","","","","","","","","","","","","NaN",""
"","S1","","html-keyboard-response","75","269313","0.0-1.0-92.0","0","0","44865","","null","","","null","10","","","","","","","","","","","","","","","",""
"","ISI","","html-keyboard-response","76","269824","0.0-1.0-93.0","0","0","44865","","null","","","null","10","NaN","","","","","","","","","","","","","","",""
"","S2","","html-keyboard-response","77","270079","0.0-1.0-94.0","0","0","44865","","null","","","null","10","","NaN","","","","","","","","","","","","","",""
"","response","","html-keyboard-response","78","271252","0.0-1.0-95.0-0.0","0","0","44865","","1169","","","68","10","","","1","10","training","adjacent","AB","1","2","P.jpg","N.jpg","0","1","0","",""
"","feedback","","html-keyboard-response","79","272257","0.0-1.0-96.0-0.0","0","0","44865","","null","","","null","10","","","","","","","","","","","","","","","",""
"","time_out","","html-keyboard-response","80","274266","0.0-1.0-98.0-0.0","0","0","44865","","null","","","null","10","","","","","","","","","","","","","","","",""
"","ITI","","html-keyboard-response","81","275274","0.0-1.0-99.0","0","0","44865","","null","","","null","10","","","","","","","","","","","","","","","NaN",""
"","S1","","html-keyboard-response","82","275528","0.0-1.0-101.0","0","0","44865","","null","","","null","11","","","","","","","","","","","","","","","",""
"","ISI","","html-keyboard-response","83","276033","0.0-1.0-102.0","0","0","44865","","null","","","null","11","NaN","","","","","","","","","","","","","","",""
"","S2","","html-keyboard-response","84","276295","0.0-1.0-103.0","0","0","44865","","null","","","null","11","","NaN","","","","","","","","","","","","","",""
"","response","","html-keyboard-response","85","277185","0.0-1.0-104.0-0.0","0","0","44865","","883","","","75","11","","","1","11","training","adjacent","EF","5","6","O.jpg","L.jpg","1","1","1","",""
"","feedback","","html-keyboard-response","86","278191","0.0-1.0-105.0-0.0","0","0","44865","","null","","","null","11","","","","","","","","","","","","","","","",""
"","ITI","","html-keyboard-response","87","279199","0.0-1.0-108.0","0","0","44865","","null","","","null","11","","","","","","","","","","","","","","","NaN",""
"","S1","","html-keyboard-response","88","279458","0.0-1.0-110.0","0","0","44865","","null","","","null","12","","","","","","","","","","","","","","","",""
"","ISI","","html-keyboard-response","89","279968","0.0-1.0-111.0","0","0","44865","","null","","","null","12","NaN","","","","","","","","","","","","","","",""
"","S2","","html-keyboard-response","90","280223","0.0-1.0-112.0","0","0","44865","","null","","","null","12","","NaN","","","","","","","","","","","","","",""
"","response","","html-keyboard-response","91","281220","0.0-1.0-113.0-0.0","0","0","44865","","993","","","75","12","","","1","12","training","adjacent","EF","5","6","O.jpg","L.jpg","1","1","1","",""
"","feedback","","html-keyboard-response","92","282224","0.0-1.0-114.0-0.0","0","0","44865","","null","","","null","12","","","","","","","","","","","","","","","",""
"","ITI","","html-keyboard-response","93","283232","0.0-1.0-117.0","0","0","44865","","null","","","null","12","","","","","","","","","","","","","","","NaN",""
"","S1","","html-keyboard-response","94","283487","0.0-1.0-119.0","0","0","44865","","null","","","null","13","","","","","","","","","","","","","","","",""
"","ISI","","html-keyboard-response","95","283992","0.0-1.0-120.0","0","0","44865","","null","","","null","13","NaN","","","","","","","","","","","","","","",""
"","S2","","html-keyboard-response","96","284248","0.0-1.0-121.0","0","0","44865","","null","","","null","13","","NaN","","","","","","","","","","","","","",""
"","response","","html-keyboard-response","97","284825","0.0-1.0-122.0-0.0","0","0","44865","","573","","","75","13","","","1","13","training","adjacent","ED","5","4","O.jpg","R.jpg","1","0","0","",""
"","feedback","","html-keyboard-response","98","285830","0.0-1.0-123.0-0.0","0","0","44865","","null","","","null","13","","","","","","","","","","","","","","","",""
"","time_out","","html-keyboard-response","99","287840","0.0-1.0-125.0-0.0","0","0","44865","","null","","","null","13","","","","","","","","","","","","","","","",""
"","ITI","","html-keyboard-response","100","288866","0.0-1.0-126.0","0","0","44865","","null","","","null","13","","","","","","","","","","","","","","","NaN",""
"","S1","","html-keyboard-response","101","289120","0.0-1.0-128.0","0","0","44865","","null","","","null","14","","","","","","","","","","","","","","","",""
"","ISI","","html-keyboard-response","102","289625","0.0-1.0-129.0","0","0","44865","","null","","","null","14","NaN","","","","","","","","","","","","","","",""
"","S2","","html-keyboard-response","103","289879","0.0-1.0-130.0","0","0","44865","","null","","","null","14","","NaN","","","","","","","","","","","","","",""
"","response","","html-keyboard-response","104","291642","0.0-1.0-131.0-0.0","0","0","44865","","null","","","null","14","","","1","14","training","adjacent","DC","4","3","R.jpg","M.jpg","NaN","0","0","",""
"","too_slow_prompt","","html-keyboard-response","105","292651","0.0-1.0-133.0-0.0","1","0","44865","","null","","","null","","","","","","","","","","","","","","","","",""
"","time_out","","html-keyboard-response","106","294658","0.0-1.0-134.0-0.0","0","0","44865","","null","","","null","14","","","","","","","","","","","","","","","",""
"","ITI","","html-keyboard-response","107","295667","0.0-1.0-135.0","0","0","44865","","null","","","null","14","","","","","","","","","","","","","","","NaN",""
"","S1","","html-keyboard-response","108","295927","0.0-1.0-137.0","0","0","44865","","null","","","null","15","","","","","","","","","","","","","","","",""
"","ISI","","html-keyboard-response","109","296432","0.0-1.0-138.0","0","0","44865","","null","","","null","15","NaN","","","","","","","","","","","","","","",""
"","S2","","html-keyboard-response","110","296757","0.0-1.0-139.0","0","0","44865","","null","","","null","15","","NaN","","","","","","","","","","","","","",""
"","response","","html-keyboard-response","111","297378","0.0-1.0-140.0-0.0","0","0","44865","","614","","","75","15","","","1","15","training","adjacent","DE","4","5","R.jpg","O.jpg","1","1","1","",""
"","feedback","","html-keyboard-response","112","298384","0.0-1.0-141.0-0.0","0","0","44865","","null","","","null","15","","","","","","","","","","","","","","","",""
"","ITI","","html-keyboard-response","113","299391","0.0-1.0-144.0","0","0","44865","","null","","","null","15","","","","","","","","","","","","","","","NaN",""
"","S1","","html-keyboard-response","114","299647","0.0-1.0-146.0","0","0","44865","","null","","","null","16","","","","","","","","","","","","","","","",""
"","ISI","","html-keyboard-response","115","300151","0.0-1.0-147.0","0","0","44865","","null","","","null","16","NaN","","","","","","","","","","","","","","",""
"","S2","","html-keyboard-response","116","300407","0.0-1.0-148.0","0","0","44865","","null","","","null","16","","NaN","","","","","","","","","","","","","",""
"","response","","html-keyboard-response","117","300850","0.0-1.0-149.0-0.0","0","0","44865","","438","","","75","16","","","1","16","training","adjacent","DE","4","5","R.jpg","O.jpg","1","1","1","",""
"","feedback","","html-keyboard-response","118","301864","0.0-1.0-150.0-0.0","0","0","44865","","null","","","null","16","","","","","","","","","","","","","","","",""
"","ITI","","html-keyboard-response","119","302871","0.0-1.0-153.0","0","0","44865","","null","","","null","16","","","","","","","","","","","","","","","NaN",""
"","S1","","html-keyboard-response","120","303129","0.0-1.0-155.0","0","0","44865","","null","","","null","17","","","","","","","","","","","","","","","",""
"","ISI","","html-keyboard-response","121","303638","0.0-1.0-156.0","0","0","44865","","null","","","null","17","NaN","","","","","","","","","","","","","","",""
"","S2","","html-keyboard-response","122","303895","0.0-1.0-157.0","0","0","44865","","null","","","null","17","","NaN","","","","","","","","","","","","","",""
"","response","","html-keyboard-response","123","304588","0.0-1.0-158.0-0.0","0","0","44865","","690","","","75","17","","","1","17","training","adjacent","FG","6","7","L.jpg","Q.jpg","1","1","1","",""
"","feedback","","html-keyboard-response","124","305599","0.0-1.0-159.0-0.0","0","0","44865","","null","","","null","17","","","","","","","","","","","","","","","",""
"","ITI","","html-keyboard-response","125","306615","0.0-1.0-162.0","0","0","44865","","null","","","null","17","","","","","","","","","","","","","","","NaN",""
"","S1","","html-keyboard-response","126","306871","0.0-1.0-164.0","0","0","44865","","null","","","null","18","","","","","","","","","","","","","","","",""
"","ISI","","html-keyboard-response","127","307375","0.0-1.0-165.0","0","0","44865","","null","","","null","18","NaN","","","","","","","","","","","","","","",""
"","S2","","html-keyboard-response","128","307631","0.0-1.0-166.0","0","0","44865","","null","","","null","18","","NaN","","","","","","","","","","","","","",""
"","response","","html-keyboard-response","129","308332","0.0-1.0-167.0-0.0","0","0","44865","","697","","","68","18","","","1","18","training","adjacent","EF","5","6","O.jpg","L.jpg","0","1","0","",""
"","feedback","","html-keyboard-response","130","309335","0.0-1.0-168.0-0.0","0","0","44865","","null","","","null","18","","","","","","","","","","","","","","","",""
"","time_out","","html-keyboard-response","131","311343","0.0-1.0-170.0-0.0","0","0","44865","","null","","","null","18","","","","","","","","","","","","","","","",""
"","ITI","","html-keyboard-response","132","312353","0.0-1.0-171.0","0","0","44865","","null","","","null","18","","","","","","","","","","","","","","","NaN",""
"","S1","","html-keyboard-response","133","312616","0.0-1.0-173.0","0","0","44865","","null","","","null","19","","","","","","","","","","","","","","","",""
"","ISI","","html-keyboard-response","134","313120","0.0-1.0-174.0","0","0","44865","","null","","","null","19","NaN","","","","","","","","","","","","","","",""
"","S2","","html-keyboard-response","135","313375","0.0-1.0-175.0","0","0","44865","","null","","","null","19","","NaN","","","","","","","","","","","","","",""
"","response","","html-keyboard-response","136","314180","0.0-1.0-176.0-0.0","0","0","44865","","800","","","75","19","","","1","19","training","adjacent","FG","6","7","L.jpg","Q.jpg","1","1","1","",""
"","feedback","","html-keyboard-response","137","315194","0.0-1.0-177.0-0.0","0","0","44865","","null","","","null","19","","","","","","","","","","","","","","","",""
"","ITI","","html-keyboard-response","138","316200","0.0-1.0-180.0","0","0","44865","","null","","","null","19","","","","","","","","","","","","","","","NaN",""
"","S1","","html-keyboard-response","139","316455","0.0-1.0-182.0","0","0","44865","","null","","","null","20","","","","","","","","","","","","","","","",""
"","ISI","","html-keyboard-response","140","316961","0.0-1.0-183.0","0","0","44865","","null","","","null","20","NaN","","","","","","","","","","","","","","",""
"","S2","","html-keyboard-response","141","317252","0.0-1.0-184.0","0","0","44865","","null","","","null","20","","NaN","","","","","","","","","","","","","",""
"","response","","html-keyboard-response","142","318187","0.0-1.0-185.0-0.0","0","0","44865","","931","","","75","20","","","1","20","training","adjacent","CD","3","4","M.jpg","R.jpg","1","1","1","",""
"","feedback","","html-keyboard-response","143","319204","0.0-1.0-186.0-0.0","0","0","44865","","null","","","null","20","","","","","","","","","","","","","","","",""
"","ITI","","html-keyboard-response","144","320214","0.0-1.0-189.0","0","0","44865","","null","","","null","20","","","","","","","","","","","","","","","NaN",""
"","S1","","html-keyboard-response","145","320473","0.0-1.0-191.0","0","0","44865","","null","","","null","21","","","","","","","","","","","","","","","",""
"","ISI","","html-keyboard-response","146","320982","0.0-1.0-192.0","0","0","44865","","null","","","null","21","NaN","","","","","","","","","","","","","","",""
"","S2","","html-keyboard-response","147","321248","0.0-1.0-193.0","0","0","44865","","null","","","null","21","","NaN","","","","","","","","","","","","","",""
"","response","","html-keyboard-response","148","321853","0.0-1.0-194.0-0.0","0","0","44865","","600","","","75","21","","","1","21","training","adjacent","CD","3","4","M.jpg","R.jpg","1","1","1","",""
"","feedback","","html-keyboard-response","149","322863","0.0-1.0-195.0-0.0","0","0","44865","","null","","","null","21","","","","","","","","","","","","","","","",""
"","ITI","","html-keyboard-response","150","323879","0.0-1.0-198.0","0","0","44865","","null","","","null","21","","","","","","","","","","","","","","","NaN",""
"","S1","","html-keyboard-response","151","324135","0.0-1.0-200.0","0","0","44865","","null","","","null","22","","","","","","","","","","","","","","","",""
"","ISI","","html-keyboard-response","152","324639","0.0-1.0-201.0","0","0","44865","","null","","","null","22","NaN","","","","","","","","","","","","","","",""
"","S2","","html-keyboard-response","153","324895","0.0-1.0-202.0","0","0","44865","","null","","","null","22","","NaN","","","","","","","","","","","","","",""
"","response","","html-keyboard-response","154","325507","0.0-1.0-203.0-0.0","0","0","44865","","605","","","75","22","","","1","22","training","adjacent","GF","7","6","Q.jpg","L.jpg","1","0","0","",""
"","feedback","","html-keyboard-response","155","326514","0.0-1.0-204.0-0.0","0","0","44865","","null","","","null","22","","","","","","","","","","","","","","","",""
"","time_out","","html-keyboard-response","156","328519","0.0-1.0-206.0-0.0","0","0","44865","","null","","","null","22","","","","","","","","","","","","","","","",""
"","ITI","","html-keyboard-response","157","329533","0.0-1.0-207.0","0","0","44865","","null","","","null","22","","","","","","","","","","","","","","","NaN",""
"","S1","","html-keyboard-response","158","329792","0.0-1.0-209.0","0","0","44865","","null","","","null","23","","","","","","","","","","","","","","","",""
"","ISI","","html-keyboard-response","159","330304","0.0-1.0-210.0","0","0","44865","","null","","","null","23","NaN","","","","","","","","","","","","","","",""
"","S2","","html-keyboard-response","160","330559","0.0-1.0-211.0","0","0","44865","","null","","","null","23","","NaN","","","","","","","","","","","","","",""
"","response","","html-keyboard-response","161","331541","0.0-1.0-212.0-0.0","0","0","44865","","977","","","68","23","","","1","23","training","adjacent","GF","7","6","Q.jpg","L.jpg","0","0","1","",""
"","feedback","","html-keyboard-response","162","332552","0.0-1.0-213.0-0.0","0","0","44865","","null","","","null","23","","","","","","","","","","","","","","","",""
"","ITI","","html-keyboard-response","163","333561","0.0-1.0-216.0","0","0","44865","","null","","","null","23","","","","","","","","","","","","","","","NaN",""
"","S1","","html-keyboard-response","164","333816","0.0-1.0-218.0","0","0","44865","","null","","","null","24","","","","","","","","","","","","","","","",""
"","ISI","","html-keyboard-response","165","334326","0.0-1.0-219.0","0","0","44865","","null","","","null","24","NaN","","","","","","","","","","","","","","",""
"","S2","","html-keyboard-response","166","334584","0.0-1.0-220.0","0","0","44865","","null","","","null","24","","NaN","","","","","","","","","","","","","",""
"","response","","html-keyboard-response","167","335743","0.0-1.0-221.0-0.0","0","0","44865","","1148","","","75","24","","","1","24","training","adjacent","DC","4","3","R.jpg","M.jpg","1","0","0","",""
"","feedback","","html-keyboard-response","168","336752","0.0-1.0-222.0-0.0","0","0","44865","","null","","","null","24","","","","","","","","","","","","","","","",""
"","time_out","","html-keyboard-response","169","338762","0.0-1.0-224.0-0.0","0","0","44865","","null","","","null","24","","","","","","","","","","","","","","","",""
"","ITI","","html-keyboard-response","170","339769","0.0-1.0-225.0","0","0","44865","","null","","","null","24","","","","","","","","","","","","","","","NaN",""
"","S1","","html-keyboard-response","171","340066","0.0-1.0-227.0","0","0","44865","","null","","","null","25","","","","","","","","","","","","","","","",""
"","ISI","","html-keyboard-response","172","340576","0.0-1.0-228.0","0","0","44865","","null","","","null","25","NaN","","","","","","","","","","","","","","",""
"","S2","","html-keyboard-response","173","340870","0.0-1.0-229.0","0","0","44865","","null","","","null","25","","NaN","","","","","","","","","","","","","",""
"","response","","html-keyboard-response","174","341509","0.0-1.0-230.0-0.0","0","0","44865","","624","","","68","25","","","1","25","training","adjacent","BA","2","1","N.jpg","P.jpg","0","0","1","",""
"","feedback","","html-keyboard-response","175","342522","0.0-1.0-231.0-0.0","0","0","44865","","null","","","null","25","","","","","","","","","","","","","","","",""
"","ITI","","html-keyboard-response","176","343527","0.0-1.0-234.0","0","0","44865","","null","","","null","25","","","","","","","","","","","","","","","NaN",""
"","S1","","html-keyboard-response","177","343783","0.0-1.0-236.0","0","0","44865","","null","","","null","26","","","","","","","","","","","","","","","",""
"","ISI","","html-keyboard-response","178","344289","0.0-1.0-237.0","0","0","44865","","null","","","null","26","NaN","","","","","","","","","","","","","","",""
"","S2","","html-keyboard-response","179","344553","0.0-1.0-238.0","0","0","44865","","null","","","null","26","","NaN","","","","","","","","","","","","","",""
"","response","","html-keyboard-response","180","345648","0.0-1.0-239.0-0.0","0","0","44865","","1081","","","75","26","","","1","26","training","adjacent","AB","1","2","P.jpg","N.jpg","1","1","1","",""
"","feedback","","html-keyboard-response","181","346654","0.0-1.0-240.0-0.0","0","0","44865","","null","","","null","26","","","","","","","","","","","","","","","",""
"","ITI","","html-keyboard-response","182","347670","0.0-1.0-243.0","0","0","44865","","null","","","null","26","","","","","","","","","","","","","","","NaN",""
"","S1","","html-keyboard-response","183","347927","0.0-1.0-245.0","0","0","44865","","null","","","null","27","","","","","","","","","","","","","","","",""
"","ISI","","html-keyboard-response","184","348432","0.0-1.0-246.0","0","0","44865","","null","","","null","27","NaN","","","","","","","","","","","","","","",""
"","S2","","html-keyboard-response","185","348685","0.0-1.0-247.0","0","0","44865","","null","","","null","27","","NaN","","","","","","","","","","","","","",""
"","response","","html-keyboard-response","186","349936","0.0-1.0-248.0-0.0","0","0","44865","","1245","","","75","27","","","1","27","training","adjacent","FE","6","5","L.jpg","O.jpg","1","0","0","",""
"","feedback","","html-keyboard-response","187","350943","0.0-1.0-249.0-0.0","0","0","44865","","null","","","null","27","","","","","","","","","","","","","","","",""
"","time_out","","html-keyboard-response","188","352955","0.0-1.0-251.0-0.0","0","0","44865","","null","","","null","27","","","","","","","","","","","","","","","",""
"","ITI","","html-keyboard-response","189","354032","0.0-1.0-252.0","0","0","44865","","null","","","null","27","","","","","","","","","","","","","","","NaN",""
"","S1","","html-keyboard-response","190","354287","0.0-1.0-254.0","0","0","44865","","null","","","null","28","","","","","","","","","","","","","","","",""
"","ISI","","html-keyboard-response","191","354792","0.0-1.0-255.0","0","0","44865","","null","","","null","28","NaN","","","","","","","","","","","","","","",""
"","S2","","html-keyboard-response","192","355048","0.0-1.0-256.0","0","0","44865","","null","","","null","28","","NaN","","","","","","","","","","","","","",""
"","response","","html-keyboard-response","193","356272","0.0-1.0-257.0-0.0","0","0","44865","","1219","","","68","28","","","1","28","training","adjacent","EF","5","6","O.jpg","L.jpg","0","1","0","",""
"","feedback","","html-keyboard-response","194","357279","0.0-1.0-258.0-0.0","0","0","44865","","null","","","null","28","","","","","","","","","","","","","","","",""
"","time_out","","html-keyboard-response","195","359295","0.0-1.0-260.0-0.0","0","0","44865","","null","","","null","28","","","","","","","","","","","","","","","",""
"","ITI","","html-keyboard-response","196","360304","0.0-1.0-261.0","0","0","44865","","null","","","null","28","","","","","","","","","","","","","","","NaN",""
"","S1","","html-keyboard-response","197","360558","0.0-1.0-263.0","0","0","44865","","null","","","null","29","","","","","","","","","","","","","","","",""
"","ISI","","html-keyboard-response","198","361063","0.0-1.0-264.0","0","0","44865","","null","","","null","29","NaN","","","","","","","","","","","","","","",""
"","S2","","html-keyboard-response","199","361319","0.0-1.0-265.0","0","0","44865","","null","","","null","29","","NaN","","","","","","","","","","","","","",""
"","response","","html-keyboard-response","200","361873","0.0-1.0-266.0-0.0","0","0","44865","","551","","","75","29","","","1","29","training","adjacent","DC","4","3","R.jpg","M.jpg","1","0","0","",""
"","feedback","","html-keyboard-response","201","362879","0.0-1.0-267.0-0.0","0","0","44865","","null","","","null","29","","","","","","","","","","","","","","","",""
"","time_out","","html-keyboard-response","202","364888","0.0-1.0-269.0-0.0","0","0","44865","","null","","","null","29","","","","","","","","","","","","","","","",""
"","ITI","","html-keyboard-response","203","365896","0.0-1.0-270.0","0","0","44865","","null","","","null","29","","","","","","","","","","","","","","","NaN",""
"","S1","","html-keyboard-response","204","366150","0.0-1.0-272.0","0","0","44865","","null","","","null","30","","","","","","","","","","","","","","","",""
"","ISI","","html-keyboard-response","205","366656","0.0-1.0-273.0","0","0","44865","","null","","","null","30","NaN","","","","","","","","","","","","","","",""
"","S2","","html-keyboard-response","206","366910","0.0-1.0-274.0","0","0","44865","","null","","","null","30","","NaN","","","","","","","","","","","","","",""
"","response","","html-keyboard-response","207","367752","0.0-1.0-275.0-0.0","0","0","44865","","836","","","68","30","","","1","30","training","adjacent","FE","6","5","L.jpg","O.jpg","0","0","1","",""
"","feedback","","html-keyboard-response","208","368759","0.0-1.0-276.0-0.0","0","0","44865","","null","","","null","30","","","","","","","","","","","","","","","",""
"","ITI","","html-keyboard-response","209","369772","0.0-1.0-279.0","0","0","44865","","null","","","null","30","","","","","","","","","","","","","","","NaN",""
"","S1","","html-keyboard-response","210","370031","0.0-1.0-281.0","0","0","44865","","null","","","null","31","","","","","","","","","","","","","","","",""
"","ISI","","html-keyboard-response","211","370535","0.0-1.0-282.0","0","0","44865","","null","","","null","31","NaN","","","","","","","","","","","","","","",""
"","S2","","html-keyboard-response","212","370793","0.0-1.0-283.0","0","0","44865","","null","","","null","31","","NaN","","","","","","","","","","","","","",""
"","response","","html-keyboard-response","213","372160","0.0-1.0-284.0-0.0","0","0","44865","","1362","","","75","31","","","1","31","training","adjacent","DE","4","5","R.jpg","O.jpg","1","1","1","",""
"","feedback","","html-keyboard-response","214","373166","0.0-1.0-285.0-0.0","0","0","44865","","null","","","null","31","","","","","","","","","","","","","","","",""
"","ITI","","html-keyboard-response","215","374179","0.0-1.0-288.0","0","0","44865","","null","","","null","31","","","","","","","","","","","","","","","NaN",""
"","S1","","html-keyboard-response","216","374438","0.0-1.0-290.0","0","0","44865","","null","","","null","32","","","","","","","","","","","","","","","",""
"","ISI","","html-keyboard-response","217","374943","0.0-1.0-291.0","0","0","44865","","null","","","null","32","NaN","","","","","","","","","","","","","","",""
"","S2","","html-keyboard-response","218","375198","0.0-1.0-292.0","0","0","44865","","null","","","null","32","","NaN","","","","","","","","","","","","","",""
"","response","","html-keyboard-response","219","376509","0.0-1.0-293.0-0.0","0","0","44865","","1307","","","68","32","","","1","32","training","adjacent","BC","2","3","N.jpg","M.jpg","0","1","0","",""
"","feedback","","html-keyboard-response","220","377521","0.0-1.0-294.0-0.0","0","0","44865","","null","","","null","32","","","","","","","","","","","","","","","",""
"","time_out","","html-keyboard-response","221","379528","0.0-1.0-296.0-0.0","0","0","44865","","null","","","null","32","","","","","","","","","","","","","","","",""
"","ITI","","html-keyboard-response","222","380537","0.0-1.0-297.0","0","0","44865","","null","","","null","32","","","","","","","","","","","","","","","NaN",""
"","S1","","html-keyboard-response","223","380790","0.0-1.0-299.0","0","0","44865","","null","","","null","33","","","","","","","","","","","","","","","",""
"","ISI","","html-keyboard-response","224","381294","0.0-1.0-300.0","0","0","44865","","null","","","null","33","NaN","","","","","","","","","","","","","","",""
"","S2","","html-keyboard-response","225","381551","0.0-1.0-301.0","0","0","44865","","null","","","null","33","","NaN","","","","","","","","","","","","","",""
"","response","","html-keyboard-response","226","382506","0.0-1.0-302.0-0.0","0","0","44865","","950","","","75","33","","","1","33","training","adjacent","BA","2","1","N.jpg","P.jpg","1","0","0","",""
"","feedback","","html-keyboard-response","227","383569","0.0-1.0-303.0-0.0","0","0","44865","","null","","","null","33","","","","","","","","","","","","","","","",""
"","time_out","","html-keyboard-response","228","385657","0.0-1.0-305.0-0.0","0","0","44865","","null","","","null","33","","","","","","","","","","","","","","","",""
"","ITI","","html-keyboard-response","229","386663","0.0-1.0-306.0","0","0","44865","","null","","","null","33","","","","","","","","","","","","","","","NaN",""
"","S1","","html-keyboard-response","230","386920","0.0-1.0-308.0","0","0","44865","","null","","","null","34","","","","","","","","","","","","","","","",""
"","ISI","","html-keyboard-response","231","387424","0.0-1.0-309.0","0","0","44865","","null","","","null","34","NaN","","","","","","","","","","","","","","",""
"","S2","","html-keyboard-response","232","387685","0.0-1.0-310.0","0","0","44865","","null","","","null","34","","NaN","","","","","","","","","","","","","",""
"","response","","html-keyboard-response","233","389447","0.0-1.0-311.0-0.0","0","0","44865","","null","","","null","34","","","1","34","training","adjacent","FE","6","5","L.jpg","O.jpg","NaN","0","0","",""
"","too_slow_prompt","","html-keyboard-response","234","390455","0.0-1.0-313.0-0.0","1","0","44865","","null","","","null","","","","","","","","","","","","","","","","",""
"","time_out","","html-keyboard-response","235","392463","0.0-1.0-314.0-0.0","0","0","44865","","null","","","null","34","","","","","","","","","","","","","","","",""
"","ITI","","html-keyboard-response","236","393471","0.0-1.0-315.0","0","0","44865","","null","","","null","34","","","","","","","","","","","","","","","NaN",""
"","S1","","html-keyboard-response","237","393735","0.0-1.0-317.0","0","0","44865","","null","","","null","35","","","","","","","","","","","","","","","",""
"","ISI","","html-keyboard-response","238","394245","0.0-1.0-318.0","0","0","44865","","null","","","null","35","NaN","","","","","","","","","","","","","","",""
"","S2","","html-keyboard-response","239","394503","0.0-1.0-319.0","0","0","44865","","null","","","null","35","","NaN","","","","","","","","","","","","","",""
"","response","","html-keyboard-response","240","395302","0.0-1.0-320.0-0.0","0","0","44865","","796","","","68","35","","","1","35","training","adjacent","ED","5","4","O.jpg","R.jpg","0","0","1","",""
"","feedback","","html-keyboard-response","241","396312","0.0-1.0-321.0-0.0","0","0","44865","","null","","","null","35","","","","","","","","","","","","","","","",""
"","ITI","","html-keyboard-response","242","397318","0.0-1.0-324.0","0","0","44865","","null","","","null","35","","","","","","","","","","","","","","","NaN",""
"","S1","","html-keyboard-response","243","397658","0.0-1.0-326.0","0","0","44865","","null","","","null","36","","","","","","","","","","","","","","","",""
"","ISI","","html-keyboard-response","244","398168","0.0-1.0-327.0","0","0","44865","","null","","","null","36","NaN","","","","","","","","","","","","","","",""
"","S2","","html-keyboard-response","245","398423","0.0-1.0-328.0","0","0","44865","","null","","","null","36","","NaN","","","","","","","","","","","","","",""
"","response","","html-keyboard-response","246","398974","0.0-1.0-329.0-0.0","0","0","44865","","542","","","68","36","","","1","36","training","adjacent","FE","6","5","L.jpg","O.jpg","0","0","1","",""
"","feedback","","html-keyboard-response","247","399993","0.0-1.0-330.0-0.0","0","0","44865","","null","","","null","36","","","","","","","","","","","","","","","",""
"","ITI","","html-keyboard-response","248","401000","0.0-1.0-333.0","0","0","44865","","null","","","null","36","","","","","","","","","","","","","","","NaN",""
"","S1","","html-keyboard-response","249","401255","0.0-1.0-335.0","0","0","44865","","null","","","null","37","","","","","","","","","","","","","","","",""
"","ISI","","html-keyboard-response","250","401770","0.0-1.0-336.0","0","0","44865","","null","","","null","37","NaN","","","","","","","","","","","","","","",""
"","S2","","html-keyboard-response","251","402032","0.0-1.0-337.0","0","0","44865","","null","","","null","37","","NaN","","","","","","","","","","","","","",""
"","response","","html-keyboard-response","252","402712","0.0-1.0-338.0-0.0","0","0","44865","","674","","","68","37","","","1","37","training","adjacent","AB","1","2","P.jpg","N.jpg","0","1","0","",""
"","feedback","","html-keyboard-response","253","403759","0.0-1.0-339.0-0.0","0","0","44865","","null","","","null","37","","","","","","","","","","","","","","","",""
"","time_out","","html-keyboard-response","254","405768","0.0-1.0-341.0-0.0","0","0","44865","","null","","","null","37","","","","","","","","","","","","","","","",""
"","ITI","","html-keyboard-response","255","406776","0.0-1.0-342.0","0","0","44865","","null","","","null","37","","","","","","","","","","","","","","","NaN",""
"","S1","","html-keyboard-response","256","407030","0.0-1.0-344.0","0","0","44865","","null","","","null","38","","","","","","","","","","","","","","","",""
"","ISI","","html-keyboard-response","257","407539","0.0-1.0-345.0","0","0","44865","","null","","","null","38","NaN","","","","","","","","","","","","","","",""
"","S2","","html-keyboard-response","258","407799","0.0-1.0-346.0","0","0","44865","","null","","","null","38","","NaN","","","","","","","","","","","","","",""
"","response","","html-keyboard-response","259","408533","0.0-1.0-347.0-0.0","0","0","44865","","729","","","75","38","","","1","38","training","adjacent","ED","5","4","O.jpg","R.jpg","1","0","0","",""
"","feedback","","html-keyboard-response","260","409545","0.0-1.0-348.0-0.0","0","0","44865","","null","","","null","38","","","","","","","","","","","","","","","",""
"","time_out","","html-keyboard-response","261","411565","0.0-1.0-350.0-0.0","0","0","44865","","null","","","null","38","","","","","","","","","","","","","","","",""
"","ITI","","html-keyboard-response","262","412574","0.0-1.0-351.0","0","0","44865","","null","","","null","38","","","","","","","","","","","","","","","NaN",""
"","S1","","html-keyboard-response","263","412831","0.0-1.0-353.0","0","0","44865","","null","","","null","39","","","","","","","","","","","","","","","",""
"","ISI","","html-keyboard-response","264","413355","0.0-1.0-354.0","0","0","44865","","null","","","null","39","NaN","","","","","","","","","","","","","","",""
"","S2","","html-keyboard-response","265","413613","0.0-1.0-355.0","0","0","44865","","null","","","null","39","","NaN","","","","","","","","","","","","","",""
"","response","","html-keyboard-response","266","414968","0.0-1.0-356.0-0.0","0","0","44865","","1351","","","68","39","","","1","39","training","adjacent","GF","7","6","Q.jpg","L.jpg","0","0","1","",""
"","feedback","","html-keyboard-response","267","415977","0.0-1.0-357.0-0.0","0","0","44865","","null","","","null","39","","","","","","","","","","","","","","","",""
"","ITI","","html-keyboard-response","268","416982","0.0-1.0-360.0","0","0","44865","","null","","","null","39","","","","","","","","","","","","","","","NaN",""
"","S1","","html-keyboard-response","269","417239","0.0-1.0-362.0","0","0","44865","","null","","","null","40","","","","","","","","","","","","","","","",""
"","ISI","","html-keyboard-response","270","417785","0.0-1.0-363.0","0","0","44865","","null","","","null","40","NaN","","","","","","","","","","","","","","",""
"","S2","","html-keyboard-response","271","418039","0.0-1.0-364.0","0","0","44865","","null","","","null","40","","NaN","","","","","","","","","","","","","",""
"","response","","html-keyboard-response","272","419346","0.0-1.0-365.0-0.0","0","0","44865","","1301","","","68","40","","","1","40","training","adjacent","BC","2","3","N.jpg","M.jpg","0","1","0","",""
"","feedback","","html-keyboard-response","273","420352","0.0-1.0-366.0-0.0","0","0","44865","","null","","","null","40","","","","","","","","","","","","","","","",""
"","time_out","","html-keyboard-response","274","422360","0.0-1.0-368.0-0.0","0","0","44865","","null","","","null","40","","","","","","","","","","","","","","","",""
"","ITI","","html-keyboard-response","275","423366","0.0-1.0-369.0","0","0","44865","","null","","","null","40","","","","","","","","","","","","","","","NaN",""
"","S1","","html-keyboard-response","276","423623","0.0-1.0-371.0","0","0","44865","","null","","","null","41","","","","","","","","","","","","","","","",""
"","ISI","","html-keyboard-response","277","424126","0.0-1.0-372.0","0","0","44865","","null","","","null","41","NaN","","","","","","","","","","","","","","",""
"","S2","","html-keyboard-response","278","424382","0.0-1.0-373.0","0","0","44865","","null","","","null","41","","NaN","","","","","","","","","","","","","",""
"","response","","html-keyboard-response","279","425221","0.0-1.0-374.0-0.0","0","0","44865","","834","","","75","41","","","1","41","training","adjacent","GF","7","6","Q.jpg","L.jpg","1","0","0","",""
"","feedback","","html-keyboard-response","280","426232","0.0-1.0-375.0-0.0","0","0","44865","","null","","","null","41","","","","","","","","","","","","","","","",""
"","time_out","","html-keyboard-response","281","428238","0.0-1.0-377.0-0.0","0","0","44865","","null","","","null","41","","","","","","","","","","","","","","","",""
"","ITI","","html-keyboard-response","282","429248","0.0-1.0-378.0","0","0","44865","","null","","","null","41","","","","","","","","","","","","","","","NaN",""
"","S1","","html-keyboard-response","283","429504","0.0-1.0-380.0","0","0","44865","","null","","","null","42","","","","","","","","","","","","","","","",""
"","ISI","","html-keyboard-response","284","430014","0.0-1.0-381.0","0","0","44865","","null","","","null","42","NaN","","","","","","","","","","","","","","",""
"","S2","","html-keyboard-response","285","430271","0.0-1.0-382.0","0","0","44865","","null","","","null","42","","NaN","","","","","","","","","","","","","",""
"","response","","html-keyboard-response","286","431750","0.0-1.0-383.0-0.0","0","0","44865","","1476","","","75","42","","","1","42","training","adjacent","CB","3","2","M.jpg","N.jpg","1","0","0","",""
"","feedback","","html-keyboard-response","287","432758","0.0-1.0-384.0-0.0","0","0","44865","","null","","","null","42","","","","","","","","","","","","","","","",""
"","time_out","","html-keyboard-response","288","434774","0.0-1.0-386.0-0.0","0","0","44865","","null","","","null","42","","","","","","","","","","","","","","","",""
"","ITI","","html-keyboard-response","289","435805","0.0-1.0-387.0","0","0","44865","","null","","","null","42","","","","","","","","","","","","","","","NaN",""
"","S1","","html-keyboard-response","290","436063","0.0-1.0-389.0","0","0","44865","","null","","","null","43","","","","","","","","","","","","","","","",""
"","ISI","","html-keyboard-response","291","436581","0.0-1.0-390.0","0","0","44865","","null","","","null","43","NaN","","","","","","","","","","","","","","",""
"","S2","","html-keyboard-response","292","436839","0.0-1.0-391.0","0","0","44865","","null","","","null","43","","NaN","","","","","","","","","","","","","",""
"","response","","html-keyboard-response","293","437929","0.0-1.0-392.0-0.0","0","0","44865","","1085","","","68","43","","","1","43","training","adjacent","DC","4","3","R.jpg","M.jpg","0","0","1","",""
"","feedback","","html-keyboard-response","294","438935","0.0-1.0-393.0-0.0","0","0","44865","","null","","","null","43","","","","","","","","","","","","","","","",""
"","ITI","","html-keyboard-response","295","439943","0.0-1.0-396.0","0","0","44865","","null","","","null","43","","","","","","","","","","","","","","","NaN",""
"","S1","","html-keyboard-response","296","440199","0.0-1.0-398.0","0","0","44865","","null","","","null","44","","","","","","","","","","","","","","","",""
"","ISI","","html-keyboard-response","297","440703","0.0-1.0-399.0","0","0","44865","","null","","","null","44","NaN","","","","","","","","","","","","","","",""
"","S2","","html-keyboard-response","298","440958","0.0-1.0-400.0","0","0","44865","","null","","","null","44","","NaN","","","","","","","","","","","","","",""
"","response","","html-keyboard-response","299","441733","0.0-1.0-401.0-0.0","0","0","44865","","769","","","68","44","","","1","44","training","adjacent","DE","4","5","R.jpg","O.jpg","0","1","0","",""
"","feedback","","html-keyboard-response","300","442744","0.0-1.0-402.0-0.0","0","0","44865","","null","","","null","44","","","","","","","","","","","","","","","",""
"","time_out","","html-keyboard-response","301","444753","0.0-1.0-404.0-0.0","0","0","44865","","null","","","null","44","","","","","","","","","","","","","","","",""
"","ITI","","html-keyboard-response","302","445776","0.0-1.0-405.0","0","0","44865","","null","","","null","44","","","","","","","","","","","","","","","NaN",""
"","S1","","html-keyboard-response","303","446031","0.0-1.0-407.0","0","0","44865","","null","","","null","45","","","","","","","","","","","","","","","",""
"","ISI","","html-keyboard-response","304","446535","0.0-1.0-408.0","0","0","44865","","null","","","null","45","NaN","","","","","","","","","","","","","","",""
"","S2","","html-keyboard-response","305","446850","0.0-1.0-409.0","0","0","44865","","null","","","null","45","","NaN","","","","","","","","","","","","","",""
"","response","","html-keyboard-response","306","447780","0.0-1.0-410.0-0.0","0","0","44865","","890","","","75","45","","","1","45","training","adjacent","BA","2","1","N.jpg","P.jpg","1","0","0","",""
"","feedback","","html-keyboard-response","307","448791","0.0-1.0-411.0-0.0","0","0","44865","","null","","","null","45","","","","","","","","","","","","","","","",""
"","time_out","","html-keyboard-response","308","450822","0.0-1.0-413.0-0.0","0","0","44865","","null","","","null","45","","","","","","","","","","","","","","","",""
"","ITI","","html-keyboard-response","309","451830","0.0-1.0-414.0","0","0","44865","","null","","","null","45","","","","","","","","","","","","","","","NaN",""
"","S1","","html-keyboard-response","310","452088","0.0-1.0-416.0","0","0","44865","","null","","","null","46","","","","","","","","","","","","","","","",""
"","ISI","","html-keyboard-response","311","452602","0.0-1.0-417.0","0","0","44865","","null","","","null","46","NaN","","","","","","","","","","","","","","",""
"","S2","","html-keyboard-response","312","452862","0.0-1.0-418.0","0","0","44865","","null","","","null","46","","NaN","","","","","","","","","","","","","",""
"","response","","html-keyboard-response","313","454219","0.0-1.0-419.0-0.0","0","0","44865","","1352","","","68","46","","","1","46","training","adjacent","FG","6","7","L.jpg","Q.jpg","0","1","0","",""
"","feedback","","html-keyboard-response","314","455231","0.0-1.0-420.0-0.0","0","0","44865","","null","","","null","46","","","","","","","","","","","","","","","",""
"","time_out","","html-keyboard-response","315","457239","0.0-1.0-422.0-0.0","0","0","44865","","null","","","null","46","","","","","","","","","","","","","","","",""
"","ITI","","html-keyboard-response","316","458246","0.0-1.0-423.0","0","0","44865","","null","","","null","46","","","","","","","","","","","","","","","NaN",""
"","S1","","html-keyboard-response","317","458519","0.0-1.0-425.0","0","0","44865","","null","","","null","47","","","","","","","","","","","","","","","",""
"","ISI","","html-keyboard-response","318","459031","0.0-1.0-426.0","0","0","44865","","null","","","null","47","NaN","","","","","","","","","","","","","","",""
"","S2","","html-keyboard-response","319","459295","0.0-1.0-427.0","0","0","44865","","null","","","null","47","","NaN","","","","","","","","","","","","","",""
"","response","","html-keyboard-response","320","460712","0.0-1.0-428.0-0.0","0","0","44865","","1413","","","75","47","","","1","47","training","adjacent","AB","1","2","P.jpg","N.jpg","1","1","1","",""
"","feedback","","html-keyboard-response","321","461720","0.0-1.0-429.0-0.0","0","0","44865","","null","","","null","47","","","","","","","","","","","","","","","",""
"","ITI","","html-keyboard-response","322","462728","0.0-1.0-432.0","0","0","44865","","null","","","null","47","","","","","","","","","","","","","","","NaN",""
"","block_over","","html-keyboard-response","323","761911","0.0-1.0-433.0-0.0","0","0","44865","","299176","","","32","47","","","","","","","","","","","","","","","",""
"","S1","","html-keyboard-response","324","762168","0.0-1.0-434.0","0","0","44865","","null","","","null","48","","","","","","","","","","","","","","","",""
"","ISI","","html-keyboard-response","325","762671","0.0-1.0-435.0","0","0","44865","","null","","","null","48","NaN","","","","","","","","","","","","","","",""
"","S2","","html-keyboard-response","326","762928","0.0-1.0-436.0","0","0","44865","","null","","","null","48","","NaN","","","","","","","","","","","","","",""
"","response","","html-keyboard-response","327","763841","0.0-1.0-437.0-0.0","0","0","44865","","910","","","68","48","","","2","48","training","adjacent","CD","3","4","M.jpg","R.jpg","0","1","0","",""
"","feedback","","html-keyboard-response","328","764849","0.0-1.0-438.0-0.0","0","0","44865","","null","","","null","48","","","","","","","","","","","","","","","",""
"","time_out","","html-keyboard-response","329","766857","0.0-1.0-440.0-0.0","0","0","44865","","null","","","null","48","","","","","","","","","","","","","","","",""
"","ITI","","html-keyboard-response","330","767865","0.0-1.0-441.0","0","0","44865","","null","","","null","48","","","","","","","","","","","","","","","NaN",""
"","S1","","html-keyboard-response","331","768120","0.0-1.0-443.0","0","0","44865","","null","","","null","49","","","","","","","","","","","","","","","",""
"","ISI","","html-keyboard-response","332","768625","0.0-1.0-444.0","0","0","44865","","null","","","null","49","NaN","","","","","","","","","","","","","","",""
"","S2","","html-keyboard-response","333","768880","0.0-1.0-445.0","0","0","44865","","null","","","null","49","","NaN","","","","","","","","","","","","","",""
"","response","","html-keyboard-response","334","769631","0.0-1.0-446.0-0.0","0","0","44865","","747","","","75","49","","","2","49","training","adjacent","FG","6","7","L.jpg","Q.jpg","1","1","1","",""
"","feedback","","html-keyboard-response","335","770786","0.0-1.0-447.0-0.0","0","0","44865","","null","","","null","49","","","","","","","","","","","","","","","",""
"","ITI","","html-keyboard-response","336","771792","0.0-1.0-450.0","0","0","44865","","null","","","null","49","","","","","","","","","","","","","","","NaN",""
"","S1","","html-keyboard-response","337","772051","0.0-1.0-452.0","0","0","44865","","null","","","null","50","","","","","","","","","","","","","","","",""
"","ISI","","html-keyboard-response","338","772675","0.0-1.0-453.0","0","0","44865","","null","","","null","50","NaN","","","","","","","","","","","","","","",""
"","S2","","html-keyboard-response","339","772936","0.0-1.0-454.0","0","0","44865","","null","","","null","50","","NaN","","","","","","","","","","","","","",""
"","response","","html-keyboard-response","340","773450","0.0-1.0-455.0-0.0","0","0","44865","","510","","","75","50","","","2","50","training","adjacent","GF","7","6","Q.jpg","L.jpg","1","0","0","",""
"","feedback","","html-keyboard-response","341","774459","0.0-1.0-456.0-0.0","0","0","44865","","null","","","null","50","","","","","","","","","","","","","","","",""
"","time_out","","html-keyboard-response","342","776465","0.0-1.0-458.0-0.0","0","0","44865","","null","","","null","50","","","","","","","","","","","","","","","",""
"","ITI","","html-keyboard-response","343","777472","0.0-1.0-459.0","0","0","44865","","null","","","null","50","","","","","","","","","","","","","","","NaN",""
"","S1","","html-keyboard-response","344","777728","0.0-1.0-461.0","0","0","44865","","null","","","null","51","","","","","","","","","","","","","","","",""
"","ISI","","html-keyboard-response","345","778231","0.0-1.0-462.0","0","0","44865","","null","","","null","51","NaN","","","","","","","","","","","","","","",""
"","S2","","html-keyboard-response","346","778488","0.0-1.0-463.0","0","0","44865","","null","","","null","51","","NaN","","","","","","","","","","","","","",""
"","response","","html-keyboard-response","347","779563","0.0-1.0-464.0-0.0","0","0","44865","","1072","","","68","51","","","2","51","training","adjacent","FE","6","5","L.jpg","O.jpg","0","0","1","",""
"","feedback","","html-keyboard-response","348","780569","0.0-1.0-465.0-0.0","0","0","44865","","null","","","null","51","","","","","","","","","","","","","","","",""
"","ITI","","html-keyboard-response","349","781576","0.0-1.0-468.0","0","0","44865","","null","","","null","51","","","","","","","","","","","","","","","NaN",""
"","S1","","html-keyboard-response","350","781832","0.0-1.0-470.0","0","0","44865","","null","","","null","52","","","","","","","","","","","","","","","",""
"","ISI","","html-keyboard-response","351","782336","0.0-1.0-471.0","0","0","44865","","null","","","null","52","NaN","","","","","","","","","","","","","","",""
"","S2","","html-keyboard-response","352","782653","0.0-1.0-472.0","0","0","44865","","null","","","null","52","","NaN","","","","","","","","","","","","","",""
"","response","","html-keyboard-response","353","783260","0.0-1.0-473.0-0.0","0","0","44865","","603","","","75","52","","","2","52","training","adjacent","FG","6","7","L.jpg","Q.jpg","1","1","1","",""
"","feedback","","html-keyboard-response","354","784265","0.0-1.0-474.0-0.0","0","0","44865","","null","","","null","52","","","","","","","","","","","","","","","",""
"","ITI","","html-keyboard-response","355","785271","0.0-1.0-477.0","0","0","44865","","null","","","null","52","","","","","","","","","","","","","","","NaN",""
"","S1","","html-keyboard-response","356","785529","0.0-1.0-479.0","0","0","44865","","null","","","null","53","","","","","","","","","","","","","","","",""
"","ISI","","html-keyboard-response","357","786035","0.0-1.0-480.0","0","0","44865","","null","","","null","53","NaN","","","","","","","","","","","","","","",""
"","S2","","html-keyboard-response","358","786296","0.0-1.0-481.0","0","0","44865","","null","","","null","53","","NaN","","","","","","","","","","","","","",""
"","response","","html-keyboard-response","359","787032","0.0-1.0-482.0-0.0","0","0","44865","","731","","","68","53","","","2","53","training","adjacent","BA","2","1","N.jpg","P.jpg","0","0","1","",""
"","feedback","","html-keyboard-response","360","788045","0.0-1.0-483.0-0.0","0","0","44865","","null","","","null","53","","","","","","","","","","","","","","","",""
"","ITI","","html-keyboard-response","361","789058","0.0-1.0-486.0","0","0","44865","","null","","","null","53","","","","","","","","","","","","","","","NaN",""
"","S1","","html-keyboard-response","362","789320","0.0-1.0-488.0","0","0","44865","","null","","","null","54","","","","","","","","","","","","","","","",""
"","ISI","","html-keyboard-response","363","789823","0.0-1.0-489.0","0","0","44865","","null","","","null","54","NaN","","","","","","","","","","","","","","",""
"","S2","","html-keyboard-response","364","790079","0.0-1.0-490.0","0","0","44865","","null","","","null","54","","NaN","","","","","","","","","","","","","",""
"","response","","html-keyboard-response","365","790990","0.0-1.0-491.0-0.0","0","0","44865","","904","","","75","54","","","2","54","training","adjacent","FE","6","5","L.jpg","O.jpg","1","0","0","",""
"","feedback","","html-keyboard-response","366","791998","0.0-1.0-492.0-0.0","0","0","44865","","null","","","null","54","","","","","","","","","","","","","","","",""
"","time_out","","html-keyboard-response","367","794008","0.0-1.0-494.0-0.0","0","0","44865","","null","","","null","54","","","","","","","","","","","","","","","",""
"","ITI","","html-keyboard-response","368","795017","0.0-1.0-495.0","0","0","44865","","null","","","null","54","","","","","","","","","","","","","","","NaN",""
"","S1","","html-keyboard-response","369","795271","0.0-1.0-497.0","0","0","44865","","null","","","null","55","","","","","","","","","","","","","","","",""
"","ISI","","html-keyboard-response","370","795777","0.0-1.0-498.0","0","0","44865","","null","","","null","55","NaN","","","","","","","","","","","","","","",""
"","S2","","html-keyboard-response","371","796032","0.0-1.0-499.0","0","0","44865","","null","","","null","55","","NaN","","","","","","","","","","","","","",""
"","response","","html-keyboard-response","372","796741","0.0-1.0-500.0-0.0","0","0","44865","","698","","","75","55","","","2","55","training","adjacent","AB","1","2","P.jpg","N.jpg","1","1","1","",""
"","feedback","","html-keyboard-response","373","797751","0.0-1.0-501.0-0.0","0","0","44865","","null","","","null","55","","","","","","","","","","","","","","","",""
"","ITI","","html-keyboard-response","374","798760","0.0-1.0-504.0","0","0","44865","","null","","","null","55","","","","","","","","","","","","","","","NaN",""
"","S1","","html-keyboard-response","375","799015","0.0-1.0-506.0","0","0","44865","","null","","","null","56","","","","","","","","","","","","","","","",""
"","ISI","","html-keyboard-response","376","799540","0.0-1.0-507.0","0","0","44865","","null","","","null","56","NaN","","","","","","","","","","","","","","",""
"","S2","","html-keyboard-response","377","799801","0.0-1.0-508.0","0","0","44865","","null","","","null","56","","NaN","","","","","","","","","","","","","",""
"","response","","html-keyboard-response","378","800470","0.0-1.0-509.0-0.0","0","0","44865","","665","","","75","56","","","2","56","training","adjacent","CD","3","4","M.jpg","R.jpg","1","1","1","",""
"","feedback","","html-keyboard-response","379","801481","0.0-1.0-510.0-0.0","0","0","44865","","null","","","null","56","","","","","","","","","","","","","","","",""
"","ITI","","html-keyboard-response","380","802536","0.0-1.0-513.0","0","0","44865","","null","","","null","56","","","","","","","","","","","","","","","NaN",""
"","S1","","html-keyboard-response","381","802792","0.0-1.0-515.0","0","0","44865","","null","","","null","57","","","","","","","","","","","","","","","",""
"","ISI","","html-keyboard-response","382","803296","0.0-1.0-516.0","0","0","44865","","null","","","null","57","NaN","","","","","","","","","","","","","","",""
"","S2","","html-keyboard-response","383","803551","0.0-1.0-517.0","0","0","44865","","null","","","null","57","","NaN","","","","","","","","","","","","","",""
"","response","","html-keyboard-response","384","804172","0.0-1.0-518.0-0.0","0","0","44865","","618","","","75","57","","","2","57","training","adjacent","FG","6","7","L.jpg","Q.jpg","1","1","1","",""
"","feedback","","html-keyboard-response","385","805176","0.0-1.0-519.0-0.0","0","0","44865","","null","","","null","57","","","","","","","","","","","","","","","",""
"","ITI","","html-keyboard-response","386","806183","0.0-1.0-522.0","0","0","44865","","null","","","null","57","","","","","","","","","","","","","","","NaN",""
"","S1","","html-keyboard-response","387","806500","0.0-1.0-524.0","0","0","44865","","null","","","null","58","","","","","","","","","","","","","","","",""
"","ISI","","html-keyboard-response","388","807007","0.0-1.0-525.0","0","0","44865","","null","","","null","58","NaN","","","","","","","","","","","","","","",""
"","S2","","html-keyboard-response","389","807263","0.0-1.0-526.0","0","0","44865","","null","","","null","58","","NaN","","","","","","","","","","","","","",""
"","response","","html-keyboard-response","390","807760","0.0-1.0-527.0-0.0","0","0","44865","","493","","","75","58","","","2","58","training","adjacent","ED","5","4","O.jpg","R.jpg","1","0","0","",""
"","feedback","","html-keyboard-response","391","808768","0.0-1.0-528.0-0.0","0","0","44865","","null","","","null","58","","","","","","","","","","","","","","","",""
"","time_out","","html-keyboard-response","392","810777","0.0-1.0-530.0-0.0","0","0","44865","","null","","","null","58","","","","","","","","","","","","","","","",""
"","ITI","","html-keyboard-response","393","811784","0.0-1.0-531.0","0","0","44865","","null","","","null","58","","","","","","","","","","","","","","","NaN",""
"","S1","","html-keyboard-response","394","812046","0.0-1.0-533.0","0","0","44865","","null","","","null","59","","","","","","","","","","","","","","","",""
"","ISI","","html-keyboard-response","395","812557","0.0-1.0-534.0","0","0","44865","","null","","","null","59","NaN","","","","","","","","","","","","","","",""
"","S2","","html-keyboard-response","396","812821","0.0-1.0-535.0","0","0","44865","","null","","","null","59","","NaN","","","","","","","","","","","","","",""
"","response","","html-keyboard-response","397","812972","0.0-1.0-536.0-0.0","0","0","44865","","146","","","68","59","","","2","59","training","adjacent","EF","5","6","O.jpg","L.jpg","0","1","0","",""
"","feedback","","html-keyboard-response","398","813985","0.0-1.0-537.0-0.0","0","0","44865","","null","","","null","59","","","","","","","","","","","","","","","",""
"","time_out","","html-keyboard-response","399","815995","0.0-1.0-539.0-0.0","0","0","44865","","null","","","null","59","","","","","","","","","","","","","","","",""
"","ITI","","html-keyboard-response","400","817005","0.0-1.0-540.0","0","0","44865","","null","","","null","59","","","","","","","","","","","","","","","NaN",""
"","S1","","html-keyboard-response","401","817264","0.0-1.0-542.0","0","0","44865","","null","","","null","60","","","","","","","","","","","","","","","",""
"","ISI","","html-keyboard-response","402","817776","0.0-1.0-543.0","0","0","44865","","null","","","null","60","NaN","","","","","","","","","","","","","","",""
"","S2","","html-keyboard-response","403","818034","0.0-1.0-544.0","0","0","44865","","null","","","null","60","","NaN","","","","","","","","","","","","","",""
"","response","","html-keyboard-response","404","818446","0.0-1.0-545.0-0.0","0","0","44865","","407","","","75","60","","","2","60","training","adjacent","CD","3","4","M.jpg","R.jpg","1","1","1","",""
"","feedback","","html-keyboard-response","405","819457","0.0-1.0-546.0-0.0","0","0","44865","","null","","","null","60","","","","","","","","","","","","","","","",""
"","ITI","","html-keyboard-response","406","820466","0.0-1.0-549.0","0","0","44865","","null","","","null","60","","","","","","","","","","","","","","","NaN",""
"","S1","","html-keyboard-response","407","820729","0.0-1.0-551.0","0","0","44865","","null","","","null","61","","","","","","","","","","","","","","","",""
"","ISI","","html-keyboard-response","408","821240","0.0-1.0-552.0","0","0","44865","","null","","","null","61","NaN","","","","","","","","","","","","","","",""
"","S2","","html-keyboard-response","409","821495","0.0-1.0-553.0","0","0","44865","","null","","","null","61","","NaN","","","","","","","","","","","","","",""
"","response","","html-keyboard-response","410","822201","0.0-1.0-554.0-0.0","0","0","44865","","702","","","75","61","","","2","61","training","adjacent","ED","5","4","O.jpg","R.jpg","1","0","0","",""
"","feedback","","html-keyboard-response","411","823208","0.0-1.0-555.0-0.0","0","0","44865","","null","","","null","61","","","","","","","","","","","","","","","",""
"","time_out","","html-keyboard-response","412","825215","0.0-1.0-557.0-0.0","0","0","44865","","null","","","null","61","","","","","","","","","","","","","","","",""
"","ITI","","html-keyboard-response","413","826224","0.0-1.0-558.0","0","0","44865","","null","","","null","61","","","","","","","","","","","","","","","NaN",""
"","S1","","html-keyboard-response","414","826480","0.0-1.0-560.0","0","0","44865","","null","","","null","62","","","","","","","","","","","","","","","",""
"","ISI","","html-keyboard-response","415","826985","0.0-1.0-561.0","0","0","44865","","null","","","null","62","NaN","","","","","","","","","","","","","","",""
"","S2","","html-keyboard-response","416","827239","0.0-1.0-562.0","0","0","44865","","null","","","null","62","","NaN","","","","","","","","","","","","","",""
"","response","","html-keyboard-response","417","827481","0.0-1.0-563.0-0.0","0","0","44865","","237","","","68","62","","","2","62","training","adjacent","CB","3","2","M.jpg","N.jpg","0","0","1","",""
"","feedback","","html-keyboard-response","418","828490","0.0-1.0-564.0-0.0","0","0","44865","","null","","","null","62","","","","","","","","","","","","","","","",""
"","ITI","","html-keyboard-response","419","829496","0.0-1.0-567.0","0","0","44865","","null","","","null","62","","","","","","","","","","","","","","","NaN",""
"","S1","","html-keyboard-response","420","829752","0.0-1.0-569.0","0","0","44865","","null","","","null","63","","","","","","","","","","","","","","","",""
"","ISI","","html-keyboard-response","421","830256","0.0-1.0-570.0","0","0","44865","","null","","","null","63","NaN","","","","","","","","","","","","","","",""
"","S2","","html-keyboard-response","422","830552","0.0-1.0-571.0","0","0","44865","","null","","","null","63","","NaN","","","","","","","","","","","","","",""
"","response","","html-keyboard-response","423","830832","0.0-1.0-572.0-0.0","0","0","44865","","276","","","68","63","","","2","63","training","adjacent","DC","4","3","R.jpg","M.jpg","0","0","1","",""
"","feedback","","html-keyboard-response","424","831839","0.0-1.0-573.0-0.0","0","0","44865","","null","","","null","63","","","","","","","","","","","","","","","",""
"","ITI","","html-keyboard-response","425","832848","0.0-1.0-576.0","0","0","44865","","null","","","null","63","","","","","","","","","","","","","","","NaN",""
"","S1","","html-keyboard-response","426","833104","0.0-1.0-578.0","0","0","44865","","null","","","null","64","","","","","","","","","","","","","","","",""
"","ISI","","html-keyboard-response","427","833609","0.0-1.0-579.0","0","0","44865","","null","","","null","64","NaN","","","","","","","","","","","","","","",""
"","S2","","html-keyboard-response","428","833865","0.0-1.0-580.0","0","0","44865","","null","","","null","64","","NaN","","","","","","","","","","","","","",""
"","response","","html-keyboard-response","429","834187","0.0-1.0-581.0-0.0","0","0","44865","","316","","","68","64","","","2","64","training","adjacent","AB","1","2","P.jpg","N.jpg","0","1","0","",""
"","feedback","","html-keyboard-response","430","835194","0.0-1.0-582.0-0.0","0","0","44865","","null","","","null","64","","","","","","","","","","","","","","","",""
"","time_out","","html-keyboard-response","431","837202","0.0-1.0-584.0-0.0","0","0","44865","","null","","","null","64","","","","","","","","","","","","","","","",""
"","ITI","","html-keyboard-response","432","838209","0.0-1.0-585.0","0","0","44865","","null","","","null","64","","","","","","","","","","","","","","","NaN",""
"","S1","","html-keyboard-response","433","838463","0.0-1.0-587.0","0","0","44865","","null","","","null","65","","","","","","","","","","","","","","","",""
"","ISI","","html-keyboard-response","434","838969","0.0-1.0-588.0","0","0","44865","","null","","","null","65","NaN","","","","","","","","","","","","","","",""
"","S2","","html-keyboard-response","435","839224","0.0-1.0-589.0","0","0","44865","","null","","","null","65","","NaN","","","","","","","","","","","","","",""
"","response","","html-keyboard-response","436","839524","0.0-1.0-590.0-0.0","0","0","44865","","294","","","75","65","","","2","65","training","adjacent","ED","5","4","O.jpg","R.jpg","1","0","0","",""
"","feedback","","html-keyboard-response","437","840540","0.0-1.0-591.0-0.0","0","0","44865","","null","","","null","65","","","","","","","","","","","","","","","",""
"","time_out","","html-keyboard-response","438","842659","0.0-1.0-593.0-0.0","0","0","44865","","null","","","null","65","","","","","","","","","","","","","","","",""
"","ITI","","html-keyboard-response","439","843729","0.0-1.0-594.0","0","0","44865","","null","","","null","65","","","","","","","","","","","","","","","NaN",""
"","S1","","html-keyboard-response","440","843984","0.0-1.0-596.0","0","0","44865","","null","","","null","66","","","","","","","","","","","","","","","",""
"","ISI","","html-keyboard-response","441","844491","0.0-1.0-597.0","0","0","44865","","null","","","null","66","NaN","","","","","","","","","","","","","","",""
"","S2","","html-keyboard-response","442","844803","0.0-1.0-598.0","0","0","44865","","null","","","null","66","","NaN","","","","","","","","","","","","","",""
"","response","","html-keyboard-response","443","845008","0.0-1.0-599.0-0.0","0","0","44865","","200","","","75","66","","","2","66","training","adjacent","BC","2","3","N.jpg","M.jpg","1","1","1","",""
"","feedback","","html-keyboard-response","444","846017","0.0-1.0-600.0-0.0","0","0","44865","","null","","","null","66","","","","","","","","","","","","","","","",""
"","ITI","","html-keyboard-response","445","847025","0.0-1.0-603.0","0","0","44865","","null","","","null","66","","","","","","","","","","","","","","","NaN",""
"","S1","","html-keyboard-response","446","847279","0.0-1.0-605.0","0","0","44865","","null","","","null","67","","","","","","","","","","","","","","","",""
"","ISI","","html-keyboard-response","447","847786","0.0-1.0-606.0","0","0","44865","","null","","","null","67","NaN","","","","","","","","","","","","","","",""
"","S2","","html-keyboard-response","448","848048","0.0-1.0-607.0","0","0","44865","","null","","","null","67","","NaN","","","","","","","","","","","","","",""
"","response","","html-keyboard-response","449","848500","0.0-1.0-608.0-0.0","0","0","44865","","448","","","75","67","","","2","67","training","adjacent","CB","3","2","M.jpg","N.jpg","1","0","0","",""
"","feedback","","html-keyboard-response","450","849513","0.0-1.0-609.0-0.0","0","0","44865","","null","","","null","67","","","","","","","","","","","","","","","",""
"","time_out","","html-keyboard-response","451","851522","0.0-1.0-611.0-0.0","0","0","44865","","null","","","null","67","","","","","","","","","","","","","","","",""
"","ITI","","html-keyboard-response","452","852534","0.0-1.0-612.0","0","0","44865","","null","","","null","67","","","","","","","","","","","","","","","NaN",""
"","S1","","html-keyboard-response","453","852793","0.0-1.0-614.0","0","0","44865","","null","","","null","68","","","","","","","","","","","","","","","",""
"","ISI","","html-keyboard-response","454","853295","0.0-1.0-615.0","0","0","44865","","null","","","null","68","NaN","","","","","","","","","","","","","","",""
"","S2","","html-keyboard-response","455","853552","0.0-1.0-616.0","0","0","44865","","null","","","null","68","","NaN","","","","","","","","","","","","","",""
"","response","","html-keyboard-response","456","854179","0.0-1.0-617.0-0.0","0","0","44865","","621","","","68","68","","","2","68","training","adjacent","EF","5","6","O.jpg","L.jpg","0","1","0","",""
"","feedback","","html-keyboard-response","457","855184","0.0-1.0-618.0-0.0","0","0","44865","","null","","","null","68","","","","","","","","","","","","","","","",""
"","time_out","","html-keyboard-response","458","857192","0.0-1.0-620.0-0.0","0","0","44865","","null","","","null","68","","","","","","","","","","","","","","","",""
"","ITI","","html-keyboard-response","459","858200","0.0-1.0-621.0","0","0","44865","","null","","","null","68","","","","","","","","","","","","","","","NaN",""
"","S1","","html-keyboard-response","460","858454","0.0-1.0-623.0","0","0","44865","","null","","","null","69","","","","","","","","","","","","","","","",""
"","ISI","","html-keyboard-response","461","858961","0.0-1.0-624.0","0","0","44865","","null","","","null","69","NaN","","","","","","","","","","","","","","",""
"","S2","","html-keyboard-response","462","859272","0.0-1.0-625.0","0","0","44865","","null","","","null","69","","NaN","","","","","","","","","","","","","",""
"","response","","html-keyboard-response","463","860304","0.0-1.0-626.0-0.0","0","0","44865","","1028","","","75","69","","","2","69","training","adjacent","FG","6","7","L.jpg","Q.jpg","1","1","1","",""
"","feedback","","html-keyboard-response","464","861312","0.0-1.0-627.0-0.0","0","0","44865","","null","","","null","69","","","","","","","","","","","","","","","",""
"","ITI","","html-keyboard-response","465","862323","0.0-1.0-630.0","0","0","44865","","null","","","null","69","","","","","","","","","","","","","","","NaN",""
"","S1","","html-keyboard-response","466","862583","0.0-1.0-632.0","0","0","44865","","null","","","null","70","","","","","","","","","","","","","","","",""
"","ISI","","html-keyboard-response","467","863087","0.0-1.0-633.0","0","0","44865","","null","","","null","70","NaN","","","","","","","","","","","","","","",""
"","S2","","html-keyboard-response","468","863342","0.0-1.0-634.0","0","0","44865","","null","","","null","70","","NaN","","","","","","","","","","","","","",""
"","response","","html-keyboard-response","469","864350","0.0-1.0-635.0-0.0","0","0","44865","","1004","","","75","70","","","2","70","training","adjacent","DC","4","3","R.jpg","M.jpg","1","0","0","",""
"","feedback","","html-keyboard-response","470","865360","0.0-1.0-636.0-0.0","0","0","44865","","null","","","null","70","","","","","","","","","","","","","","","",""
"","time_out","","html-keyboard-response","471","867367","0.0-1.0-638.0-0.0","0","0","44865","","null","","","null","70","","","","","","","","","","","","","","","",""
"","ITI","","html-keyboard-response","472","868395","0.0-1.0-639.0","0","0","44865","","null","","","null","70","","","","","","","","","","","","","","","NaN",""
"","S1","","html-keyboard-response","473","868671","0.0-1.0-641.0","0","0","44865","","null","","","null","71","","","","","","","","","","","","","","","",""
"","ISI","","html-keyboard-response","474","869175","0.0-1.0-642.0","0","0","44865","","null","","","null","71","NaN","","","","","","","","","","","","","","",""
"","S2","","html-keyboard-response","475","869438","0.0-1.0-643.0","0","0","44865","","null","","","null","71","","NaN","","","","","","","","","","","","","",""
"","response","","html-keyboard-response","476","869704","0.0-1.0-644.0-0.0","0","0","44865","","261","","","75","71","","","2","71","training","adjacent","CB","3","2","M.jpg","N.jpg","1","0","0","",""
"","feedback","","html-keyboard-response","477","870712","0.0-1.0-645.0-0.0","0","0","44865","","null","","","null","71","","","","","","","","","","","","","","","",""
"","time_out","","html-keyboard-response","478","872722","0.0-1.0-647.0-0.0","0","0","44865","","null","","","null","71","","","","","","","","","","","","","","","",""
"","ITI","","html-keyboard-response","479","873728","0.0-1.0-648.0","0","0","44865","","null","","","null","71","","","","","","","","","","","","","","","NaN",""
"","S1","","html-keyboard-response","480","873983","0.0-1.0-650.0","0","0","44865","","null","","","null","72","","","","","","","","","","","","","","","",""
"","ISI","","html-keyboard-response","481","874489","0.0-1.0-651.0","0","0","44865","","null","","","null","72","NaN","","","","","","","","","","","","","","",""
"","S2","","html-keyboard-response","482","874744","0.0-1.0-652.0","0","0","44865","","null","","","null","72","","NaN","","","","","","","","","","","","","",""
"","response","","html-keyboard-response","483","875803","0.0-1.0-653.0-0.0","0","0","44865","","1055","","","68","72","","","2","72","training","adjacent","DE","4","5","R.jpg","O.jpg","0","1","0","",""
"","feedback","","html-keyboard-response","484","876815","0.0-1.0-654.0-0.0","0","0","44865","","null","","","null","72","","","","","","","","","","","","","","","",""
"","time_out","","html-keyboard-response","485","879126","0.0-1.0-656.0-0.0","0","0","44865","","null","","","null","72","","","","","","","","","","","","","","","",""
"","ITI","","html-keyboard-response","486","881037","0.0-1.0-657.0","0","0","44865","","null","","","null","72","","","","","","","","","","","","","","","NaN",""
"","S1","","html-keyboard-response","487","881724","0.0-1.0-659.0","0","0","44865","","null","","","null","73","","","","","","","","","","","","","","","",""
"","ISI","","html-keyboard-response","488","882233","0.0-1.0-660.0","0","0","44865","","null","","","null","73","NaN","","","","","","","","","","","","","","",""
"","S2","","html-keyboard-response","489","882322","0.0-1.0-661.0","0","0","44865","","73","","","75","73","","k","2","73","training","adjacent","DC","4","3","R.jpg","M.jpg","1","0","0","",""
"","feedback","","html-keyboard-response","490","883327","0.0-1.0-663.0-0.0","0","0","44865","","null","","","null","73","","","","","","","","","","","","","","","",""
"","time_out","","html-keyboard-response","491","885341","0.0-1.0-665.0-0.0","0","0","44865","","null","","","null","73","","","","","","","","","","","","","","","",""
"","ITI","","html-keyboard-response","492","886351","0.0-1.0-666.0","0","0","44865","","null","","","null","73","","","","","","","","","","","","","","","NaN",""
"","S1","","html-keyboard-response","493","886616","0.0-1.0-668.0","0","0","44865","","null","","","null","74","","","","","","","","","","","","","","","",""
"","ISI","","html-keyboard-response","494","887127","0.0-1.0-669.0","0","0","44865","","null","","","null","74","NaN","","","","","","","","","","","","","","",""
"","S2","","html-keyboard-response","495","887382","0.0-1.0-670.0","0","0","44865","","null","","","null","74","","NaN","","","","","","","","","","","","","",""
"","response","","html-keyboard-response","496","888076","0.0-1.0-671.0-0.0","0","0","44865","","690","","","68","74","","","2","74","training","adjacent","FE","6","5","L.jpg","O.jpg","0","0","1","",""
"","feedback","","html-keyboard-response","497","889088","0.0-1.0-672.0-0.0","0","0","44865","","null","","","null","74","","","","","","","","","","","","","","","",""
"","ITI","","html-keyboard-response","498","890095","0.0-1.0-675.0","0","0","44865","","null","","","null","74","","","","","","","","","","","","","","","NaN",""
"","S1","","html-keyboard-response","499","890351","0.0-1.0-677.0","0","0","44865","","null","","","null","75","","","","","","","","","","","","","","","",""
"","ISI","","html-keyboard-response","500","890855","0.0-1.0-678.0","0","0","44865","","null","","","null","75","NaN","","","","","","","","","","","","","","",""
"","S2","","html-keyboard-response","501","891116","0.0-1.0-679.0","0","0","44865","","null","","","null","75","","NaN","","","","","","","","","","","","","",""
"","response","","html-keyboard-response","502","891797","0.0-1.0-680.0-0.0","0","0","44865","","675","","","68","75","","","2","75","training","adjacent","DE","4","5","R.jpg","O.jpg","0","1","0","",""
"","feedback","","html-keyboard-response","503","892806","0.0-1.0-681.0-0.0","0","0","44865","","null","","","null","75","","","","","","","","","","","","","","","",""
"","time_out","","html-keyboard-response","504","894824","0.0-1.0-683.0-0.0","0","0","44865","","null","","","null","75","","","","","","","","","","","","","","","",""
"","ITI","","html-keyboard-response","505","895832","0.0-1.0-684.0","0","0","44865","","null","","","null","75","","","","","","","","","","","","","","","NaN",""
"","S1","","html-keyboard-response","506","896096","0.0-1.0-686.0","0","0","44865","","null","","","null","76","","","","","","","","","","","","","","","",""
"","ISI","","html-keyboard-response","507","896607","0.0-1.0-687.0","0","0","44865","","null","","","null","76","NaN","","","","","","","","","","","","","","",""
"","S2","","html-keyboard-response","508","896862","0.0-1.0-688.0","0","0","44865","","null","","","null","76","","NaN","","","","","","","","","","","","","",""
"","response","","html-keyboard-response","509","897396","0.0-1.0-689.0-0.0","0","0","44865","","524","","","75","76","","","2","76","training","adjacent","BA","2","1","N.jpg","P.jpg","1","0","0","",""
"","feedback","","html-keyboard-response","510","898407","0.0-1.0-690.0-0.0","0","0","44865","","null","","","null","76","","","","","","","","","","","","","","","",""
"","time_out","","html-keyboard-response","511","900419","0.0-1.0-692.0-0.0","0","0","44865","","null","","","null","76","","","","","","","","","","","","","","","",""
"","ITI","","html-keyboard-response","512","901439","0.0-1.0-693.0","0","0","44865","","null","","","null","76","","","","","","","","","","","","","","","NaN",""
"","S1","","html-keyboard-response","513","901694","0.0-1.0-695.0","0","0","44865","","null","","","null","77","","","","","","","","","","","","","","","",""
"","ISI","","html-keyboard-response","514","902199","0.0-1.0-696.0","0","0","44865","","null","","","null","77","NaN","","","","","","","","","","","","","","",""
"","S2","","html-keyboard-response","515","902455","0.0-1.0-697.0","0","0","44865","","null","","","null","77","","NaN","","","","","","","","","","","","","",""
"","response","","html-keyboard-response","516","903274","0.0-1.0-698.0-0.0","0","0","44865","","813","","","68","77","","","2","77","training","adjacent","BC","2","3","N.jpg","M.jpg","0","1","0","",""
"","feedback","","html-keyboard-response","517","904280","0.0-1.0-699.0-0.0","0","0","44865","","null","","","null","77","","","","","","","","","","","","","","","",""
"","time_out","","html-keyboard-response","518","906287","0.0-1.0-701.0-0.0","0","0","44865","","null","","","null","77","","","","","","","","","","","","","","","",""
"","ITI","","html-keyboard-response","519","907297","0.0-1.0-702.0","0","0","44865","","null","","","null","77","","","","","","","","","","","","","","","NaN",""
"","S1","","html-keyboard-response","520","907563","0.0-1.0-704.0","0","0","44865","","null","","","null","78","","","","","","","","","","","","","","","",""
"","ISI","","html-keyboard-response","521","908070","0.0-1.0-705.0","0","0","44865","","null","","","null","78","NaN","","","","","","","","","","","","","","",""
"","S2","","html-keyboard-response","522","908327","0.0-1.0-706.0","0","0","44865","","null","","","null","78","","NaN","","","","","","","","","","","","","",""
"","response","","html-keyboard-response","523","908990","0.0-1.0-707.0-0.0","0","0","44865","","659","","","75","78","","","2","78","training","adjacent","GF","7","6","Q.jpg","L.jpg","1","0","0","",""
"","feedback","","html-keyboard-response","524","910000","0.0-1.0-708.0-0.0","0","0","44865","","null","","","null","78","","","","","","","","","","","","","","","",""
"","time_out","","html-keyboard-response","525","912008","0.0-1.0-710.0-0.0","0","0","44865","","null","","","null","78","","","","","","","","","","","","","","","",""
"","ITI","","html-keyboard-response","526","913016","0.0-1.0-711.0","0","0","44865","","null","","","null","78","","","","","","","","","","","","","","","NaN",""
"","S1","","html-keyboard-response","527","913273","0.0-1.0-713.0","0","0","44865","","null","","","null","79","","","","","","","","","","","","","","","",""
"","ISI","","html-keyboard-response","528","913783","0.0-1.0-714.0","0","0","44865","","null","","","null","79","NaN","","","","","","","","","","","","","","",""
"","S2","","html-keyboard-response","529","914039","0.0-1.0-715.0","0","0","44865","","null","","","null","79","","NaN","","","","","","","","","","","","","",""
"","response","","html-keyboard-response","530","915054","0.0-1.0-716.0-0.0","0","0","44865","","1011","","","68","79","","","2","79","training","adjacent","GF","7","6","Q.jpg","L.jpg","0","0","1","",""
"","feedback","","html-keyboard-response","531","916063","0.0-1.0-717.0-0.0","0","0","44865","","null","","","null","79","","","","","","","","","","","","","","","",""
"","ITI","","html-keyboard-response","532","917071","0.0-1.0-720.0","0","0","44865","","null","","","null","79","","","","","","","","","","","","","","","NaN",""
"","S1","","html-keyboard-response","533","917328","0.0-1.0-722.0","0","0","44865","","null","","","null","80","","","","","","","","","","","","","","","",""
"","ISI","","html-keyboard-response","534","917840","0.0-1.0-723.0","0","0","44865","","null","","","null","80","NaN","","","","","","","","","","","","","","",""
"","S2","","html-keyboard-response","535","918096","0.0-1.0-724.0","0","0","44865","","null","","","null","80","","NaN","","","","","","","","","","","","","",""
"","response","","html-keyboard-response","536","918720","0.0-1.0-725.0-0.0","0","0","44865","","619","","","68","80","","","2","80","training","adjacent","DE","4","5","R.jpg","O.jpg","0","1","0","",""
"","feedback","","html-keyboard-response","537","919727","0.0-1.0-726.0-0.0","0","0","44865","","null","","","null","80","","","","","","","","","","","","","","","",""
"","time_out","","html-keyboard-response","538","921737","0.0-1.0-728.0-0.0","0","0","44865","","null","","","null","80","","","","","","","","","","","","","","","",""
"","ITI","","html-keyboard-response","539","922744","0.0-1.0-729.0","0","0","44865","","null","","","null","80","","","","","","","","","","","","","","","NaN",""
"","S1","","html-keyboard-response","540","923008","0.0-1.0-731.0","0","0","44865","","null","","","null","81","","","","","","","","","","","","","","","",""
"","ISI","","html-keyboard-response","541","923516","0.0-1.0-732.0","0","0","44865","","null","","","null","81","NaN","","","","","","","","","","","","","","",""
"","S2","","html-keyboard-response","542","923775","0.0-1.0-733.0","0","0","44865","","null","","","null","81","","NaN","","","","","","","","","","","","","",""
"","response","","html-keyboard-response","543","924333","0.0-1.0-734.0-0.0","0","0","44865","","551","","","68","81","","","2","81","training","adjacent","BA","2","1","N.jpg","P.jpg","0","0","1","",""
"","feedback","","html-keyboard-response","544","925349","0.0-1.0-735.0-0.0","0","0","44865","","null","","","null","81","","","","","","","","","","","","","","","",""
"","ITI","","html-keyboard-response","545","926360","0.0-1.0-738.0","0","0","44865","","null","","","null","81","","","","","","","","","","","","","","","NaN",""
"","S1","","html-keyboard-response","546","926615","0.0-1.0-740.0","0","0","44865","","null","","","null","82","","","","","","","","","","","","","","","",""
"","ISI","","html-keyboard-response","547","927119","0.0-1.0-741.0","0","0","44865","","null","","","null","82","NaN","","","","","","","","","","","","","","",""
"","S2","","html-keyboard-response","548","927375","0.0-1.0-742.0","0","0","44865","","null","","","null","82","","NaN","","","","","","","","","","","","","",""
"","response","","html-keyboard-response","549","928197","0.0-1.0-743.0-0.0","0","0","44865","","816","","","75","82","","","2","82","training","adjacent","FE","6","5","L.jpg","O.jpg","1","0","0","",""
"","feedback","","html-keyboard-response","550","929206","0.0-1.0-744.0-0.0","0","0","44865","","null","","","null","82","","","","","","","","","","","","","","","",""
"","time_out","","html-keyboard-response","551","931216","0.0-1.0-746.0-0.0","0","0","44865","","null","","","null","82","","","","","","","","","","","","","","","",""
"","ITI","","html-keyboard-response","552","932224","0.0-1.0-747.0","0","0","44865","","null","","","null","82","","","","","","","","","","","","","","","NaN",""
"","S1","","html-keyboard-response","553","932478","0.0-1.0-749.0","0","0","44865","","null","","","null","83","","","","","","","","","","","","","","","",""
"","ISI","","html-keyboard-response","554","932983","0.0-1.0-750.0","0","0","44865","","null","","","null","83","NaN","","","","","","","","","","","","","","",""
"","S2","","html-keyboard-response","555","933239","0.0-1.0-751.0","0","0","44865","","null","","","null","83","","NaN","","","","","","","","","","","","","",""
"","response","","html-keyboard-response","556","933799","0.0-1.0-752.0-0.0","0","0","44865","","556","","","68","83","","","2","83","training","adjacent","BA","2","1","N.jpg","P.jpg","0","0","1","",""
"","feedback","","html-keyboard-response","557","934807","0.0-1.0-753.0-0.0","0","0","44865","","null","","","null","83","","","","","","","","","","","","","","","",""
"","ITI","","html-keyboard-response","558","935815","0.0-1.0-756.0","0","0","44865","","null","","","null","83","","","","","","","","","","","","","","","NaN",""
"","S1","","html-keyboard-response","559","936070","0.0-1.0-758.0","0","0","44865","","null","","","null","84","","","","","","","","","","","","","","","",""
"","ISI","","html-keyboard-response","560","936577","0.0-1.0-759.0","0","0","44865","","null","","","null","84","NaN","","","","","","","","","","","","","","",""
"","S2","","html-keyboard-response","561","936839","0.0-1.0-760.0","0","0","44865","","null","","","null","84","","NaN","","","","","","","","","","","","","",""
"","response","","html-keyboard-response","562","937257","0.0-1.0-761.0-0.0","0","0","44865","","414","","","75","84","","","2","84","training","adjacent","AB","1","2","P.jpg","N.jpg","1","1","1","",""
"","feedback","","html-keyboard-response","563","938265","0.0-1.0-762.0-0.0","0","0","44865","","null","","","null","84","","","","","","","","","","","","","","","",""
"","ITI","","html-keyboard-response","564","939271","0.0-1.0-765.0","0","0","44865","","null","","","null","84","","","","","","","","","","","","","","","NaN",""
"","S1","","html-keyboard-response","565","939528","0.0-1.0-767.0","0","0","44865","","null","","","null","85","","","","","","","","","","","","","","","",""
"","ISI","","html-keyboard-response","566","940040","0.0-1.0-768.0","0","0","44865","","null","","","null","85","NaN","","","","","","","","","","","","","","",""
"","S2","","html-keyboard-response","567","940296","0.0-1.0-769.0","0","0","44865","","null","","","null","85","","NaN","","","","","","","","","","","","","",""
"","response","","html-keyboard-response","568","940832","0.0-1.0-770.0-0.0","0","0","44865","","533","","","68","85","","","2","85","training","adjacent","BC","2","3","N.jpg","M.jpg","0","1","0","",""
"","feedback","","html-keyboard-response","569","941840","0.0-1.0-771.0-0.0","0","0","44865","","null","","","null","85","","","","","","","","","","","","","","","",""
"","time_out","","html-keyboard-response","570","943851","0.0-1.0-773.0-0.0","0","0","44865","","null","","","null","85","","","","","","","","","","","","","","","",""
"","ITI","","html-keyboard-response","571","944855","0.0-1.0-774.0","0","0","44865","","null","","","null","85","","","","","","","","","","","","","","","NaN",""
"","S1","","html-keyboard-response","572","945117","0.0-1.0-776.0","0","0","44865","","null","","","null","86","","","","","","","","","","","","","","","",""
"","ISI","","html-keyboard-response","573","945624","0.0-1.0-777.0","0","0","44865","","null","","","null","86","NaN","","","","","","","","","","","","","","",""
"","S2","","html-keyboard-response","574","945700","0.0-1.0-778.0","0","0","44865","","72","","","75","86","","k","2","86","training","adjacent","GF","7","6","Q.jpg","L.jpg","1","0","0","",""
"","feedback","","html-keyboard-response","575","946710","0.0-1.0-780.0-0.0","0","0","44865","","null","","","null","86","","","","","","","","","","","","","","","",""
"","time_out","","html-keyboard-response","576","948719","0.0-1.0-782.0-0.0","0","0","44865","","null","","","null","86","","","","","","","","","","","","","","","",""
"","ITI","","html-keyboard-response","577","949728","0.0-1.0-783.0","0","0","44865","","null","","","null","86","","","","","","","","","","","","","","","NaN",""
"","S1","","html-keyboard-response","578","949984","0.0-1.0-785.0","0","0","44865","","null","","","null","87","","","","","","","","","","","","","","","",""
