"success","ttype","start_time","trial_type","trial_index","time_elapsed","internal_node_id","warning","missed_checkup","PID","view_history","rt","responses","repeat_instructions","key_press","index","keypress_isi","keypress_S2","block","trial_num","phase","group_type","pair_type","S1_stim","S2_stim","S1_img","S2_img","S1_chosen","S1_higher","accuracy","keypress_iti","total_bonus_tally"
"true","full_screen","d03082023hr1441","fullscreen","0","11690","0.0-0.0","0","0","53685","","","","","","","","","","","","","","","","","","","","","",""
"","instructions","","instructions","1","62369","0.0-1.0-0.0-0.0","0","0","53685","[{""page_index"":0,""viewing_time"":7727},{""page_index"":1,""viewing_time"":24636},{""page_index"":2,""viewing_time"":14189},{""page_index"":3,""viewing_time"":4126}]","50678","","","","","","","","","","","","","","","","","","","",""
"","comprehension_check","","survey-multi-choice","2","96707","0.0-1.0-0.0-1.0","0","0","53685","","34332","{""Q0"":""True"",""Q1"":""K"",""Q2"":""Only when the screen 'MAKE A CHOICE' is shown"",""Q3"":""Green mark"",""Q4"":""either D or K""}","1","","","","","","","","","","","","","","","","","",""
"","missed_instruction_checkup","","html-keyboard-response","3","99965","0.0-1.0-0.0-2.0-0.0","0","1","53685","","3255","","","32","","","","","","","","","","","","","","","","",""
"","instructions","","instructions","4","111373","0.0-1.0-0.1-0.1","0","0","53685","[{""page_index"":0,""viewing_time"":4108},{""page_index"":1,""viewing_time"":5031},{""page_index"":2,""viewing_time"":1393},{""page_index"":3,""viewing_time"":874}]","11406","","","","","","","","","","","","","","","","","","","",""
"","comprehension_check","","survey-multi-choice","5","132972","0.0-1.0-0.1-1.1","0","0","53685","","21595","{""Q0"":""True"",""Q1"":""K"",""Q2"":""Once the second image appears and while the screen 'MAKE A CHOICE' is shown"",""Q3"":""Green mark"",""Q4"":""either D or K""}","0","","","","","","","","","","","","","","","","","",""
"","start_exp","","html-keyboard-response","6","135438","0.0-1.0-1.0","0","0","53685","","2464","","","32","","","","","","","","","","","","","","","","",""
"","S1","","html-keyboard-response","7","135691","0.0-1.0-2.0","0","0","53685","","null","","","null","0","","","","","","","","","","","","","","","",""
"","ISI","","html-keyboard-response","8","135843","0.0-1.0-3.0","0","0","53685","","null","","","null","0","NaN","","","","","","","","","","","","","","",""
"","S2","","html-keyboard-response","9","136095","0.0-1.0-4.0","0","0","53685","","null","","","null","0","","NaN","","","","","","","","","","","","","",""
"","response","","html-keyboard-response","10","136258","0.0-1.0-5.0-0.0","0","0","53685","","161","","","75","0","","","1","0","training","adjacent","DC","4","3","N.jpg","O.jpg","1","0","0","",""
"","feedback","","html-keyboard-response","11","137261","0.0-1.0-6.0-0.0","0","0","53685","","null","","","null","0","","","","","","","","","","","","","","","",""
"","time_out","","html-keyboard-response","12","139263","0.0-1.0-8.0-0.0","0","0","53685","","null","","","null","0","","","","","","","","","","","","","","","",""
"","ITI","","html-keyboard-response","13","140265","0.0-1.0-9.0","0","0","53685","","834","","","32","0","","","","","","","","","","","","","","","space",""
"","S1","","html-keyboard-response","14","140517","0.0-1.0-11.0","0","0","53685","","null","","","null","1","","","","","","","","","","","","","","","",""
"","ISI","","html-keyboard-response","15","140670","0.0-1.0-12.0","0","0","53685","","null","","","null","1","NaN","","","","","","","","","","","","","","",""
"","S2","","html-keyboard-response","16","140922","0.0-1.0-13.0","0","0","53685","","null","","","null","1","","NaN","","","","","","","","","","","","","",""
"","response","","html-keyboard-response","17","141574","0.0-1.0-14.0-0.0","0","0","53685","","650","","","75","1","","","1","1","training","adjacent","GF","7","6","L.jpg","R.jpg","1","0","0","",""
"","feedback","","html-keyboard-response","18","142580","0.0-1.0-15.0-0.0","0","0","53685","","null","","","null","1","","","","","","","","","","","","","","","",""
"","time_out","","html-keyboard-response","19","144583","0.0-1.0-17.0-0.0","0","0","53685","","null","","","null","1","","","","","","","","","","","","","","","",""
"","ITI","","html-keyboard-response","20","145585","0.0-1.0-18.0","0","0","53685","","null","","","null","1","","","","","","","","","","","","","","","NaN",""
"","S1","","html-keyboard-response","21","145839","0.0-1.0-20.0","0","0","53685","","null","","","null","2","","","","","","","","","","","","","","","",""
"","ISI","","html-keyboard-response","22","145991","0.0-1.0-21.0","0","0","53685","","null","","","null","2","NaN","","","","","","","","","","","","","","",""
"","S2","","html-keyboard-response","23","146164","0.0-1.0-22.0","0","0","53685","","171","","","68","2","","d","1","2","training","adjacent","AB","1","2","M.jpg","Q.jpg","0","1","0","",""
"","feedback","","html-keyboard-response","24","147166","0.0-1.0-24.0-0.0","0","0","53685","","null","","","null","2","","","","","","","","","","","","","","","",""
"","time_out","","html-keyboard-response","25","149167","0.0-1.0-26.0-0.0","0","0","53685","","null","","","null","2","","","","","","","","","","","","","","","",""
"","ITI","","html-keyboard-response","26","150169","0.0-1.0-27.0","0","0","53685","","null","","","null","2","","","","","","","","","","","","","","","NaN",""
"","S1","","html-keyboard-response","27","150421","0.0-1.0-29.0","0","0","53685","","null","","","null","3","","","","","","","","","","","","","","","",""
"","ISI","","html-keyboard-response","28","150573","0.0-1.0-30.0","0","0","53685","","null","","","null","3","NaN","","","","","","","","","","","","","","",""
"","S2","","html-keyboard-response","29","150595","0.0-1.0-31.0","0","0","53685","","20","","","75","3","","k","1","3","training","adjacent","FE","6","5","R.jpg","P.jpg","1","0","0","",""
"","feedback","","html-keyboard-response","30","151598","0.0-1.0-33.0-0.0","0","0","53685","","null","","","null","3","","","","","","","","","","","","","","","",""
"","time_out","","html-keyboard-response","31","153602","0.0-1.0-35.0-0.0","0","0","53685","","null","","","null","3","","","","","","","","","","","","","","","",""
"","ITI","","html-keyboard-response","32","154606","0.0-1.0-36.0","0","0","53685","","null","","","null","3","","","","","","","","","","","","","","","NaN",""
"","S1","","html-keyboard-response","33","154858","0.0-1.0-38.0","0","0","53685","","null","","","null","4","","","","","","","","","","","","","","","",""
"","ISI","","html-keyboard-response","34","155011","0.0-1.0-39.0","0","0","53685","","null","","","null","4","NaN","","","","","","","","","","","","","","",""
"","S2","","html-keyboard-response","35","155263","0.0-1.0-40.0","0","0","53685","","null","","","null","4","","NaN","","","","","","","","","","","","","",""
"","response","","html-keyboard-response","36","155720","0.0-1.0-41.0-0.0","0","0","53685","","455","","","68","4","","","1","4","training","adjacent","CD","3","4","O.jpg","N.jpg","0","1","0","",""
"","feedback","","html-keyboard-response","37","156723","0.0-1.0-42.0-0.0","0","0","53685","","null","","","null","4","","","","","","","","","","","","","","","",""
"","time_out","","html-keyboard-response","38","158725","0.0-1.0-44.0-0.0","0","0","53685","","null","","","null","4","","","","","","","","","","","","","","","",""
"","ITI","","html-keyboard-response","39","159742","0.0-1.0-45.0","0","0","53685","","null","","","null","4","","","","","","","","","","","","","","","NaN",""
"","S1","","html-keyboard-response","40","159994","0.0-1.0-47.0","0","0","53685","","null","","","null","5","","","","","","","","","","","","","","","",""
"","ISI","","html-keyboard-response","41","160146","0.0-1.0-48.0","0","0","53685","","null","","","null","5","NaN","","","","","","","","","","","","","","",""
"","S2","","html-keyboard-response","42","160398","0.0-1.0-49.0","0","0","53685","","null","","","null","5","","NaN","","","","","","","","","","","","","",""
"","response","","html-keyboard-response","43","160701","0.0-1.0-50.0-0.0","0","0","53685","","302","","","68","5","","","1","5","training","adjacent","GF","7","6","L.jpg","R.jpg","0","0","1","",""
"","feedback","","html-keyboard-response","44","161703","0.0-1.0-51.0-0.0","0","0","53685","","null","","","null","5","","","","","","","","","","","","","","","",""
"","ITI","","html-keyboard-response","45","162705","0.0-1.0-54.0","0","0","53685","","null","","","null","5","","","","","","","","","","","","","","","NaN",""
"","S1","","html-keyboard-response","46","162957","0.0-1.0-56.0","0","0","53685","","null","","","null","6","","","","","","","","","","","","","","","",""
"","ISI","","html-keyboard-response","47","163109","0.0-1.0-57.0","0","0","53685","","null","","","null","6","NaN","","","","","","","","","","","","","","",""
"","S2","","html-keyboard-response","48","163361","0.0-1.0-58.0","0","0","53685","","null","","","null","6","","NaN","","","","","","","","","","","","","",""
"","response","","html-keyboard-response","49","163856","0.0-1.0-59.0-0.0","0","0","53685","","493","","","68","6","","","1","6","training","adjacent","DC","4","3","N.jpg","O.jpg","0","0","1","",""
"","feedback","","html-keyboard-response","50","164859","0.0-1.0-60.0-0.0","0","0","53685","","null","","","null","6","","","","","","","","","","","","","","","",""
"","ITI","","html-keyboard-response","51","165861","0.0-1.0-63.0","0","0","53685","","null","","","null","6","","","","","","","","","","","","","","","NaN",""
"","S1","","html-keyboard-response","52","166113","0.0-1.0-65.0","0","0","53685","","null","","","null","7","","","","","","","","","","","","","","","",""
"","ISI","","html-keyboard-response","53","166265","0.0-1.0-66.0","0","0","53685","","null","","","null","7","NaN","","","","","","","","","","","","","","",""
"","S2","","html-keyboard-response","54","166518","0.0-1.0-67.0","0","0","53685","","null","","","null","7","","NaN","","","","","","","","","","","","","",""
"","response","","html-keyboard-response","55","166849","0.0-1.0-68.0-0.0","0","0","53685","","330","","","68","7","","","1","7","training","adjacent","DE","4","5","N.jpg","P.jpg","0","1","0","",""
"","feedback","","html-keyboard-response","56","167852","0.0-1.0-69.0-0.0","0","0","53685","","null","","","null","7","","","","","","","","","","","","","","","",""
"","time_out","","html-keyboard-response","57","169854","0.0-1.0-71.0-0.0","0","0","53685","","null","","","null","7","","","","","","","","","","","","","","","",""
"","ITI","","html-keyboard-response","58","170858","0.0-1.0-72.0","0","0","53685","","null","","","null","7","","","","","","","","","","","","","","","NaN",""
"","S1","","html-keyboard-response","59","171110","0.0-1.0-74.0","0","0","53685","","null","","","null","8","","","","","","","","","","","","","","","",""
"","ISI","","html-keyboard-response","60","171262","0.0-1.0-75.0","0","0","53685","","null","","","null","8","NaN","","","","","","","","","","","","","","",""
"","S2","","html-keyboard-response","61","171515","0.0-1.0-76.0","0","0","53685","","null","","","null","8","","NaN","","","","","","","","","","","","","",""
"","response","","html-keyboard-response","62","171851","0.0-1.0-77.0-0.0","0","0","53685","","335","","","75","8","","","1","8","training","adjacent","EF","5","6","P.jpg","R.jpg","1","1","1","",""
"","feedback","","html-keyboard-response","63","172854","0.0-1.0-78.0-0.0","0","0","53685","","null","","","null","8","","","","","","","","","","","","","","","",""
"","ITI","","html-keyboard-response","64","173856","0.0-1.0-81.0","0","0","53685","","null","","","null","8","","","","","","","","","","","","","","","NaN",""
"","S1","","html-keyboard-response","65","174108","0.0-1.0-83.0","0","0","53685","","null","","","null","9","","","","","","","","","","","","","","","",""
"","ISI","","html-keyboard-response","66","174260","0.0-1.0-84.0","0","0","53685","","null","","","null","9","NaN","","","","","","","","","","","","","","",""
"","S2","","html-keyboard-response","67","174512","0.0-1.0-85.0","0","0","53685","","null","","","null","9","","NaN","","","","","","","","","","","","","",""
"","response","","html-keyboard-response","68","175402","0.0-1.0-86.0-0.0","0","0","53685","","888","","","75","9","","","1","9","training","adjacent","BC","2","3","Q.jpg","O.jpg","1","1","1","",""
"","feedback","","html-keyboard-response","69","176405","0.0-1.0-87.0-0.0","0","0","53685","","null","","","null","9","","","","","","","","","","","","","","","",""
"","ITI","","html-keyboard-response","70","177408","0.0-1.0-90.0","0","0","53685","","null","","","null","9","","","","","","","","","","","","","","","NaN",""
"","S1","","html-keyboard-response","71","177660","0.0-1.0-92.0","0","0","53685","","null","","","null","10","","","","","","","","","","","","","","","",""
"","ISI","","html-keyboard-response","72","177813","0.0-1.0-93.0","0","0","53685","","null","","","null","10","NaN","","","","","","","","","","","","","","",""
"","S2","","html-keyboard-response","73","178065","0.0-1.0-94.0","0","0","53685","","null","","","null","10","","NaN","","","","","","","","","","","","","",""
"","response","","html-keyboard-response","74","178386","0.0-1.0-95.0-0.0","0","0","53685","","320","","","75","10","","","1","10","training","adjacent","BA","2","1","Q.jpg","M.jpg","1","0","0","",""
"","feedback","","html-keyboard-response","75","179388","0.0-1.0-96.0-0.0","0","0","53685","","null","","","null","10","","","","","","","","","","","","","","","",""
"","time_out","","html-keyboard-response","76","181389","0.0-1.0-98.0-0.0","0","0","53685","","null","","","null","10","","","","","","","","","","","","","","","",""
"","ITI","","html-keyboard-response","77","182391","0.0-1.0-99.0","0","0","53685","","null","","","null","10","","","","","","","","","","","","","","","NaN",""
"","S1","","html-keyboard-response","78","182644","0.0-1.0-101.0","0","0","53685","","null","","","null","11","","","","","","","","","","","","","","","",""
"","ISI","","html-keyboard-response","79","182796","0.0-1.0-102.0","0","0","53685","","null","","","null","11","NaN","","","","","","","","","","","","","","",""
"","S2","","html-keyboard-response","80","183049","0.0-1.0-103.0","0","0","53685","","null","","","null","11","","NaN","","","","","","","","","","","","","",""
"","response","","html-keyboard-response","81","183262","0.0-1.0-104.0-0.0","0","0","53685","","212","","","68","11","","","1","11","training","adjacent","CB","3","2","O.jpg","Q.jpg","0","0","1","",""
"","feedback","","html-keyboard-response","82","184264","0.0-1.0-105.0-0.0","0","0","53685","","null","","","null","11","","","","","","","","","","","","","","","",""
"","ITI","","html-keyboard-response","83","185267","0.0-1.0-108.0","0","0","53685","","null","","","null","11","","","","","","","","","","","","","","","NaN",""
"","S1","","html-keyboard-response","84","185520","0.0-1.0-110.0","0","0","53685","","null","","","null","12","","","","","","","","","","","","","","","",""
"","ISI","","html-keyboard-response","85","185672","0.0-1.0-111.0","0","0","53685","","null","","","null","12","NaN","","","","","","","","","","","","","","",""
"","S2","","html-keyboard-response","86","185924","0.0-1.0-112.0","0","0","53685","","null","","","null","12","","NaN","","","","","","","","","","","","","",""
"","response","","html-keyboard-response","87","186275","0.0-1.0-113.0-0.0","0","0","53685","","348","","","68","12","","","1","12","training","adjacent","FE","6","5","R.jpg","P.jpg","0","0","1","",""
"","feedback","","html-keyboard-response","88","187277","0.0-1.0-114.0-0.0","0","0","53685","","null","","","null","12","","","","","","","","","","","","","","","",""
"","ITI","","html-keyboard-response","89","188279","0.0-1.0-117.0","0","0","53685","","null","","","null","12","","","","","","","","","","","","","","","NaN",""
"","S1","","html-keyboard-response","90","188531","0.0-1.0-119.0","0","0","53685","","null","","","null","13","","","","","","","","","","","","","","","",""
"","ISI","","html-keyboard-response","91","188684","0.0-1.0-120.0","0","0","53685","","null","","","null","13","NaN","","","","","","","","","","","","","","",""
"","S2","","html-keyboard-response","92","188937","0.0-1.0-121.0","0","0","53685","","null","","","null","13","","NaN","","","","","","","","","","","","","",""
"","response","","html-keyboard-response","93","189714","0.0-1.0-122.0-0.0","0","0","53685","","776","","","75","13","","","1","13","training","adjacent","AB","1","2","M.jpg","Q.jpg","1","1","1","",""
"","feedback","","html-keyboard-response","94","190716","0.0-1.0-123.0-0.0","0","0","53685","","null","","","null","13","","","","","","","","","","","","","","","",""
"","ITI","","html-keyboard-response","95","191717","0.0-1.0-126.0","0","0","53685","","null","","","null","13","","","","","","","","","","","","","","","NaN",""
"","S1","","html-keyboard-response","96","191970","0.0-1.0-128.0","0","0","53685","","null","","","null","14","","","","","","","","","","","","","","","",""
"","ISI","","html-keyboard-response","97","192122","0.0-1.0-129.0","0","0","53685","","null","","","null","14","NaN","","","","","","","","","","","","","","",""
"","S2","","html-keyboard-response","98","192374","0.0-1.0-130.0","0","0","53685","","null","","","null","14","","NaN","","","","","","","","","","","","","",""
"","response","","html-keyboard-response","99","192972","0.0-1.0-131.0-0.0","0","0","53685","","595","","","75","14","","","1","14","training","adjacent","ED","5","4","P.jpg","N.jpg","1","0","0","",""
"","feedback","","html-keyboard-response","100","193975","0.0-1.0-132.0-0.0","0","0","53685","","null","","","null","14","","","","","","","","","","","","","","","",""
"","time_out","","html-keyboard-response","101","195977","0.0-1.0-134.0-0.0","0","0","53685","","null","","","null","14","","","","","","","","","","","","","","","",""
"","ITI","","html-keyboard-response","102","196980","0.0-1.0-135.0","0","0","53685","","null","","","null","14","","","","","","","","","","","","","","","NaN",""
"","S1","","html-keyboard-response","103","197232","0.0-1.0-137.0","0","0","53685","","null","","","null","15","","","","","","","","","","","","","","","",""
"","ISI","","html-keyboard-response","104","197384","0.0-1.0-138.0","0","0","53685","","null","","","null","15","NaN","","","","","","","","","","","","","","",""
"","S2","","html-keyboard-response","105","197637","0.0-1.0-139.0","0","0","53685","","null","","","null","15","","NaN","","","","","","","","","","","","","",""
"","response","","html-keyboard-response","106","198091","0.0-1.0-140.0-0.0","0","0","53685","","453","","","75","15","","","1","15","training","adjacent","EF","5","6","P.jpg","R.jpg","1","1","1","",""
"","feedback","","html-keyboard-response","107","199093","0.0-1.0-141.0-0.0","0","0","53685","","null","","","null","15","","","","","","","","","","","","","","","",""
"","ITI","","html-keyboard-response","108","200096","0.0-1.0-144.0","0","0","53685","","null","","","null","15","","","","","","","","","","","","","","","NaN",""
"","S1","","html-keyboard-response","109","200348","0.0-1.0-146.0","0","0","53685","","null","","","null","16","","","","","","","","","","","","","","","",""
"","ISI","","html-keyboard-response","110","200500","0.0-1.0-147.0","0","0","53685","","null","","","null","16","NaN","","","","","","","","","","","","","","",""
"","S2","","html-keyboard-response","111","200752","0.0-1.0-148.0","0","0","53685","","null","","","null","16","","NaN","","","","","","","","","","","","","",""
"","response","","html-keyboard-response","112","201420","0.0-1.0-149.0-0.0","0","0","53685","","666","","","68","16","","","1","16","training","adjacent","CD","3","4","O.jpg","N.jpg","0","1","0","",""
"","feedback","","html-keyboard-response","113","202423","0.0-1.0-150.0-0.0","0","0","53685","","null","","","null","16","","","","","","","","","","","","","","","",""
"","time_out","","html-keyboard-response","114","204425","0.0-1.0-152.0-0.0","0","0","53685","","null","","","null","16","","","","","","","","","","","","","","","",""
"","ITI","","html-keyboard-response","115","205427","0.0-1.0-153.0","0","0","53685","","null","","","null","16","","","","","","","","","","","","","","","NaN",""
"","S1","","html-keyboard-response","116","205680","0.0-1.0-155.0","0","0","53685","","null","","","null","17","","","","","","","","","","","","","","","",""
"","ISI","","html-keyboard-response","117","205832","0.0-1.0-156.0","0","0","53685","","null","","","null","17","NaN","","","","","","","","","","","","","","",""
"","S2","","html-keyboard-response","118","206084","0.0-1.0-157.0","0","0","53685","","null","","","null","17","","NaN","","","","","","","","","","","","","",""
"","response","","html-keyboard-response","119","206572","0.0-1.0-158.0-0.0","0","0","53685","","487","","","75","17","","","1","17","training","adjacent","BC","2","3","Q.jpg","O.jpg","1","1","1","",""
"","feedback","","html-keyboard-response","120","207574","0.0-1.0-159.0-0.0","0","0","53685","","null","","","null","17","","","","","","","","","","","","","","","",""
"","ITI","","html-keyboard-response","121","208576","0.0-1.0-162.0","0","0","53685","","null","","","null","17","","","","","","","","","","","","","","","NaN",""
"","S1","","html-keyboard-response","122","208828","0.0-1.0-164.0","0","0","53685","","null","","","null","18","","","","","","","","","","","","","","","",""
"","ISI","","html-keyboard-response","123","208980","0.0-1.0-165.0","0","0","53685","","null","","","null","18","NaN","","","","","","","","","","","","","","",""
"","S2","","html-keyboard-response","124","209233","0.0-1.0-166.0","0","0","53685","","null","","","null","18","","NaN","","","","","","","","","","","","","",""
"","response","","html-keyboard-response","125","209590","0.0-1.0-167.0-0.0","0","0","53685","","355","","","68","18","","","1","18","training","adjacent","FE","6","5","R.jpg","P.jpg","0","0","1","",""
"","feedback","","html-keyboard-response","126","210592","0.0-1.0-168.0-0.0","0","0","53685","","null","","","null","18","","","","","","","","","","","","","","","",""
"","ITI","","html-keyboard-response","127","211595","0.0-1.0-171.0","0","0","53685","","null","","","null","18","","","","","","","","","","","","","","","NaN",""
"","S1","","html-keyboard-response","128","211848","0.0-1.0-173.0","0","0","53685","","null","","","null","19","","","","","","","","","","","","","","","",""
"","ISI","","html-keyboard-response","129","212001","0.0-1.0-174.0","0","0","53685","","null","","","null","19","NaN","","","","","","","","","","","","","","",""
"","S2","","html-keyboard-response","130","212253","0.0-1.0-175.0","0","0","53685","","null","","","null","19","","NaN","","","","","","","","","","","","","",""
"","response","","html-keyboard-response","131","212791","0.0-1.0-176.0-0.0","0","0","53685","","537","","","75","19","","","1","19","training","adjacent","BA","2","1","Q.jpg","M.jpg","1","0","0","",""
"","feedback","","html-keyboard-response","132","213793","0.0-1.0-177.0-0.0","0","0","53685","","null","","","null","19","","","","","","","","","","","","","","","",""
"","time_out","","html-keyboard-response","133","215795","0.0-1.0-179.0-0.0","0","0","53685","","null","","","null","19","","","","","","","","","","","","","","","",""
"","ITI","","html-keyboard-response","134","216797","0.0-1.0-180.0","0","0","53685","","null","","","null","19","","","","","","","","","","","","","","","NaN",""
"","S1","","html-keyboard-response","135","217050","0.0-1.0-182.0","0","0","53685","","null","","","null","20","","","","","","","","","","","","","","","",""
"","ISI","","html-keyboard-response","136","217201","0.0-1.0-183.0","0","0","53685","","null","","","null","20","NaN","","","","","","","","","","","","","","",""
"","S2","","html-keyboard-response","137","217453","0.0-1.0-184.0","0","0","53685","","null","","","null","20","","NaN","","","","","","","","","","","","","",""
"","response","","html-keyboard-response","138","217736","0.0-1.0-185.0-0.0","0","0","53685","","281","","","68","20","","","1","20","training","adjacent","DC","4","3","N.jpg","O.jpg","0","0","1","",""
"","feedback","","html-keyboard-response","139","218739","0.0-1.0-186.0-0.0","0","0","53685","","null","","","null","20","","","","","","","","","","","","","","","",""
"","ITI","","html-keyboard-response","140","219742","0.0-1.0-189.0","0","0","53685","","null","","","null","20","","","","","","","","","","","","","","","NaN",""
"","S1","","html-keyboard-response","141","219994","0.0-1.0-191.0","0","0","53685","","null","","","null","21","","","","","","","","","","","","","","","",""
"","ISI","","html-keyboard-response","142","220146","0.0-1.0-192.0","0","0","53685","","null","","","null","21","NaN","","","","","","","","","","","","","","",""
"","S2","","html-keyboard-response","143","220399","0.0-1.0-193.0","0","0","53685","","null","","","null","21","","NaN","","","","","","","","","","","","","",""
"","response","","html-keyboard-response","144","220911","0.0-1.0-194.0-0.0","0","0","53685","","511","","","75","21","","","1","21","training","adjacent","BA","2","1","Q.jpg","M.jpg","1","0","0","",""
"","feedback","","html-keyboard-response","145","221914","0.0-1.0-195.0-0.0","0","0","53685","","null","","","null","21","","","","","","","","","","","","","","","",""
"","time_out","","html-keyboard-response","146","223916","0.0-1.0-197.0-0.0","0","0","53685","","null","","","null","21","","","","","","","","","","","","","","","",""
"","ITI","","html-keyboard-response","147","224918","0.0-1.0-198.0","0","0","53685","","null","","","null","21","","","","","","","","","","","","","","","NaN",""
"","S1","","html-keyboard-response","148","225171","0.0-1.0-200.0","0","0","53685","","null","","","null","22","","","","","","","","","","","","","","","",""
"","ISI","","html-keyboard-response","149","225323","0.0-1.0-201.0","0","0","53685","","null","","","null","22","NaN","","","","","","","","","","","","","","",""
"","S2","","html-keyboard-response","150","225576","0.0-1.0-202.0","0","0","53685","","null","","","null","22","","NaN","","","","","","","","","","","","","",""
"","response","","html-keyboard-response","151","226057","0.0-1.0-203.0-0.0","0","0","53685","","480","","","75","22","","","1","22","training","adjacent","CD","3","4","O.jpg","N.jpg","1","1","1","",""
"","feedback","","html-keyboard-response","152","227059","0.0-1.0-204.0-0.0","0","0","53685","","null","","","null","22","","","","","","","","","","","","","","","",""
"","ITI","","html-keyboard-response","153","228062","0.0-1.0-207.0","0","0","53685","","null","","","null","22","","","","","","","","","","","","","","","NaN",""
"","S1","","html-keyboard-response","154","228314","0.0-1.0-209.0","0","0","53685","","null","","","null","23","","","","","","","","","","","","","","","",""
"","ISI","","html-keyboard-response","155","228466","0.0-1.0-210.0","0","0","53685","","null","","","null","23","NaN","","","","","","","","","","","","","","",""
"","S2","","html-keyboard-response","156","228720","0.0-1.0-211.0","0","0","53685","","null","","","null","23","","NaN","","","","","","","","","","","","","",""
"","response","","html-keyboard-response","157","228979","0.0-1.0-212.0-0.0","0","0","53685","","257","","","68","23","","","1","23","training","adjacent","DE","4","5","N.jpg","P.jpg","0","1","0","",""
"","feedback","","html-keyboard-response","158","229981","0.0-1.0-213.0-0.0","0","0","53685","","null","","","null","23","","","","","","","","","","","","","","","",""
"","time_out","","html-keyboard-response","159","231983","0.0-1.0-215.0-0.0","0","0","53685","","null","","","null","23","","","","","","","","","","","","","","","",""
"","ITI","","html-keyboard-response","160","232986","0.0-1.0-216.0","0","0","53685","","null","","","null","23","","","","","","","","","","","","","","","NaN",""
"","S1","","html-keyboard-response","161","233238","0.0-1.0-218.0","0","0","53685","","null","","","null","24","","","","","","","","","","","","","","","",""
"","ISI","","html-keyboard-response","162","233390","0.0-1.0-219.0","0","0","53685","","null","","","null","24","NaN","","","","","","","","","","","","","","",""
"","S2","","html-keyboard-response","163","233642","0.0-1.0-220.0","0","0","53685","","null","","","null","24","","NaN","","","","","","","","","","","","","",""
"","response","","html-keyboard-response","164","233949","0.0-1.0-221.0-0.0","0","0","53685","","305","","","75","24","","","1","24","training","adjacent","EF","5","6","P.jpg","R.jpg","1","1","1","",""
"","feedback","","html-keyboard-response","165","234962","0.0-1.0-222.0-0.0","0","0","53685","","null","","","null","24","","","","","","","","","","","","","","","",""
"","ITI","","html-keyboard-response","166","235965","0.0-1.0-225.0","0","0","53685","","null","","","null","24","","","","","","","","","","","","","","","NaN",""
"","S1","","html-keyboard-response","167","236216","0.0-1.0-227.0","0","0","53685","","null","","","null","25","","","","","","","","","","","","","","","",""
"","ISI","","html-keyboard-response","168","236369","0.0-1.0-228.0","0","0","53685","","null","","","null","25","NaN","","","","","","","","","","","","","","",""
"","S2","","html-keyboard-response","169","236621","0.0-1.0-229.0","0","0","53685","","null","","","null","25","","NaN","","","","","","","","","","","","","",""
"","response","","html-keyboard-response","170","237043","0.0-1.0-230.0-0.0","0","0","53685","","421","","","75","25","","","1","25","training","adjacent","BA","2","1","Q.jpg","M.jpg","1","0","0","",""
"","feedback","","html-keyboard-response","171","238045","0.0-1.0-231.0-0.0","0","0","53685","","null","","","null","25","","","","","","","","","","","","","","","",""
"","time_out","","html-keyboard-response","172","240047","0.0-1.0-233.0-0.0","0","0","53685","","null","","","null","25","","","","","","","","","","","","","","","",""
"","ITI","","html-keyboard-response","173","241049","0.0-1.0-234.0","0","0","53685","","null","","","null","25","","","","","","","","","","","","","","","NaN",""
"","S1","","html-keyboard-response","174","241302","0.0-1.0-236.0","0","0","53685","","null","","","null","26","","","","","","","","","","","","","","","",""
"","ISI","","html-keyboard-response","175","241454","0.0-1.0-237.0","0","0","53685","","null","","","null","26","NaN","","","","","","","","","","","","","","",""
"","S2","","html-keyboard-response","176","241706","0.0-1.0-238.0","0","0","53685","","null","","","null","26","","NaN","","","","","","","","","","","","","",""
"","response","","html-keyboard-response","177","242207","0.0-1.0-239.0-0.0","0","0","53685","","499","","","68","26","","","1","26","training","adjacent","DC","4","3","N.jpg","O.jpg","0","0","1","",""
"","feedback","","html-keyboard-response","178","243209","0.0-1.0-240.0-0.0","0","0","53685","","null","","","null","26","","","","","","","","","","","","","","","",""
"","ITI","","html-keyboard-response","179","244212","0.0-1.0-243.0","0","0","53685","","null","","","null","26","","","","","","","","","","","","","","","NaN",""
"","S1","","html-keyboard-response","180","244464","0.0-1.0-245.0","0","0","53685","","null","","","null","27","","","","","","","","","","","","","","","",""
"","ISI","","html-keyboard-response","181","244616","0.0-1.0-246.0","0","0","53685","","null","","","null","27","NaN","","","","","","","","","","","","","","",""
"","S2","","html-keyboard-response","182","244868","0.0-1.0-247.0","0","0","53685","","null","","","null","27","","NaN","","","","","","","","","","","","","",""
"","response","","html-keyboard-response","183","245521","0.0-1.0-248.0-0.0","0","0","53685","","652","","","75","27","","","1","27","training","adjacent","AB","1","2","M.jpg","Q.jpg","1","1","1","",""
"","feedback","","html-keyboard-response","184","246524","0.0-1.0-249.0-0.0","0","0","53685","","null","","","null","27","","","","","","","","","","","","","","","",""
"","ITI","","html-keyboard-response","185","247526","0.0-1.0-252.0","0","0","53685","","null","","","null","27","","","","","","","","","","","","","","","NaN",""
"","S1","","html-keyboard-response","186","247778","0.0-1.0-254.0","0","0","53685","","null","","","null","28","","","","","","","","","","","","","","","",""
"","ISI","","html-keyboard-response","187","247931","0.0-1.0-255.0","0","0","53685","","null","","","null","28","NaN","","","","","","","","","","","","","","",""
"","S2","","html-keyboard-response","188","248183","0.0-1.0-256.0","0","0","53685","","null","","","null","28","","NaN","","","","","","","","","","","","","",""
"","response","","html-keyboard-response","189","248795","0.0-1.0-257.0-0.0","0","0","53685","","610","","","75","28","","","1","28","training","adjacent","CB","3","2","O.jpg","Q.jpg","1","0","0","",""
"","feedback","","html-keyboard-response","190","249798","0.0-1.0-258.0-0.0","0","0","53685","","null","","","null","28","","","","","","","","","","","","","","","",""
"","time_out","","html-keyboard-response","191","251801","0.0-1.0-260.0-0.0","0","0","53685","","null","","","null","28","","","","","","","","","","","","","","","",""
"","ITI","","html-keyboard-response","192","252803","0.0-1.0-261.0","0","0","53685","","null","","","null","28","","","","","","","","","","","","","","","NaN",""
"","S1","","html-keyboard-response","193","253055","0.0-1.0-263.0","0","0","53685","","null","","","null","29","","","","","","","","","","","","","","","",""
"","ISI","","html-keyboard-response","194","253207","0.0-1.0-264.0","0","0","53685","","null","","","null","29","NaN","","","","","","","","","","","","","","",""
"","S2","","html-keyboard-response","195","253459","0.0-1.0-265.0","0","0","53685","","null","","","null","29","","NaN","","","","","","","","","","","","","",""
"","response","","html-keyboard-response","196","254027","0.0-1.0-266.0-0.0","0","0","53685","","567","","","75","29","","","1","29","training","adjacent","CB","3","2","O.jpg","Q.jpg","1","0","0","",""
"","feedback","","html-keyboard-response","197","255030","0.0-1.0-267.0-0.0","0","0","53685","","null","","","null","29","","","","","","","","","","","","","","","",""
"","time_out","","html-keyboard-response","198","257032","0.0-1.0-269.0-0.0","0","0","53685","","null","","","null","29","","","","","","","","","","","","","","","",""
"","ITI","","html-keyboard-response","199","258034","0.0-1.0-270.0","0","0","53685","","null","","","null","29","","","","","","","","","","","","","","","NaN",""
"","S1","","html-keyboard-response","200","258286","0.0-1.0-272.0","0","0","53685","","null","","","null","30","","","","","","","","","","","","","","","",""
"","ISI","","html-keyboard-response","201","258439","0.0-1.0-273.0","0","0","53685","","null","","","null","30","NaN","","","","","","","","","","","","","","",""
"","S2","","html-keyboard-response","202","258691","0.0-1.0-274.0","0","0","53685","","null","","","null","30","","NaN","","","","","","","","","","","","","",""
"","response","","html-keyboard-response","203","259088","0.0-1.0-275.0-0.0","0","0","53685","","395","","","68","30","","","1","30","training","adjacent","FE","6","5","R.jpg","P.jpg","0","0","1","",""
"","feedback","","html-keyboard-response","204","260091","0.0-1.0-276.0-0.0","0","0","53685","","null","","","null","30","","","","","","","","","","","","","","","",""
"","ITI","","html-keyboard-response","205","261094","0.0-1.0-279.0","0","0","53685","","null","","","null","30","","","","","","","","","","","","","","","NaN",""
"","S1","","html-keyboard-response","206","261347","0.0-1.0-281.0","0","0","53685","","null","","","null","31","","","","","","","","","","","","","","","",""
"","ISI","","html-keyboard-response","207","261500","0.0-1.0-282.0","0","0","53685","","null","","","null","31","NaN","","","","","","","","","","","","","","",""
"","S2","","html-keyboard-response","208","261752","0.0-1.0-283.0","0","0","53685","","null","","","null","31","","NaN","","","","","","","","","","","","","",""
"","response","","html-keyboard-response","209","262361","0.0-1.0-284.0-0.0","0","0","53685","","608","","","75","31","","","1","31","training","adjacent","BC","2","3","Q.jpg","O.jpg","1","1","1","",""
"","feedback","","html-keyboard-response","210","263363","0.0-1.0-285.0-0.0","0","0","53685","","null","","","null","31","","","","","","","","","","","","","","","",""
"","ITI","","html-keyboard-response","211","264365","0.0-1.0-288.0","0","0","53685","","null","","","null","31","","","","","","","","","","","","","","","NaN",""
"","S1","","html-keyboard-response","212","264617","0.0-1.0-290.0","0","0","53685","","null","","","null","32","","","","","","","","","","","","","","","",""
"","ISI","","html-keyboard-response","213","264769","0.0-1.0-291.0","0","0","53685","","null","","","null","32","NaN","","","","","","","","","","","","","","",""
"","S2","","html-keyboard-response","214","265022","0.0-1.0-292.0","0","0","53685","","null","","","null","32","","NaN","","","","","","","","","","","","","",""
"","response","","html-keyboard-response","215","265730","0.0-1.0-293.0-0.0","0","0","53685","","707","","","75","32","","","1","32","training","adjacent","ED","5","4","P.jpg","N.jpg","1","0","0","",""
"","feedback","","html-keyboard-response","216","266732","0.0-1.0-294.0-0.0","0","0","53685","","null","","","null","32","","","","","","","","","","","","","","","",""
"","time_out","","html-keyboard-response","217","268735","0.0-1.0-296.0-0.0","0","0","53685","","null","","","null","32","","","","","","","","","","","","","","","",""
"","ITI","","html-keyboard-response","218","269737","0.0-1.0-297.0","0","0","53685","","null","","","null","32","","","","","","","","","","","","","","","NaN",""
"","S1","","html-keyboard-response","219","269989","0.0-1.0-299.0","0","0","53685","","null","","","null","33","","","","","","","","","","","","","","","",""
"","ISI","","html-keyboard-response","220","270142","0.0-1.0-300.0","0","0","53685","","null","","","null","33","NaN","","","","","","","","","","","","","","",""
"","S2","","html-keyboard-response","221","270395","0.0-1.0-301.0","0","0","53685","","null","","","null","33","","NaN","","","","","","","","","","","","","",""
"","response","","html-keyboard-response","222","271030","0.0-1.0-302.0-0.0","0","0","53685","","634","","","68","33","","","1","33","training","adjacent","FG","6","7","R.jpg","L.jpg","0","1","0","",""
"","feedback","","html-keyboard-response","223","272032","0.0-1.0-303.0-0.0","0","0","53685","","null","","","null","33","","","","","","","","","","","","","","","",""
"","time_out","","html-keyboard-response","224","274033","0.0-1.0-305.0-0.0","0","0","53685","","null","","","null","33","","","","","","","","","","","","","","","",""
"","ITI","","html-keyboard-response","225","275035","0.0-1.0-306.0","0","0","53685","","null","","","null","33","","","","","","","","","","","","","","","NaN",""
"","S1","","html-keyboard-response","226","275287","0.0-1.0-308.0","0","0","53685","","null","","","null","34","","","","","","","","","","","","","","","",""
"","ISI","","html-keyboard-response","227","275439","0.0-1.0-309.0","0","0","53685","","null","","","null","34","NaN","","","","","","","","","","","","","","",""
"","S2","","html-keyboard-response","228","275692","0.0-1.0-310.0","0","0","53685","","null","","","null","34","","NaN","","","","","","","","","","","","","",""
"","response","","html-keyboard-response","229","276105","0.0-1.0-311.0-0.0","0","0","53685","","411","","","75","34","","","1","34","training","adjacent","GF","7","6","L.jpg","R.jpg","1","0","0","",""
"","feedback","","html-keyboard-response","230","277119","0.0-1.0-312.0-0.0","0","0","53685","","null","","","null","34","","","","","","","","","","","","","","","",""
"","time_out","","html-keyboard-response","231","279122","0.0-1.0-314.0-0.0","0","0","53685","","null","","","null","34","","","","","","","","","","","","","","","",""
"","ITI","","html-keyboard-response","232","280125","0.0-1.0-315.0","0","0","53685","","null","","","null","34","","","","","","","","","","","","","","","NaN",""
"","S1","","html-keyboard-response","233","280377","0.0-1.0-317.0","0","0","53685","","null","","","null","35","","","","","","","","","","","","","","","",""
"","ISI","","html-keyboard-response","234","280529","0.0-1.0-318.0","0","0","53685","","null","","","null","35","NaN","","","","","","","","","","","","","","",""
"","S2","","html-keyboard-response","235","280781","0.0-1.0-319.0","0","0","53685","","null","","","null","35","","NaN","","","","","","","","","","","","","",""
"","response","","html-keyboard-response","236","281177","0.0-1.0-320.0-0.0","0","0","53685","","395","","","68","35","","","1","35","training","adjacent","FG","6","7","R.jpg","L.jpg","0","1","0","",""
"","feedback","","html-keyboard-response","237","282179","0.0-1.0-321.0-0.0","0","0","53685","","null","","","null","35","","","","","","","","","","","","","","","",""
"","time_out","","html-keyboard-response","238","284182","0.0-1.0-323.0-0.0","0","0","53685","","null","","","null","35","","","","","","","","","","","","","","","",""
"","ITI","","html-keyboard-response","239","285184","0.0-1.0-324.0","0","0","53685","","null","","","null","35","","","","","","","","","","","","","","","NaN",""
"","S1","","html-keyboard-response","240","285436","0.0-1.0-326.0","0","0","53685","","null","","","null","36","","","","","","","","","","","","","","","",""
"","ISI","","html-keyboard-response","241","285588","0.0-1.0-327.0","0","0","53685","","null","","","null","36","NaN","","","","","","","","","","","","","","",""
"","S2","","html-keyboard-response","242","285841","0.0-1.0-328.0","0","0","53685","","null","","","null","36","","NaN","","","","","","","","","","","","","",""
"","response","","html-keyboard-response","243","286164","0.0-1.0-329.0-0.0","0","0","53685","","321","","","68","36","","","1","36","training","adjacent","FG","6","7","R.jpg","L.jpg","0","1","0","",""
"","feedback","","html-keyboard-response","244","287166","0.0-1.0-330.0-0.0","0","0","53685","","null","","","null","36","","","","","","","","","","","","","","","",""
"","time_out","","html-keyboard-response","245","289168","0.0-1.0-332.0-0.0","0","0","53685","","null","","","null","36","","","","","","","","","","","","","","","",""
"","ITI","","html-keyboard-response","246","290171","0.0-1.0-333.0","0","0","53685","","null","","","null","36","","","","","","","","","","","","","","","NaN",""
"","S1","","html-keyboard-response","247","290423","0.0-1.0-335.0","0","0","53685","","null","","","null","37","","","","","","","","","","","","","","","",""
"","ISI","","html-keyboard-response","248","290575","0.0-1.0-336.0","0","0","53685","","null","","","null","37","NaN","","","","","","","","","","","","","","",""
"","S2","","html-keyboard-response","249","290828","0.0-1.0-337.0","0","0","53685","","null","","","null","37","","NaN","","","","","","","","","","","","","",""
"","response","","html-keyboard-response","250","291485","0.0-1.0-338.0-0.0","0","0","53685","","655","","","68","37","","","1","37","training","adjacent","GF","7","6","L.jpg","R.jpg","0","0","1","",""
"","feedback","","html-keyboard-response","251","292487","0.0-1.0-339.0-0.0","0","0","53685","","null","","","null","37","","","","","","","","","","","","","","","",""
"","ITI","","html-keyboard-response","252","293490","0.0-1.0-342.0","0","0","53685","","null","","","null","37","","","","","","","","","","","","","","","NaN",""
"","S1","","html-keyboard-response","253","293742","0.0-1.0-344.0","0","0","53685","","null","","","null","38","","","","","","","","","","","","","","","",""
"","ISI","","html-keyboard-response","254","293895","0.0-1.0-345.0","0","0","53685","","null","","","null","38","NaN","","","","","","","","","","","","","","",""
"","S2","","html-keyboard-response","255","294147","0.0-1.0-346.0","0","0","53685","","null","","","null","38","","NaN","","","","","","","","","","","","","",""
"","response","","html-keyboard-response","256","294620","0.0-1.0-347.0-0.0","0","0","53685","","471","","","75","38","","","1","38","training","adjacent","ED","5","4","P.jpg","N.jpg","1","0","0","",""
"","feedback","","html-keyboard-response","257","295623","0.0-1.0-348.0-0.0","0","0","53685","","null","","","null","38","","","","","","","","","","","","","","","",""
"","time_out","","html-keyboard-response","258","297624","0.0-1.0-350.0-0.0","0","0","53685","","null","","","null","38","","","","","","","","","","","","","","","",""
"","ITI","","html-keyboard-response","259","298626","0.0-1.0-351.0","0","0","53685","","null","","","null","38","","","","","","","","","","","","","","","NaN",""
"","S1","","html-keyboard-response","260","298879","0.0-1.0-353.0","0","0","53685","","null","","","null","39","","","","","","","","","","","","","","","",""
"","ISI","","html-keyboard-response","261","299032","0.0-1.0-354.0","0","0","53685","","null","","","null","39","NaN","","","","","","","","","","","","","","",""
"","S2","","html-keyboard-response","262","299284","0.0-1.0-355.0","0","0","53685","","null","","","null","39","","NaN","","","","","","","","","","","","","",""
"","response","","html-keyboard-response","263","299748","0.0-1.0-356.0-0.0","0","0","53685","","462","","","75","39","","","1","39","training","adjacent","EF","5","6","P.jpg","R.jpg","1","1","1","",""
"","feedback","","html-keyboard-response","264","300750","0.0-1.0-357.0-0.0","0","0","53685","","null","","","null","39","","","","","","","","","","","","","","","",""
"","ITI","","html-keyboard-response","265","301755","0.0-1.0-360.0","0","0","53685","","null","","","null","39","","","","","","","","","","","","","","","NaN",""
"","S1","","html-keyboard-response","266","302007","0.0-1.0-362.0","0","0","53685","","null","","","null","40","","","","","","","","","","","","","","","",""
"","ISI","","html-keyboard-response","267","302160","0.0-1.0-363.0","0","0","53685","","null","","","null","40","NaN","","","","","","","","","","","","","","",""
"","S2","","html-keyboard-response","268","302413","0.0-1.0-364.0","0","0","53685","","null","","","null","40","","NaN","","","","","","","","","","","","","",""
"","response","","html-keyboard-response","269","302874","0.0-1.0-365.0-0.0","0","0","53685","","460","","","68","40","","","1","40","training","adjacent","DE","4","5","N.jpg","P.jpg","0","1","0","",""
"","feedback","","html-keyboard-response","270","303876","0.0-1.0-366.0-0.0","0","0","53685","","null","","","null","40","","","","","","","","","","","","","","","",""
"","time_out","","html-keyboard-response","271","305879","0.0-1.0-368.0-0.0","0","0","53685","","null","","","null","40","","","","","","","","","","","","","","","",""
"","ITI","","html-keyboard-response","272","306882","0.0-1.0-369.0","0","0","53685","","null","","","null","40","","","","","","","","","","","","","","","NaN",""
"","S1","","html-keyboard-response","273","307134","0.0-1.0-371.0","0","0","53685","","null","","","null","41","","","","","","","","","","","","","","","",""
"","ISI","","html-keyboard-response","274","307286","0.0-1.0-372.0","0","0","53685","","null","","","null","41","NaN","","","","","","","","","","","","","","",""
"","S2","","html-keyboard-response","275","307538","0.0-1.0-373.0","0","0","53685","","null","","","null","41","","NaN","","","","","","","","","","","","","",""
"","response","","html-keyboard-response","276","308173","0.0-1.0-374.0-0.0","0","0","53685","","634","","","75","41","","","1","41","training","adjacent","FG","6","7","R.jpg","L.jpg","1","1","1","",""
"","feedback","","html-keyboard-response","277","309175","0.0-1.0-375.0-0.0","0","0","53685","","null","","","null","41","","","","","","","","","","","","","","","",""
"","ITI","","html-keyboard-response","278","310177","0.0-1.0-378.0","0","0","53685","","null","","","null","41","","","","","","","","","","","","","","","NaN",""
"","S1","","html-keyboard-response","279","310429","0.0-1.0-380.0","0","0","53685","","null","","","null","42","","","","","","","","","","","","","","","",""
"","ISI","","html-keyboard-response","280","310582","0.0-1.0-381.0","0","0","53685","","null","","","null","42","NaN","","","","","","","","","","","","","","",""
"","S2","","html-keyboard-response","281","310834","0.0-1.0-382.0","0","0","53685","","null","","","null","42","","NaN","","","","","","","","","","","","","",""
"","response","","html-keyboard-response","282","311523","0.0-1.0-383.0-0.0","0","0","53685","","686","","","75","42","","","1","42","training","adjacent","AB","1","2","M.jpg","Q.jpg","1","1","1","",""
"","feedback","","html-keyboard-response","283","312526","0.0-1.0-384.0-0.0","0","0","53685","","null","","","null","42","","","","","","","","","","","","","","","",""
"","ITI","","html-keyboard-response","284","313528","0.0-1.0-387.0","0","0","53685","","null","","","null","42","","","","","","","","","","","","","","","NaN",""
"","S1","","html-keyboard-response","285","313781","0.0-1.0-389.0","0","0","53685","","null","","","null","43","","","","","","","","","","","","","","","",""
"","ISI","","html-keyboard-response","286","313933","0.0-1.0-390.0","0","0","53685","","null","","","null","43","NaN","","","","","","","","","","","","","","",""
"","S2","","html-keyboard-response","287","314186","0.0-1.0-391.0","0","0","53685","","null","","","null","43","","NaN","","","","","","","","","","","","","",""
"","response","","html-keyboard-response","288","314929","0.0-1.0-392.0-0.0","0","0","53685","","742","","","75","43","","","1","43","training","adjacent","DE","4","5","N.jpg","P.jpg","1","1","1","",""
"","feedback","","html-keyboard-response","289","315932","0.0-1.0-393.0-0.0","0","0","53685","","null","","","null","43","","","","","","","","","","","","","","","",""
"","ITI","","html-keyboard-response","290","316935","0.0-1.0-396.0","0","0","53685","","null","","","null","43","","","","","","","","","","","","","","","NaN",""
"","S1","","html-keyboard-response","291","317187","0.0-1.0-398.0","0","0","53685","","null","","","null","44","","","","","","","","","","","","","","","",""
"","ISI","","html-keyboard-response","292","317340","0.0-1.0-399.0","0","0","53685","","null","","","null","44","NaN","","","","","","","","","","","","","","",""
"","S2","","html-keyboard-response","293","317592","0.0-1.0-400.0","0","0","53685","","null","","","null","44","","NaN","","","","","","","","","","","","","",""
"","response","","html-keyboard-response","294","318183","0.0-1.0-401.0-0.0","0","0","53685","","589","","","68","44","","","1","44","training","adjacent","CB","3","2","O.jpg","Q.jpg","0","0","1","",""
"","feedback","","html-keyboard-response","295","319186","0.0-1.0-402.0-0.0","0","0","53685","","null","","","null","44","","","","","","","","","","","","","","","",""
"","ITI","","html-keyboard-response","296","320188","0.0-1.0-405.0","0","0","53685","","null","","","null","44","","","","","","","","","","","","","","","NaN",""
"","S1","","html-keyboard-response","297","320440","0.0-1.0-407.0","0","0","53685","","null","","","null","45","","","","","","","","","","","","","","","",""
"","ISI","","html-keyboard-response","298","320592","0.0-1.0-408.0","0","0","53685","","null","","","null","45","NaN","","","","","","","","","","","","","","",""
"","S2","","html-keyboard-response","299","320844","0.0-1.0-409.0","0","0","53685","","null","","","null","45","","NaN","","","","","","","","","","","","","",""
"","response","","html-keyboard-response","300","321713","0.0-1.0-410.0-0.0","0","0","53685","","867","","","75","45","","","1","45","training","adjacent","BC","2","3","Q.jpg","O.jpg","1","1","1","",""
"","feedback","","html-keyboard-response","301","322715","0.0-1.0-411.0-0.0","0","0","53685","","null","","","null","45","","","","","","","","","","","","","","","",""
"","ITI","","html-keyboard-response","302","323717","0.0-1.0-414.0","0","0","53685","","null","","","null","45","","","","","","","","","","","","","","","NaN",""
"","S1","","html-keyboard-response","303","323969","0.0-1.0-416.0","0","0","53685","","null","","","null","46","","","","","","","","","","","","","","","",""
"","ISI","","html-keyboard-response","304","324121","0.0-1.0-417.0","0","0","53685","","null","","","null","46","NaN","","","","","","","","","","","","","","",""
"","S2","","html-keyboard-response","305","324373","0.0-1.0-418.0","0","0","53685","","null","","","null","46","","NaN","","","","","","","","","","","","","",""
"","response","","html-keyboard-response","306","325011","0.0-1.0-419.0-0.0","0","0","53685","","637","","","68","46","","","1","46","training","adjacent","ED","5","4","P.jpg","N.jpg","0","0","1","",""
"","feedback","","html-keyboard-response","307","326014","0.0-1.0-420.0-0.0","0","0","53685","","null","","","null","46","","","","","","","","","","","","","","","",""
"","ITI","","html-keyboard-response","308","327016","0.0-1.0-423.0","0","0","53685","","null","","","null","46","","","","","","","","","","","","","","","NaN",""
"","S1","","html-keyboard-response","309","327268","0.0-1.0-425.0","0","0","53685","","null","","","null","47","","","","","","","","","","","","","","","",""
"","ISI","","html-keyboard-response","310","327421","0.0-1.0-426.0","0","0","53685","","null","","","null","47","NaN","","","","","","","","","","","","","","",""
"","S2","","html-keyboard-response","311","327673","0.0-1.0-427.0","0","0","53685","","null","","","null","47","","NaN","","","","","","","","","","","","","",""
"","response","","html-keyboard-response","312","328593","0.0-1.0-428.0-0.0","0","0","53685","","919","","","68","47","","","1","47","training","adjacent","CD","3","4","O.jpg","N.jpg","0","1","0","",""
"","feedback","","html-keyboard-response","313","329596","0.0-1.0-429.0-0.0","0","0","53685","","null","","","null","47","","","","","","","","","","","","","","","",""
"","time_out","","html-keyboard-response","314","331598","0.0-1.0-431.0-0.0","0","0","53685","","null","","","null","47","","","","","","","","","","","","","","","",""
"","ITI","","html-keyboard-response","315","332601","0.0-1.0-432.0","0","0","53685","","null","","","null","47","","","","","","","","","","","","","","","NaN",""
"","block_over","","html-keyboard-response","316","338249","0.0-1.0-433.0-0.0","0","0","53685","","5646","","","32","47","","","","","","","","","","","","","","","",""
"","S1","","html-keyboard-response","317","338501","0.0-1.0-434.0","0","0","53685","","null","","","null","48","","","","","","","","","","","","","","","",""
"","ISI","","html-keyboard-response","318","338653","0.0-1.0-435.0","0","0","53685","","null","","","null","48","NaN","","","","","","","","","","","","","","",""
"","S2","","html-keyboard-response","319","338905","0.0-1.0-436.0","0","0","53685","","null","","","null","48","","NaN","","","","","","","","","","","","","",""
"","response","","html-keyboard-response","320","339400","0.0-1.0-437.0-0.0","0","0","53685","","493","","","75","48","","","2","48","training","adjacent","AB","1","2","M.jpg","Q.jpg","1","1","1","",""
"","feedback","","html-keyboard-response","321","340402","0.0-1.0-438.0-0.0","0","0","53685","","null","","","null","48","","","","","","","","","","","","","","","",""
"","ITI","","html-keyboard-response","322","341405","0.0-1.0-441.0","0","0","53685","","null","","","null","48","","","","","","","","","","","","","","","NaN",""
"","S1","","html-keyboard-response","323","341657","0.0-1.0-443.0","0","0","53685","","null","","","null","49","","","","","","","","","","","","","","","",""
"","ISI","","html-keyboard-response","324","341809","0.0-1.0-444.0","0","0","53685","","null","","","null","49","NaN","","","","","","","","","","","","","","",""
"","S2","","html-keyboard-response","325","342062","0.0-1.0-445.0","0","0","53685","","null","","","null","49","","NaN","","","","","","","","","","","","","",""
"","response","","html-keyboard-response","326","342576","0.0-1.0-446.0-0.0","0","0","53685","","513","","","75","49","","","2","49","training","adjacent","EF","5","6","P.jpg","R.jpg","1","1","1","",""
"","feedback","","html-keyboard-response","327","343579","0.0-1.0-447.0-0.0","0","0","53685","","null","","","null","49","","","","","","","","","","","","","","","",""
"","ITI","","html-keyboard-response","328","344581","0.0-1.0-450.0","0","0","53685","","null","","","null","49","","","","","","","","","","","","","","","NaN",""
"","S1","","html-keyboard-response","329","344833","0.0-1.0-452.0","0","0","53685","","null","","","null","50","","","","","","","","","","","","","","","",""
"","ISI","","html-keyboard-response","330","344985","0.0-1.0-453.0","0","0","53685","","null","","","null","50","NaN","","","","","","","","","","","","","","",""
"","S2","","html-keyboard-response","331","345238","0.0-1.0-454.0","0","0","53685","","null","","","null","50","","NaN","","","","","","","","","","","","","",""
"","response","","html-keyboard-response","332","346714","0.0-1.0-455.0-0.0","0","0","53685","","1475","","","75","50","","","2","50","training","adjacent","BC","2","3","Q.jpg","O.jpg","1","1","1","",""
"","feedback","","html-keyboard-response","333","347717","0.0-1.0-456.0-0.0","0","0","53685","","null","","","null","50","","","","","","","","","","","","","","","",""
"","ITI","","html-keyboard-response","334","348719","0.0-1.0-459.0","0","0","53685","","null","","","null","50","","","","","","","","","","","","","","","NaN",""
"","S1","","html-keyboard-response","335","348971","0.0-1.0-461.0","0","0","53685","","null","","","null","51","","","","","","","","","","","","","","","",""
"","ISI","","html-keyboard-response","336","349123","0.0-1.0-462.0","0","0","53685","","null","","","null","51","NaN","","","","","","","","","","","","","","",""
"","S2","","html-keyboard-response","337","349376","0.0-1.0-463.0","0","0","53685","","null","","","null","51","","NaN","","","","","","","","","","","","","",""
"","response","","html-keyboard-response","338","349937","0.0-1.0-464.0-0.0","0","0","53685","","559","","","68","51","","","2","51","training","adjacent","ED","5","4","P.jpg","N.jpg","0","0","1","",""
"","feedback","","html-keyboard-response","339","350939","0.0-1.0-465.0-0.0","0","0","53685","","null","","","null","51","","","","","","","","","","","","","","","",""
"","ITI","","html-keyboard-response","340","351942","0.0-1.0-468.0","0","0","53685","","null","","","null","51","","","","","","","","","","","","","","","NaN",""
"","S1","","html-keyboard-response","341","352195","0.0-1.0-470.0","0","0","53685","","null","","","null","52","","","","","","","","","","","","","","","",""
"","ISI","","html-keyboard-response","342","352347","0.0-1.0-471.0","0","0","53685","","null","","","null","52","NaN","","","","","","","","","","","","","","",""
"","S2","","html-keyboard-response","343","352599","0.0-1.0-472.0","0","0","53685","","null","","","null","52","","NaN","","","","","","","","","","","","","",""
"","response","","html-keyboard-response","344","353155","0.0-1.0-473.0-0.0","0","0","53685","","554","","","68","52","","","2","52","training","adjacent","GF","7","6","L.jpg","R.jpg","0","0","1","",""
"","feedback","","html-keyboard-response","345","354157","0.0-1.0-474.0-0.0","0","0","53685","","null","","","null","52","","","","","","","","","","","","","","","",""
"","ITI","","html-keyboard-response","346","355160","0.0-1.0-477.0","0","0","53685","","null","","","null","52","","","","","","","","","","","","","","","NaN",""
"","S1","","html-keyboard-response","347","355412","0.0-1.0-479.0","0","0","53685","","null","","","null","53","","","","","","","","","","","","","","","",""
"","ISI","","html-keyboard-response","348","355565","0.0-1.0-480.0","0","0","53685","","null","","","null","53","NaN","","","","","","","","","","","","","","",""
"","S2","","html-keyboard-response","349","355818","0.0-1.0-481.0","0","0","53685","","null","","","null","53","","NaN","","","","","","","","","","","","","",""
"","response","","html-keyboard-response","350","356321","0.0-1.0-482.0-0.0","0","0","53685","","501","","","75","53","","","2","53","training","adjacent","FE","6","5","R.jpg","P.jpg","1","0","0","",""
"","feedback","","html-keyboard-response","351","357323","0.0-1.0-483.0-0.0","0","0","53685","","null","","","null","53","","","","","","","","","","","","","","","",""
"","time_out","","html-keyboard-response","352","359325","0.0-1.0-485.0-0.0","0","0","53685","","null","","","null","53","","","","","","","","","","","","","","","",""
"","ITI","","html-keyboard-response","353","360328","0.0-1.0-486.0","0","0","53685","","null","","","null","53","","","","","","","","","","","","","","","NaN",""
"","S1","","html-keyboard-response","354","360581","0.0-1.0-488.0","0","0","53685","","null","","","null","54","","","","","","","","","","","","","","","",""
"","ISI","","html-keyboard-response","355","360733","0.0-1.0-489.0","0","0","53685","","null","","","null","54","NaN","","","","","","","","","","","","","","",""
"","S2","","html-keyboard-response","356","360985","0.0-1.0-490.0","0","0","53685","","null","","","null","54","","NaN","","","","","","","","","","","","","",""
"","response","","html-keyboard-response","357","362105","0.0-1.0-491.0-0.0","0","0","53685","","1117","","","75","54","","","2","54","training","adjacent","DE","4","5","N.jpg","P.jpg","1","1","1","",""
"","feedback","","html-keyboard-response","358","363107","0.0-1.0-492.0-0.0","0","0","53685","","null","","","null","54","","","","","","","","","","","","","","","",""
"","ITI","","html-keyboard-response","359","364110","0.0-1.0-495.0","0","0","53685","","null","","","null","54","","","","","","","","","","","","","","","NaN",""
"","S1","","html-keyboard-response","360","364363","0.0-1.0-497.0","0","0","53685","","null","","","null","55","","","","","","","","","","","","","","","",""
"","ISI","","html-keyboard-response","361","364516","0.0-1.0-498.0","0","0","53685","","null","","","null","55","NaN","","","","","","","","","","","","","","",""
"","S2","","html-keyboard-response","362","364768","0.0-1.0-499.0","0","0","53685","","null","","","null","55","","NaN","","","","","","","","","","","","","",""
"","response","","html-keyboard-response","363","365254","0.0-1.0-500.0-0.0","0","0","53685","","484","","","75","55","","","2","55","training","adjacent","FG","6","7","R.jpg","L.jpg","1","1","1","",""
"","feedback","","html-keyboard-response","364","366256","0.0-1.0-501.0-0.0","0","0","53685","","null","","","null","55","","","","","","","","","","","","","","","",""
"","ITI","","html-keyboard-response","365","367259","0.0-1.0-504.0","0","0","53685","","null","","","null","55","","","","","","","","","","","","","","","NaN",""
"","S1","","html-keyboard-response","366","367512","0.0-1.0-506.0","0","0","53685","","null","","","null","56","","","","","","","","","","","","","","","",""
"","ISI","","html-keyboard-response","367","367664","0.0-1.0-507.0","0","0","53685","","null","","","null","56","NaN","","","","","","","","","","","","","","",""
"","S2","","html-keyboard-response","368","367916","0.0-1.0-508.0","0","0","53685","","null","","","null","56","","NaN","","","","","","","","","","","","","",""
"","response","","html-keyboard-response","369","368440","0.0-1.0-509.0-0.0","0","0","53685","","523","","","68","56","","","2","56","training","adjacent","ED","5","4","P.jpg","N.jpg","0","0","1","",""
"","feedback","","html-keyboard-response","370","369443","0.0-1.0-510.0-0.0","0","0","53685","","null","","","null","56","","","","","","","","","","","","","","","",""
"","ITI","","html-keyboard-response","371","370446","0.0-1.0-513.0","0","0","53685","","null","","","null","56","","","","","","","","","","","","","","","NaN",""
"","S1","","html-keyboard-response","372","370697","0.0-1.0-515.0","0","0","53685","","null","","","null","57","","","","","","","","","","","","","","","",""
"","ISI","","html-keyboard-response","373","370850","0.0-1.0-516.0","0","0","53685","","null","","","null","57","NaN","","","","","","","","","","","","","","",""
"","S2","","html-keyboard-response","374","371104","0.0-1.0-517.0","0","0","53685","","null","","","null","57","","NaN","","","","","","","","","","","","","",""
"","response","","html-keyboard-response","375","371855","0.0-1.0-518.0-0.0","0","0","53685","","749","","","75","57","","","2","57","training","adjacent","BC","2","3","Q.jpg","O.jpg","1","1","1","",""
"","feedback","","html-keyboard-response","376","372857","0.0-1.0-519.0-0.0","0","0","53685","","null","","","null","57","","","","","","","","","","","","","","","",""
"","ITI","","html-keyboard-response","377","373860","0.0-1.0-522.0","0","0","53685","","null","","","null","57","","","","","","","","","","","","","","","NaN",""
"","S1","","html-keyboard-response","378","374112","0.0-1.0-524.0","0","0","53685","","null","","","null","58","","","","","","","","","","","","","","","",""
"","ISI","","html-keyboard-response","379","374264","0.0-1.0-525.0","0","0","53685","","null","","","null","58","NaN","","","","","","","","","","","","","","",""
"","S2","","html-keyboard-response","380","374515","0.0-1.0-526.0","0","0","53685","","null","","","null","58","","NaN","","","","","","","","","","","","","",""
"","response","","html-keyboard-response","381","375197","0.0-1.0-527.0-0.0","0","0","53685","","679","","","75","58","","","2","58","training","adjacent","DE","4","5","N.jpg","P.jpg","1","1","1","",""
"","feedback","","html-keyboard-response","382","376199","0.0-1.0-528.0-0.0","0","0","53685","","null","","","null","58","","","","","","","","","","","","","","","",""
"","ITI","","html-keyboard-response","383","377202","0.0-1.0-531.0","0","0","53685","","null","","","null","58","","","","","","","","","","","","","","","NaN",""
"","S1","","html-keyboard-response","384","377454","0.0-1.0-533.0","0","0","53685","","null","","","null","59","","","","","","","","","","","","","","","",""
"","ISI","","html-keyboard-response","385","377606","0.0-1.0-534.0","0","0","53685","","null","","","null","59","NaN","","","","","","","","","","","","","","",""
"","S2","","html-keyboard-response","386","377857","0.0-1.0-535.0","0","0","53685","","null","","","null","59","","NaN","","","","","","","","","","","","","",""
"","response","","html-keyboard-response","387","378585","0.0-1.0-536.0-0.0","0","0","53685","","726","","","75","59","","","2","59","training","adjacent","BA","2","1","Q.jpg","M.jpg","1","0","0","",""
"","feedback","","html-keyboard-response","388","379587","0.0-1.0-537.0-0.0","0","0","53685","","null","","","null","59","","","","","","","","","","","","","","","",""
"","time_out","","html-keyboard-response","389","381589","0.0-1.0-539.0-0.0","0","0","53685","","null","","","null","59","","","","","","","","","","","","","","","",""
"","ITI","","html-keyboard-response","390","382592","0.0-1.0-540.0","0","0","53685","","null","","","null","59","","","","","","","","","","","","","","","NaN",""
"","S1","","html-keyboard-response","391","382843","0.0-1.0-542.0","0","0","53685","","null","","","null","60","","","","","","","","","","","","","","","",""
"","ISI","","html-keyboard-response","392","382995","0.0-1.0-543.0","0","0","53685","","null","","","null","60","NaN","","","","","","","","","","","","","","",""
"","S2","","html-keyboard-response","393","383248","0.0-1.0-544.0","0","0","53685","","null","","","null","60","","NaN","","","","","","","","","","","","","",""
"","response","","html-keyboard-response","394","383687","0.0-1.0-545.0-0.0","0","0","53685","","438","","","68","60","","","2","60","training","adjacent","CD","3","4","O.jpg","N.jpg","0","1","0","",""
"","feedback","","html-keyboard-response","395","384689","0.0-1.0-546.0-0.0","0","0","53685","","null","","","null","60","","","","","","","","","","","","","","","",""
"","time_out","","html-keyboard-response","396","386691","0.0-1.0-548.0-0.0","0","0","53685","","null","","","null","60","","","","","","","","","","","","","","","",""
"","ITI","","html-keyboard-response","397","387694","0.0-1.0-549.0","0","0","53685","","null","","","null","60","","","","","","","","","","","","","","","NaN",""
"","S1","","html-keyboard-response","398","387945","0.0-1.0-551.0","0","0","53685","","null","","","null","61","","","","","","","","","","","","","","","",""
"","ISI","","html-keyboard-response","399","388097","0.0-1.0-552.0","0","0","53685","","null","","","null","61","NaN","","","","","","","","","","","","","","",""
"","S2","","html-keyboard-response","400","388349","0.0-1.0-553.0","0","0","53685","","null","","","null","61","","NaN","","","","","","","","","","","","","",""
"","response","","html-keyboard-response","401","388906","0.0-1.0-554.0-0.0","0","0","53685","","555","","","75","61","","","2","61","training","adjacent","AB","1","2","M.jpg","Q.jpg","1","1","1","",""
"","feedback","","html-keyboard-response","402","389908","0.0-1.0-555.0-0.0","0","0","53685","","null","","","null","61","","","","","","","","","","","","","","","",""
"","ITI","","html-keyboard-response","403","390911","0.0-1.0-558.0","0","0","53685","","null","","","null","61","","","","","","","","","","","","","","","NaN",""
"","S1","","html-keyboard-response","404","391163","0.0-1.0-560.0","0","0","53685","","null","","","null","62","","","","","","","","","","","","","","","",""
"","ISI","","html-keyboard-response","405","391316","0.0-1.0-561.0","0","0","53685","","null","","","null","62","NaN","","","","","","","","","","","","","","",""
"","S2","","html-keyboard-response","406","391567","0.0-1.0-562.0","0","0","53685","","null","","","null","62","","NaN","","","","","","","","","","","","","",""
"","response","","html-keyboard-response","407","392185","0.0-1.0-563.0-0.0","0","0","53685","","616","","","75","62","","","2","62","training","adjacent","BC","2","3","Q.jpg","O.jpg","1","1","1","",""
"","feedback","","html-keyboard-response","408","393188","0.0-1.0-564.0-0.0","0","0","53685","","null","","","null","62","","","","","","","","","","","","","","","",""
"","ITI","","html-keyboard-response","409","394190","0.0-1.0-567.0","0","0","53685","","null","","","null","62","","","","","","","","","","","","","","","NaN",""
"","S1","","html-keyboard-response","410","394442","0.0-1.0-569.0","0","0","53685","","null","","","null","63","","","","","","","","","","","","","","","",""
"","ISI","","html-keyboard-response","411","394594","0.0-1.0-570.0","0","0","53685","","null","","","null","63","NaN","","","","","","","","","","","","","","",""
"","S2","","html-keyboard-response","412","394846","0.0-1.0-571.0","0","0","53685","","null","","","null","63","","NaN","","","","","","","","","","","","","",""
"","response","","html-keyboard-response","413","395263","0.0-1.0-572.0-0.0","0","0","53685","","416","","","75","63","","","2","63","training","adjacent","AB","1","2","M.jpg","Q.jpg","1","1","1","",""
"","feedback","","html-keyboard-response","414","396265","0.0-1.0-573.0-0.0","0","0","53685","","null","","","null","63","","","","","","","","","","","","","","","",""
"","ITI","","html-keyboard-response","415","397267","0.0-1.0-576.0","0","0","53685","","null","","","null","63","","","","","","","","","","","","","","","NaN",""
"","S1","","html-keyboard-response","416","397519","0.0-1.0-578.0","0","0","53685","","null","","","null","64","","","","","","","","","","","","","","","",""
"","ISI","","html-keyboard-response","417","397671","0.0-1.0-579.0","0","0","53685","","null","","","null","64","NaN","","","","","","","","","","","","","","",""
"","S2","","html-keyboard-response","418","397924","0.0-1.0-580.0","0","0","53685","","null","","","null","64","","NaN","","","","","","","","","","","","","",""
"","response","","html-keyboard-response","419","398510","0.0-1.0-581.0-0.0","0","0","53685","","585","","","75","64","","","2","64","training","adjacent","CB","3","2","O.jpg","Q.jpg","1","0","0","",""
"","feedback","","html-keyboard-response","420","399512","0.0-1.0-582.0-0.0","0","0","53685","","null","","","null","64","","","","","","","","","","","","","","","",""
"","time_out","","html-keyboard-response","421","401514","0.0-1.0-584.0-0.0","0","0","53685","","null","","","null","64","","","","","","","","","","","","","","","",""
"","ITI","","html-keyboard-response","422","402516","0.0-1.0-585.0","0","0","53685","","null","","","null","64","","","","","","","","","","","","","","","NaN",""
"","S1","","html-keyboard-response","423","402768","0.0-1.0-587.0","0","0","53685","","null","","","null","65","","","","","","","","","","","","","","","",""
"","ISI","","html-keyboard-response","424","402921","0.0-1.0-588.0","0","0","53685","","null","","","null","65","NaN","","","","","","","","","","","","","","",""
"","S2","","html-keyboard-response","425","403178","0.0-1.0-589.0","0","0","53685","","null","","","null","65","","NaN","","","","","","","","","","","","","",""
"","response","","html-keyboard-response","426","403585","0.0-1.0-590.0-0.0","0","0","53685","","405","","","68","65","","","2","65","training","adjacent","EF","5","6","P.jpg","R.jpg","0","1","0","",""
"","feedback","","html-keyboard-response","427","404588","0.0-1.0-591.0-0.0","0","0","53685","","null","","","null","65","","","","","","","","","","","","","","","",""
"","time_out","","html-keyboard-response","428","406590","0.0-1.0-593.0-0.0","0","0","53685","","null","","","null","65","","","","","","","","","","","","","","","",""
"","ITI","","html-keyboard-response","429","407593","0.0-1.0-594.0","0","0","53685","","null","","","null","65","","","","","","","","","","","","","","","NaN",""
"","S1","","html-keyboard-response","430","407845","0.0-1.0-596.0","0","0","53685","","null","","","null","66","","","","","","","","","","","","","","","",""
"","ISI","","html-keyboard-response","431","407997","0.0-1.0-597.0","0","0","53685","","null","","","null","66","NaN","","","","","","","","","","","","","","",""
"","S2","","html-keyboard-response","432","408249","0.0-1.0-598.0","0","0","53685","","null","","","null","66","","NaN","","","","","","","","","","","","","",""
"","response","","html-keyboard-response","433","408508","0.0-1.0-599.0-0.0","0","0","53685","","257","","","68","66","","","2","66","training","adjacent","GF","7","6","L.jpg","R.jpg","0","0","1","",""
"","feedback","","html-keyboard-response","434","409512","0.0-1.0-600.0-0.0","0","0","53685","","null","","","null","66","","","","","","","","","","","","","","","",""
"","ITI","","html-keyboard-response","435","410514","0.0-1.0-603.0","0","0","53685","","null","","","null","66","","","","","","","","","","","","","","","NaN",""
"","S1","","html-keyboard-response","436","410767","0.0-1.0-605.0","0","0","53685","","null","","","null","67","","","","","","","","","","","","","","","",""
"","ISI","","html-keyboard-response","437","410919","0.0-1.0-606.0","0","0","53685","","null","","","null","67","NaN","","","","","","","","","","","","","","",""
"","S2","","html-keyboard-response","438","411172","0.0-1.0-607.0","0","0","53685","","null","","","null","67","","NaN","","","","","","","","","","","","","",""
"","response","","html-keyboard-response","439","411587","0.0-1.0-608.0-0.0","0","0","53685","","412","","","68","67","","","2","67","training","adjacent","BA","2","1","Q.jpg","M.jpg","0","0","1","",""
"","feedback","","html-keyboard-response","440","412589","0.0-1.0-609.0-0.0","0","0","53685","","null","","","null","67","","","","","","","","","","","","","","","",""
"","ITI","","html-keyboard-response","441","413591","0.0-1.0-612.0","0","0","53685","","null","","","null","67","","","","","","","","","","","","","","","NaN",""
"","S1","","html-keyboard-response","442","413843","0.0-1.0-614.0","0","0","53685","","null","","","null","68","","","","","","","","","","","","","","","",""
"","ISI","","html-keyboard-response","443","413995","0.0-1.0-615.0","0","0","53685","","null","","","null","68","NaN","","","","","","","","","","","","","","",""
"","S2","","html-keyboard-response","444","414247","0.0-1.0-616.0","0","0","53685","","null","","","null","68","","NaN","","","","","","","","","","","","","",""
"","response","","html-keyboard-response","445","414691","0.0-1.0-617.0-0.0","0","0","53685","","442","","","75","68","","","2","68","training","adjacent","DC","4","3","N.jpg","O.jpg","1","0","0","",""
"","feedback","","html-keyboard-response","446","415694","0.0-1.0-618.0-0.0","0","0","53685","","null","","","null","68","","","","","","","","","","","","","","","",""
"","time_out","","html-keyboard-response","447","417695","0.0-1.0-620.0-0.0","0","0","53685","","null","","","null","68","","","","","","","","","","","","","","","",""
"","ITI","","html-keyboard-response","448","418698","0.0-1.0-621.0","0","0","53685","","null","","","null","68","","","","","","","","","","","","","","","NaN",""
"","S1","","html-keyboard-response","449","418950","0.0-1.0-623.0","0","0","53685","","null","","","null","69","","","","","","","","","","","","","","","",""
"","ISI","","html-keyboard-response","450","419102","0.0-1.0-624.0","0","0","53685","","null","","","null","69","NaN","","","","","","","","","","","","","","",""
"","S2","","html-keyboard-response","451","419354","0.0-1.0-625.0","0","0","53685","","null","","","null","69","","NaN","","","","","","","","","","","","","",""
"","response","","html-keyboard-response","452","419769","0.0-1.0-626.0-0.0","0","0","53685","","413","","","68","69","","","2","69","training","adjacent","GF","7","6","L.jpg","R.jpg","0","0","1","",""
"","feedback","","html-keyboard-response","453","420772","0.0-1.0-627.0-0.0","0","0","53685","","null","","","null","69","","","","","","","","","","","","","","","",""
"","ITI","","html-keyboard-response","454","421774","0.0-1.0-630.0","0","0","53685","","null","","","null","69","","","","","","","","","","","","","","","NaN",""
"","S1","","html-keyboard-response","455","422028","0.0-1.0-632.0","0","0","53685","","null","","","null","70","","","","","","","","","","","","","","","",""
"","ISI","","html-keyboard-response","456","422181","0.0-1.0-633.0","0","0","53685","","null","","","null","70","NaN","","","","","","","","","","","","","","",""
"","S2","","html-keyboard-response","457","422433","0.0-1.0-634.0","0","0","53685","","null","","","null","70","","NaN","","","","","","","","","","","","","",""
"","response","","html-keyboard-response","458","422907","0.0-1.0-635.0-0.0","0","0","53685","","473","","","75","70","","","2","70","training","adjacent","FE","6","5","R.jpg","P.jpg","1","0","0","",""
"","feedback","","html-keyboard-response","459","423909","0.0-1.0-636.0-0.0","0","0","53685","","null","","","null","70","","","","","","","","","","","","","","","",""
"","time_out","","html-keyboard-response","460","425912","0.0-1.0-638.0-0.0","0","0","53685","","null","","","null","70","","","","","","","","","","","","","","","",""
"","ITI","","html-keyboard-response","461","426914","0.0-1.0-639.0","0","0","53685","","null","","","null","70","","","","","","","","","","","","","","","NaN",""
"","S1","","html-keyboard-response","462","427167","0.0-1.0-641.0","0","0","53685","","null","","","null","71","","","","","","","","","","","","","","","",""
"","ISI","","html-keyboard-response","463","427318","0.0-1.0-642.0","0","0","53685","","null","","","null","71","NaN","","","","","","","","","","","","","","",""
"","S2","","html-keyboard-response","464","427571","0.0-1.0-643.0","0","0","53685","","null","","","null","71","","NaN","","","","","","","","","","","","","",""
"","response","","html-keyboard-response","465","428019","0.0-1.0-644.0-0.0","0","0","53685","","445","","","68","71","","","2","71","training","adjacent","DE","4","5","N.jpg","P.jpg","0","1","0","",""
"","feedback","","html-keyboard-response","466","429023","0.0-1.0-645.0-0.0","0","0","53685","","null","","","null","71","","","","","","","","","","","","","","","",""
"","time_out","","html-keyboard-response","467","431025","0.0-1.0-647.0-0.0","0","0","53685","","null","","","null","71","","","","","","","","","","","","","","","",""
"","ITI","","html-keyboard-response","468","432029","0.0-1.0-648.0","0","0","53685","","null","","","null","71","","","","","","","","","","","","","","","NaN",""
"","S1","","html-keyboard-response","469","432281","0.0-1.0-650.0","0","0","53685","","null","","","null","72","","","","","","","","","","","","","","","",""
"","ISI","","html-keyboard-response","470","432433","0.0-1.0-651.0","0","0","53685","","null","","","null","72","NaN","","","","","","","","","","","","","","",""
"","S2","","html-keyboard-response","471","432685","0.0-1.0-652.0","0","0","53685","","null","","","null","72","","NaN","","","","","","","","","","","","","",""
"","response","","html-keyboard-response","472","433324","0.0-1.0-653.0-0.0","0","0","53685","","637","","","68","72","","","2","72","training","adjacent","EF","5","6","P.jpg","R.jpg","0","1","0","",""
"","feedback","","html-keyboard-response","473","434327","0.0-1.0-654.0-0.0","0","0","53685","","null","","","null","72","","","","","","","","","","","","","","","",""
"","time_out","","html-keyboard-response","474","436329","0.0-1.0-656.0-0.0","0","0","53685","","null","","","null","72","","","","","","","","","","","","","","","",""
"","ITI","","html-keyboard-response","475","437331","0.0-1.0-657.0","0","0","53685","","null","","","null","72","","","","","","","","","","","","","","","NaN",""
"","S1","","html-keyboard-response","476","437583","0.0-1.0-659.0","0","0","53685","","null","","","null","73","","","","","","","","","","","","","","","",""
"","ISI","","html-keyboard-response","477","437735","0.0-1.0-660.0","0","0","53685","","null","","","null","73","NaN","","","","","","","","","","","","","","",""
"","S2","","html-keyboard-response","478","437988","0.0-1.0-661.0","0","0","53685","","null","","","null","73","","NaN","","","","","","","","","","","","","",""
"","response","","html-keyboard-response","479","438405","0.0-1.0-662.0-0.0","0","0","53685","","415","","","75","73","","","2","73","training","adjacent","CB","3","2","O.jpg","Q.jpg","1","0","0","",""
"","feedback","","html-keyboard-response","480","439407","0.0-1.0-663.0-0.0","0","0","53685","","null","","","null","73","","","","","","","","","","","","","","","",""
"","time_out","","html-keyboard-response","481","441410","0.0-1.0-665.0-0.0","0","0","53685","","null","","","null","73","","","","","","","","","","","","","","","",""
"","ITI","","html-keyboard-response","482","442413","0.0-1.0-666.0","0","0","53685","","null","","","null","73","","","","","","","","","","","","","","","NaN",""
"","S1","","html-keyboard-response","483","442667","0.0-1.0-668.0","0","0","53685","","null","","","null","74","","","","","","","","","","","","","","","",""
"","ISI","","html-keyboard-response","484","442821","0.0-1.0-669.0","0","0","53685","","null","","","null","74","NaN","","","","","","","","","","","","","","",""
"","S2","","html-keyboard-response","485","443076","0.0-1.0-670.0","0","0","53685","","null","","","null","74","","NaN","","","","","","","","","","","","","",""
"","response","","html-keyboard-response","486","443672","0.0-1.0-671.0-0.0","0","0","53685","","594","","","75","74","","","2","74","training","adjacent","ED","5","4","P.jpg","N.jpg","1","0","0","",""
"","feedback","","html-keyboard-response","487","444676","0.0-1.0-672.0-0.0","0","0","53685","","null","","","null","74","","","","","","","","","","","","","","","",""
"","time_out","","html-keyboard-response","488","446678","0.0-1.0-674.0-0.0","0","0","53685","","null","","","null","74","","","","","","","","","","","","","","","",""
"","ITI","","html-keyboard-response","489","447680","0.0-1.0-675.0","0","0","53685","","null","","","null","74","","","","","","","","","","","","","","","NaN",""
"","S1","","html-keyboard-response","490","447934","0.0-1.0-677.0","0","0","53685","","null","","","null","75","","","","","","","","","","","","","","","",""
"","ISI","","html-keyboard-response","491","448086","0.0-1.0-678.0","0","0","53685","","null","","","null","75","NaN","","","","","","","","","","","","","","",""
"","S2","","html-keyboard-response","492","448340","0.0-1.0-679.0","0","0","53685","","null","","","null","75","","NaN","","","","","","","","","","","","","",""
"","response","","html-keyboard-response","493","448962","0.0-1.0-680.0-0.0","0","0","53685","","620","","","75","75","","","2","75","training","adjacent","DC","4","3","N.jpg","O.jpg","1","0","0","",""
"","feedback","","html-keyboard-response","494","449965","0.0-1.0-681.0-0.0","0","0","53685","","null","","","null","75","","","","","","","","","","","","","","","",""
"","time_out","","html-keyboard-response","495","451967","0.0-1.0-683.0-0.0","0","0","53685","","null","","","null","75","","","","","","","","","","","","","","","",""
"","ITI","","html-keyboard-response","496","452969","0.0-1.0-684.0","0","0","53685","","null","","","null","75","","","","","","","","","","","","","","","NaN",""
"","S1","","html-keyboard-response","497","453221","0.0-1.0-686.0","0","0","53685","","null","","","null","76","","","","","","","","","","","","","","","",""
"","ISI","","html-keyboard-response","498","453373","0.0-1.0-687.0","0","0","53685","","null","","","null","76","NaN","","","","","","","","","","","","","","",""
"","S2","","html-keyboard-response","499","453626","0.0-1.0-688.0","0","0","53685","","null","","","null","76","","NaN","","","","","","","","","","","","","",""
"","response","","html-keyboard-response","500","454338","0.0-1.0-689.0-0.0","0","0","53685","","711","","","68","76","","","2","76","training","adjacent","DC","4","3","N.jpg","O.jpg","0","0","1","",""
"","feedback","","html-keyboard-response","501","455340","0.0-1.0-690.0-0.0","0","0","53685","","null","","","null","76","","","","","","","","","","","","","","","",""
"","ITI","","html-keyboard-response","502","456342","0.0-1.0-693.0","0","0","53685","","null","","","null","76","","","","","","","","","","","","","","","NaN",""
"","S1","","html-keyboard-response","503","456594","0.0-1.0-695.0","0","0","53685","","null","","","null","77","","","","","","","","","","","","","","","",""
"","ISI","","html-keyboard-response","504","456746","0.0-1.0-696.0","0","0","53685","","null","","","null","77","NaN","","","","","","","","","","","","","","",""
"","S2","","html-keyboard-response","505","456999","0.0-1.0-697.0","0","0","53685","","null","","","null","77","","NaN","","","","","","","","","","","","","",""
"","response","","html-keyboard-response","506","458752","0.0-1.0-698.0-0.0","0","0","53685","","null","","","null","77","","","2","77","training","adjacent","ED","5","4","P.jpg","N.jpg","NaN","0","0","",""
"","too_slow_prompt","","html-keyboard-response","507","459765","0.0-1.0-700.0-0.0","1","0","53685","","null","","","null","","","","","","","","","","","","","","","","",""
"","time_out","","html-keyboard-response","508","461778","0.0-1.0-701.0-0.0","0","0","53685","","null","","","null","77","","","","","","","","","","","","","","","",""
"","ITI","","html-keyboard-response","509","462780","0.0-1.0-702.0","0","0","53685","","null","","","null","77","","","","","","","","","","","","","","","NaN",""
"","S1","","html-keyboard-response","510","463033","0.0-1.0-704.0","0","0","53685","","null","","","null","78","","","","","","","","","","","","","","","",""
"","ISI","","html-keyboard-response","511","463185","0.0-1.0-705.0","0","0","53685","","null","","","null","78","NaN","","","","","","","","","","","","","","",""
"","S2","","html-keyboard-response","512","463438","0.0-1.0-706.0","0","0","53685","","null","","","null","78","","NaN","","","","","","","","","","","","","",""
"","response","","html-keyboard-response","513","463846","0.0-1.0-707.0-0.0","0","0","53685","","406","","","68","78","","","2","78","training","adjacent","CD","3","4","O.jpg","N.jpg","0","1","0","",""
"","feedback","","html-keyboard-response","514","464849","0.0-1.0-708.0-0.0","0","0","53685","","null","","","null","78","","","","","","","","","","","","","","","",""
"","time_out","","html-keyboard-response","515","466851","0.0-1.0-710.0-0.0","0","0","53685","","null","","","null","78","","","","","","","","","","","","","","","",""
"","ITI","","html-keyboard-response","516","467853","0.0-1.0-711.0","0","0","53685","","null","","","null","78","","","","","","","","","","","","","","","NaN",""
"","S1","","html-keyboard-response","517","468105","0.0-1.0-713.0","0","0","53685","","null","","","null","79","","","","","","","","","","","","","","","",""
"","ISI","","html-keyboard-response","518","468257","0.0-1.0-714.0","0","0","53685","","null","","","null","79","NaN","","","","","","","","","","","","","","",""
"","S2","","html-keyboard-response","519","468509","0.0-1.0-715.0","0","0","53685","","null","","","null","79","","NaN","","","","","","","","","","","","","",""
"","response","","html-keyboard-response","520","468928","0.0-1.0-716.0-0.0","0","0","53685","","417","","","75","79","","","2","79","training","adjacent","GF","7","6","L.jpg","R.jpg","1","0","0","",""
"","feedback","","html-keyboard-response","521","469930","0.0-1.0-717.0-0.0","0","0","53685","","null","","","null","79","","","","","","","","","","","","","","","",""
"","time_out","","html-keyboard-response","522","471933","0.0-1.0-719.0-0.0","0","0","53685","","null","","","null","79","","","","","","","","","","","","","","","",""
"","ITI","","html-keyboard-response","523","472936","0.0-1.0-720.0","0","0","53685","","null","","","null","79","","","","","","","","","","","","","","","NaN",""
"","S1","","html-keyboard-response","524","473188","0.0-1.0-722.0","0","0","53685","","null","","","null","80","","","","","","","","","","","","","","","",""
"","ISI","","html-keyboard-response","525","473340","0.0-1.0-723.0","0","0","53685","","null","","","null","80","NaN","","","","","","","","","","","","","","",""
"","S2","","html-keyboard-response","526","473592","0.0-1.0-724.0","0","0","53685","","null","","","null","80","","NaN","","","","","","","","","","","","","",""
"","response","","html-keyboard-response","527","473842","0.0-1.0-725.0-0.0","0","0","53685","","248","","","68","80","","","2","80","training","adjacent","FG","6","7","R.jpg","L.jpg","0","1","0","",""
"","feedback","","html-keyboard-response","528","474845","0.0-1.0-726.0-0.0","0","0","53685","","null","","","null","80","","","","","","","","","","","","","","","",""
"","time_out","","html-keyboard-response","529","476847","0.0-1.0-728.0-0.0","0","0","53685","","null","","","null","80","","","","","","","","","","","","","","","",""
"","ITI","","html-keyboard-response","530","477849","0.0-1.0-729.0","0","0","53685","","null","","","null","80","","","","","","","","","","","","","","","NaN",""
"","S1","","html-keyboard-response","531","478102","0.0-1.0-731.0","0","0","53685","","null","","","null","81","","","","","","","","","","","","","","","",""
"","ISI","","html-keyboard-response","532","478254","0.0-1.0-732.0","0","0","53685","","null","","","null","81","NaN","","","","","","","","","","","","","","",""
"","S2","","html-keyboard-response","533","478507","0.0-1.0-733.0","0","0","53685","","null","","","null","81","","NaN","","","","","","","","","","","","","",""
"","response","","html-keyboard-response","534","478716","0.0-1.0-734.0-0.0","0","0","53685","","208","","","75","81","","","2","81","training","adjacent","AB","1","2","M.jpg","Q.jpg","1","1","1","",""
"","feedback","","html-keyboard-response","535","479719","0.0-1.0-735.0-0.0","0","0","53685","","null","","","null","81","","","","","","","","","","","","","","","",""
"","ITI","","html-keyboard-response","536","480722","0.0-1.0-738.0","0","0","53685","","null","","","null","81","","","","","","","","","","","","","","","NaN",""
"","S1","","html-keyboard-response","537","480976","0.0-1.0-740.0","0","0","53685","","null","","","null","82","","","","","","","","","","","","","","","",""
"","ISI","","html-keyboard-response","538","481128","0.0-1.0-741.0","0","0","53685","","null","","","null","82","NaN","","","","","","","","","","","","","","",""
"","S2","","html-keyboard-response","539","481381","0.0-1.0-742.0","0","0","53685","","null","","","null","82","","NaN","","","","","","","","","","","","","",""
"","response","","html-keyboard-response","540","482127","0.0-1.0-743.0-0.0","0","0","53685","","745","","","68","82","","","2","82","training","adjacent","CD","3","4","O.jpg","N.jpg","0","1","0","",""
"","feedback","","html-keyboard-response","541","483129","0.0-1.0-744.0-0.0","0","0","53685","","null","","","null","82","","","","","","","","","","","","","","","",""
"","time_out","","html-keyboard-response","542","485132","0.0-1.0-746.0-0.0","0","0","53685","","null","","","null","82","","","","","","","","","","","","","","","",""
"","ITI","","html-keyboard-response","543","486134","0.0-1.0-747.0","0","0","53685","","null","","","null","82","","","","","","","","","","","","","","","NaN",""
"","S1","","html-keyboard-response","544","486386","0.0-1.0-749.0","0","0","53685","","null","","","null","83","","","","","","","","","","","","","","","",""
"","ISI","","html-keyboard-response","545","486538","0.0-1.0-750.0","0","0","53685","","null","","","null","83","NaN","","","","","","","","","","","","","","",""
"","S2","","html-keyboard-response","546","486790","0.0-1.0-751.0","0","0","53685","","null","","","null","83","","NaN","","","","","","","","","","","","","",""
"","response","","html-keyboard-response","547","487439","0.0-1.0-752.0-0.0","0","0","53685","","648","","","75","83","","","2","83","training","adjacent","FE","6","5","R.jpg","P.jpg","1","0","0","",""
"","feedback","","html-keyboard-response","548","488442","0.0-1.0-753.0-0.0","0","0","53685","","null","","","null","83","","","","","","","","","","","","","","","",""
"","time_out","","html-keyboard-response","549","490445","0.0-1.0-755.0-0.0","0","0","53685","","null","","","null","83","","","","","","","","","","","","","","","",""
"","ITI","","html-keyboard-response","550","491447","0.0-1.0-756.0","0","0","53685","","null","","","null","83","","","","","","","","","","","","","","","NaN",""
"","S1","","html-keyboard-response","551","491699","0.0-1.0-758.0","0","0","53685","","null","","","null","84","","","","","","","","","","","","","","","",""
"","ISI","","html-keyboard-response","552","491851","0.0-1.0-759.0","0","0","53685","","null","","","null","84","NaN","","","","","","","","","","","","","","",""
"","S2","","html-keyboard-response","553","492103","0.0-1.0-760.0","0","0","53685","","null","","","null","84","","NaN","","","","","","","","","","","","","",""
"","response","","html-keyboard-response","554","492358","0.0-1.0-761.0-0.0","0","0","53685","","253","","","68","84","","","2","84","training","adjacent","BA","2","1","Q.jpg","M.jpg","0","0","1","",""
"","feedback","","html-keyboard-response","555","493360","0.0-1.0-762.0-0.0","0","0","53685","","null","","","null","84","","","","","","","","","","","","","","","",""
"","ITI","","html-keyboard-response","556","494362","0.0-1.0-765.0","0","0","53685","","null","","","null","84","","","","","","","","","","","","","","","NaN",""
"","S1","","html-keyboard-response","557","494614","0.0-1.0-767.0","0","0","53685","","null","","","null","85","","","","","","","","","","","","","","","",""
"","ISI","","html-keyboard-response","558","494767","0.0-1.0-768.0","0","0","53685","","null","","","null","85","NaN","","","","","","","","","","","","","","",""
"","S2","","html-keyboard-response","559","495019","0.0-1.0-769.0","0","0","53685","","null","","","null","85","","NaN","","","","","","","","","","","","","",""
"","response","","html-keyboard-response","560","496499","0.0-1.0-770.0-0.0","0","0","53685","","1479","","","75","85","","","2","85","training","adjacent","DE","4","5","N.jpg","P.jpg","1","1","1","",""
"","feedback","","html-keyboard-response","561","497502","0.0-1.0-771.0-0.0","0","0","53685","","null","","","null","85","","","","","","","","","","","","","","","",""
"","ITI","","html-keyboard-response","562","498505","0.0-1.0-774.0","0","0","53685","","null","","","null","85","","","","","","","","","","","","","","","NaN",""
"","S1","","html-keyboard-response","563","498757","0.0-1.0-776.0","0","0","53685","","null","","","null","86","","","","","","","","","","","","","","","",""
"","ISI","","html-keyboard-response","564","498909","0.0-1.0-777.0","0","0","53685","","null","","","null","86","NaN","","","","","","","","","","","","","","",""
"","S2","","html-keyboard-response","565","499162","0.0-1.0-778.0","0","0","53685","","null","","","null","86","","NaN","","","","","","","","","","","","","",""
"","response","","html-keyboard-response","566","499704","0.0-1.0-779.0-0.0","0","0","53685","","541","","","68","86","","","2","86","training","adjacent","EF","5","6","P.jpg","R.jpg","0","1","0","",""
"","feedback","","html-keyboard-response","567","500707","0.0-1.0-780.0-0.0","0","0","53685","","null","","","null","86","","","","","","","","","","","","","","","",""
"","time_out","","html-keyboard-response","568","502709","0.0-1.0-782.0-0.0","0","0","53685","","null","","","null","86","","","","","","","","","","","","","","","",""
"","ITI","","html-keyboard-response","569","503712","0.0-1.0-783.0","0","0","53685","","null","","","null","86","","","","","","","","","","","","","","","NaN",""
"","S1","","html-keyboard-response","570","503965","0.0-1.0-785.0","0","0","53685","","null","","","null","87","","","","","","","","","","","","","","","",""
"","ISI","","html-keyboard-response","571","504117","0.0-1.0-786.0","0","0","53685","","null","","","null","87","NaN","","","","","","","","","","","","","","",""
"","S2","","html-keyboard-response","572","504369","0.0-1.0-787.0","0","0","53685","","null","","","null","87","","NaN","","","","","","","","","","","","","",""
"","response","","html-keyboard-response","573","504871","0.0-1.0-788.0-0.0","0","0","53685","","499","","","75","87","","","2","87","training","adjacent","FE","6","5","R.jpg","P.jpg","1","0","0","",""
"","feedback","","html-keyboard-response","574","505873","0.0-1.0-789.0-0.0","0","0","53685","","null","","","null","87","","","","","","","","","","","","","","","",""
"","time_out","","html-keyboard-response","575","507875","0.0-1.0-791.0-0.0","0","0","53685","","null","","","null","87","","","","","","","","","","","","","","","",""
"","ITI","","html-keyboard-response","576","508877","0.0-1.0-792.0","0","0","53685","","null","","","null","87","","","","","","","","","","","","","","","NaN",""
"","S1","","html-keyboard-response","577","509129","0.0-1.0-794.0","0","0","53685","","null","","","null","88","","","","","","","","","","","","","","","",""
"","ISI","","html-keyboard-response","578","509282","0.0-1.0-795.0","0","0","53685","","null","","","null","88","NaN","","","","","","","","","","","","","","",""
"","S2","","html-keyboard-response","579","509534","0.0-1.0-796.0","0","0","53685","","null","","","null","88","","NaN","","","","","","","","","","","","","",""
"","response","","html-keyboard-response","580","509895","0.0-1.0-797.0-0.0","0","0","53685","","358","","","75","88","","","2","88","training","adjacent","FG","6","7","R.jpg","L.jpg","1","1","1","",""
